ExperimentName	Subject	Session	Age	Clock.Information	DataFile.Basename	Display.RefreshRate	ExperimentVersion	Group	Name	RandomSeed	Recznosc	ResearcherID	RuntimeVersion	SessionDate	SessionStartDateTimeUtc	SessionTime	Sex	StudioVersion	Block	BlockList	BlockList.Cycle	BlockList.Sample	BlockNumber	GoodBye.RESP	GoodBye2.RESP	GoodByeList	GoodByeList.Cycle	GoodByeList.Sample	InstrList	InstrList.Cycle	InstrList.Sample	Instructions3.RESP	Instructions4.RESP	Instructions5.RESP	kobieta_S1	kobieta_S2	kobieta_S3	kobieta_S4	kobieta_S5	mezczyzna_S1	mezczyzna_S2	mezczyzna_S3	mezczyzna_S4	mezczyzna_S5	NextBlock.RESP	NextBlock0.RESP	planowanie	PracticeMode	Procedure[Block]	proszenie	Running[Block]	TrainingList	TrainingList.Cycle	TrainingList.Sample	WordList	WordList1	wykonanie	zauwazenie	zrozumienie	Trial	ChoiceType	Condition	CorrectRespon	Effect	ErrorText	Fixation2.DurationError	Fixation2.OnsetDelay	Fixation2.OnsetTime	Fixation2.OnsetToOnsetTime	fixTime	GoalRespInd1	GoalRespInd2	GoalRespInd3	GoalRespInd4	GoalRespInd5	GoalRespInd6	GoalRespName1	GoalRespName2	GoalRespName3	GoalRespName4	GoalRespName5	GoalRespName6	kol1	kol2	kol3	kol4	kol5	kol6	markerTarget	NeutralPrimeList1	Ocena	Ocena.Cycle	Ocena.Sample	OverallRT	Posit	Prime	Prime.ActionDelay	Prime.ActionTime	Prime.CustomOffsetTime	Prime.CustomOnsetTime	Prime.Duration	Prime.DurationError	Prime.FinishTime	Prime.OffsetDelay	Prime.OffsetTime	Prime.OnsetDelay	Prime.OnsetTime	Prime.OnsetToOnsetTime	Prime.PendingInputMasks	Prime.PreRelease	Prime.StartTime	Prime.TargetOffsetTime	Prime.TargetOnsetTime	Prime.TimingMode	PrimeChoice	Procedure[Trial]	Resp	RespWin.ACC	RespWin.CRESP	RespWin.DurationError	RespWin.OnsetDelay	RespWin.OnsetTime	RespWin.OnsetToOnsetTime	RespWin.RESP	RespWin.RT	RespWin.RTTime	Running[Trial]	Target	TargetSlide.ACC	TargetSlide.CRESP	TargetSlide.DurationError	TargetSlide.OnsetDelay	TargetSlide.OnsetTime	TargetSlide.OnsetToOnsetTime	TargetSlide.RESP	TargetSlide.RT	TargetSlide.RTTime	TargetTraining	TBox1	TBox2	TBox3	TBox4	TBox5	TBox6	TrainingList1	TrainingList1.Cycle	TrainingList1.Sample	TrCorrectResp	TrialList1	TrialList1.Cycle	TrialList1.Sample	TrialList2	TrialList2.Cycle	TrialList2.Sample	TrialType	TrPosit	TrWaitTime	WaitTime
1 ver1_main_procedureEEG	2	1	25	<?xml version="1.0"?>\n<Clock xmlns:dt="urn:schemas-microsoft-com:datatypes"><Description dt:dt="string">E-Prime Primary Realtime Clock</Description><StartTime><Timestamp dt:dt="int">0</Timestamp><DateUtc dt:dt="string">2015-09-17T14:35:59Z</DateUtc></StartTime><FrequencyChanges><FrequencyChange><Frequency dt:dt="r8">2612294</Frequency><Timestamp dt:dt="r8">8506158163</Timestamp><Current dt:dt="r8">0</Current><DateUtc dt:dt="string">2015-09-17T14:35:59Z</DateUtc></FrequencyChange></FrequencyChanges></Clock>\n	1 ver1_main_procedureEEG-2-1	99.931	1.0.0.896	1	MC	-83246204	prawa	1	2.0.10.182	09-17-2015	2015-09-17 14:35:59	16:35:59	kobieta	2.0.10.92	1										1	1	1	{SPACE}	{SPACE}	d	poproszona	planowała	zrozumiałaś	wykonała		poproszony	planował	zrozumiałeś	wykonał				planowała		InstrProc	poproszona	InstrList				1		wykonała		zrozumiałaś																																																																																																			
1 ver1_main_procedureEEG	2	1	25	<?xml version="1.0"?>\n<Clock xmlns:dt="urn:schemas-microsoft-com:datatypes"><Description dt:dt="string">E-Prime Primary Realtime Clock</Description><StartTime><Timestamp dt:dt="int">0</Timestamp><DateUtc dt:dt="string">2015-09-17T14:35:59Z</DateUtc></StartTime><FrequencyChanges><FrequencyChange><Frequency dt:dt="r8">2612294</Frequency><Timestamp dt:dt="r8">8506158163</Timestamp><Current dt:dt="r8">0</Current><DateUtc dt:dt="string">2015-09-17T14:35:59Z</DateUtc></FrequencyChange></FrequencyChanges></Clock>\n	1 ver1_main_procedureEEG-2-1	99.931	1.0.0.896	1	MC	-83246204	prawa	1	2.0.10.182	09-17-2015	2015-09-17 14:35:59	16:35:59	kobieta	2.0.10.92	2																														TrainingProc1		TrainingList	1	1	1						1																																																								TrainProc											TrainingList1											target_right.png							2	1	1	l								25	450	
1 ver1_main_procedureEEG	2	1	25	<?xml version="1.0"?>\n<Clock xmlns:dt="urn:schemas-microsoft-com:datatypes"><Description dt:dt="string">E-Prime Primary Realtime Clock</Description><StartTime><Timestamp dt:dt="int">0</Timestamp><DateUtc dt:dt="string">2015-09-17T14:35:59Z</DateUtc></StartTime><FrequencyChanges><FrequencyChange><Frequency dt:dt="r8">2612294</Frequency><Timestamp dt:dt="r8">8506158163</Timestamp><Current dt:dt="r8">0</Current><DateUtc dt:dt="string">2015-09-17T14:35:59Z</DateUtc></FrequencyChange></FrequencyChanges></Clock>\n	1 ver1_main_procedureEEG-2-1	99.931	1.0.0.896	1	MC	-83246204	prawa	1	2.0.10.182	09-17-2015	2015-09-17 14:35:59	16:35:59	kobieta	2.0.10.92	2																														TrainingProc1		TrainingList	1	1	1						2																																																								TrainProc											TrainingList1											target_left.png							1	1	2	d								75	300	
1 ver1_main_procedureEEG	2	1	25	<?xml version="1.0"?>\n<Clock xmlns:dt="urn:schemas-microsoft-com:datatypes"><Description dt:dt="string">E-Prime Primary Realtime Clock</Description><StartTime><Timestamp dt:dt="int">0</Timestamp><DateUtc dt:dt="string">2015-09-17T14:35:59Z</DateUtc></StartTime><FrequencyChanges><FrequencyChange><Frequency dt:dt="r8">2612294</Frequency><Timestamp dt:dt="r8">8506158163</Timestamp><Current dt:dt="r8">0</Current><DateUtc dt:dt="string">2015-09-17T14:35:59Z</DateUtc></FrequencyChange></FrequencyChanges></Clock>\n	1 ver1_main_procedureEEG-2-1	99.931	1.0.0.896	1	MC	-83246204	prawa	1	2.0.10.182	09-17-2015	2015-09-17 14:35:59	16:35:59	kobieta	2.0.10.92	2																														TrainingProc1		TrainingList	1	1	1						3																																																								TrainProc											TrainingList1											target_both.png							3	1	3	dl								25	150	
1 ver1_main_procedureEEG	2	1	25	<?xml version="1.0"?>\n<Clock xmlns:dt="urn:schemas-microsoft-com:datatypes"><Description dt:dt="string">E-Prime Primary Realtime Clock</Description><StartTime><Timestamp dt:dt="int">0</Timestamp><DateUtc dt:dt="string">2015-09-17T14:35:59Z</DateUtc></StartTime><FrequencyChanges><FrequencyChange><Frequency dt:dt="r8">2612294</Frequency><Timestamp dt:dt="r8">8506158163</Timestamp><Current dt:dt="r8">0</Current><DateUtc dt:dt="string">2015-09-17T14:35:59Z</DateUtc></FrequencyChange></FrequencyChanges></Clock>\n	1 ver1_main_procedureEEG-2-1	99.931	1.0.0.896	1	MC	-83246204	prawa	1	2.0.10.182	09-17-2015	2015-09-17 14:35:59	16:35:59	kobieta	2.0.10.92	2																														TrainingProc1		TrainingList	1	1	1						4																																																								TrainProc											TrainingList1											target_both.png							3	1	4	dl								75	150	
1 ver1_main_procedureEEG	2	1	25	<?xml version="1.0"?>\n<Clock xmlns:dt="urn:schemas-microsoft-com:datatypes"><Description dt:dt="string">E-Prime Primary Realtime Clock</Description><StartTime><Timestamp dt:dt="int">0</Timestamp><DateUtc dt:dt="string">2015-09-17T14:35:59Z</DateUtc></StartTime><FrequencyChanges><FrequencyChange><Frequency dt:dt="r8">2612294</Frequency><Timestamp dt:dt="r8">8506158163</Timestamp><Current dt:dt="r8">0</Current><DateUtc dt:dt="string">2015-09-17T14:35:59Z</DateUtc></FrequencyChange></FrequencyChanges></Clock>\n	1 ver1_main_procedureEEG-2-1	99.931	1.0.0.896	1	MC	-83246204	prawa	1	2.0.10.182	09-17-2015	2015-09-17 14:35:59	16:35:59	kobieta	2.0.10.92	2																														TrainingProc1		TrainingList	1	1	1						5																																																								TrainProc											TrainingList1											target_left.png							1	1	5	d								75	150	
1 ver1_main_procedureEEG	2	1	25	<?xml version="1.0"?>\n<Clock xmlns:dt="urn:schemas-microsoft-com:datatypes"><Description dt:dt="string">E-Prime Primary Realtime Clock</Description><StartTime><Timestamp dt:dt="int">0</Timestamp><DateUtc dt:dt="string">2015-09-17T14:35:59Z</DateUtc></StartTime><FrequencyChanges><FrequencyChange><Frequency dt:dt="r8">2612294</Frequency><Timestamp dt:dt="r8">8506158163</Timestamp><Current dt:dt="r8">0</Current><DateUtc dt:dt="string">2015-09-17T14:35:59Z</DateUtc></FrequencyChange></FrequencyChanges></Clock>\n	1 ver1_main_procedureEEG-2-1	99.931	1.0.0.896	1	MC	-83246204	prawa	1	2.0.10.182	09-17-2015	2015-09-17 14:35:59	16:35:59	kobieta	2.0.10.92	2																														TrainingProc1		TrainingList	1	1	1						6																																																								TrainProc											TrainingList1											target_right.png							2	1	6	l								75	150	
1 ver1_main_procedureEEG	2	1	25	<?xml version="1.0"?>\n<Clock xmlns:dt="urn:schemas-microsoft-com:datatypes"><Description dt:dt="string">E-Prime Primary Realtime Clock</Description><StartTime><Timestamp dt:dt="int">0</Timestamp><DateUtc dt:dt="string">2015-09-17T14:35:59Z</DateUtc></StartTime><FrequencyChanges><FrequencyChange><Frequency dt:dt="r8">2612294</Frequency><Timestamp dt:dt="r8">8506158163</Timestamp><Current dt:dt="r8">0</Current><DateUtc dt:dt="string">2015-09-17T14:35:59Z</DateUtc></FrequencyChange></FrequencyChanges></Clock>\n	1 ver1_main_procedureEEG-2-1	99.931	1.0.0.896	1	MC	-83246204	prawa	1	2.0.10.182	09-17-2015	2015-09-17 14:35:59	16:35:59	kobieta	2.0.10.92	2																														TrainingProc1		TrainingList	1	1	1						7																																																								TrainProc											TrainingList1											target_right.png							2	1	7	l								25	450	
1 ver1_main_procedureEEG	2	1	25	<?xml version="1.0"?>\n<Clock xmlns:dt="urn:schemas-microsoft-com:datatypes"><Description dt:dt="string">E-Prime Primary Realtime Clock</Description><StartTime><Timestamp dt:dt="int">0</Timestamp><DateUtc dt:dt="string">2015-09-17T14:35:59Z</DateUtc></StartTime><FrequencyChanges><FrequencyChange><Frequency dt:dt="r8">2612294</Frequency><Timestamp dt:dt="r8">8506158163</Timestamp><Current dt:dt="r8">0</Current><DateUtc dt:dt="string">2015-09-17T14:35:59Z</DateUtc></FrequencyChange></FrequencyChanges></Clock>\n	1 ver1_main_procedureEEG-2-1	99.931	1.0.0.896	1	MC	-83246204	prawa	1	2.0.10.182	09-17-2015	2015-09-17 14:35:59	16:35:59	kobieta	2.0.10.92	2																														TrainingProc1		TrainingList	1	1	1						8																																																								TrainProc											TrainingList1											target_both.png							3	1	8	dl								75	300	
1 ver1_main_procedureEEG	2	1	25	<?xml version="1.0"?>\n<Clock xmlns:dt="urn:schemas-microsoft-com:datatypes"><Description dt:dt="string">E-Prime Primary Realtime Clock</Description><StartTime><Timestamp dt:dt="int">0</Timestamp><DateUtc dt:dt="string">2015-09-17T14:35:59Z</DateUtc></StartTime><FrequencyChanges><FrequencyChange><Frequency dt:dt="r8">2612294</Frequency><Timestamp dt:dt="r8">8506158163</Timestamp><Current dt:dt="r8">0</Current><DateUtc dt:dt="string">2015-09-17T14:35:59Z</DateUtc></FrequencyChange></FrequencyChanges></Clock>\n	1 ver1_main_procedureEEG-2-1	99.931	1.0.0.896	1	MC	-83246204	prawa	1	2.0.10.182	09-17-2015	2015-09-17 14:35:59	16:35:59	kobieta	2.0.10.92	2																														TrainingProc1		TrainingList	1	1	1						9																																																								TrainProc											TrainingList1											target_left.png							1	1	9	d								25	300	
1 ver1_main_procedureEEG	2	1	25	<?xml version="1.0"?>\n<Clock xmlns:dt="urn:schemas-microsoft-com:datatypes"><Description dt:dt="string">E-Prime Primary Realtime Clock</Description><StartTime><Timestamp dt:dt="int">0</Timestamp><DateUtc dt:dt="string">2015-09-17T14:35:59Z</DateUtc></StartTime><FrequencyChanges><FrequencyChange><Frequency dt:dt="r8">2612294</Frequency><Timestamp dt:dt="r8">8506158163</Timestamp><Current dt:dt="r8">0</Current><DateUtc dt:dt="string">2015-09-17T14:35:59Z</DateUtc></FrequencyChange></FrequencyChanges></Clock>\n	1 ver1_main_procedureEEG-2-1	99.931	1.0.0.896	1	MC	-83246204	prawa	1	2.0.10.182	09-17-2015	2015-09-17 14:35:59	16:35:59	kobieta	2.0.10.92	3	3	1	1																							l	{SPACE}		no	BlockProc1		BlockList									1	Cued	leftComp	d	color_yellow.png		-1	8	197114	330	1333																			2						25	prime_left.png	0	196694	0	0	13	0	196694	0	196694	8	196694	20	0	-1	195357	196694	196686	0		TrialProc1	left	0		0	20	197014	-197014		0	0	TrialList1	target_left.png	1	d	-1	3	196744	270	d	361	197105												1	1	1				comp			300
1 ver1_main_procedureEEG	2	1	25	<?xml version="1.0"?>\n<Clock xmlns:dt="urn:schemas-microsoft-com:datatypes"><Description dt:dt="string">E-Prime Primary Realtime Clock</Description><StartTime><Timestamp dt:dt="int">0</Timestamp><DateUtc dt:dt="string">2015-09-17T14:35:59Z</DateUtc></StartTime><FrequencyChanges><FrequencyChange><Frequency dt:dt="r8">2612294</Frequency><Timestamp dt:dt="r8">8506158163</Timestamp><Current dt:dt="r8">0</Current><DateUtc dt:dt="string">2015-09-17T14:35:59Z</DateUtc></FrequencyChange></FrequencyChanges></Clock>\n	1 ver1_main_procedureEEG-2-1	99.931	1.0.0.896	1	MC	-83246204	prawa	1	2.0.10.182	09-17-2015	2015-09-17 14:35:59	16:35:59	kobieta	2.0.10.92	3	3	1	1																							l	{SPACE}		no	BlockProc1		BlockList									2	Free	rightNeut	dl	color_purple.png		-1	14	199576	470	1315																			3	1					25	prime_left.png	0	199075	0	0	13	0	199075	0	199075	6	199075	20	0	-1	197758	199075	199069	0	prime_left.png	TrialProc1	right	0		1	10	199385	-199385		0	0	TrialList1	target_both.png	0	dl	-1	3	199125	260	l	436	199561												11	1	2				neut			450
1 ver1_main_procedureEEG	2	1	25	<?xml version="1.0"?>\n<Clock xmlns:dt="urn:schemas-microsoft-com:datatypes"><Description dt:dt="string">E-Prime Primary Realtime Clock</Description><StartTime><Timestamp dt:dt="int">0</Timestamp><DateUtc dt:dt="string">2015-09-17T14:35:59Z</DateUtc></StartTime><FrequencyChanges><FrequencyChange><Frequency dt:dt="r8">2612294</Frequency><Timestamp dt:dt="r8">8506158163</Timestamp><Current dt:dt="r8">0</Current><DateUtc dt:dt="string">2015-09-17T14:35:59Z</DateUtc></FrequencyChange></FrequencyChanges></Clock>\n	1 ver1_main_procedureEEG-2-1	99.931	1.0.0.896	1	MC	-83246204	prawa	1	2.0.10.182	09-17-2015	2015-09-17 14:35:59	16:35:59	kobieta	2.0.10.92	3	3	1	1																							l	{SPACE}		no	BlockProc1		BlockList									3	Free	rightComp	dl	color_red.png		-1	9	202027	460	1170																			3						75	prime_right.png	0	201527	0	0	13	0	201527	0	201527	1	201527	20	0	-1	200358	201527	201526	0		TrialProc1	right	0		0	10	201837	-201837		0	0	TrialList1	target_both.png	0	dl	-1	3	201577	260	l	440	202017												10	1	3				comp			450
1 ver1_main_procedureEEG	2	1	25	<?xml version="1.0"?>\n<Clock xmlns:dt="urn:schemas-microsoft-com:datatypes"><Description dt:dt="string">E-Prime Primary Realtime Clock</Description><StartTime><Timestamp dt:dt="int">0</Timestamp><DateUtc dt:dt="string">2015-09-17T14:35:59Z</DateUtc></StartTime><FrequencyChanges><FrequencyChange><Frequency dt:dt="r8">2612294</Frequency><Timestamp dt:dt="r8">8506158163</Timestamp><Current dt:dt="r8">0</Current><DateUtc dt:dt="string">2015-09-17T14:35:59Z</DateUtc></FrequencyChange></FrequencyChanges></Clock>\n	1 ver1_main_procedureEEG-2-1	99.931	1.0.0.896	1	MC	-83246204	prawa	1	2.0.10.182	09-17-2015	2015-09-17 14:35:59	16:35:59	kobieta	2.0.10.92	3	3	1	1																							l	{SPACE}		no	BlockProc1		BlockList									4	Free	leftIncomp	dl	color_green.png		-1	11	205109	480	1866																			3						75	prime_right.png	0	204669	0	0	13	0	204669	0	204669	5	204669	20	0	-1	202799	204669	204664	0		TrialProc1	left	0		0	10	204979	-204979		0	0	TrialList1	target_both.png	0	dl	-1	3	204719	260	d	378	205097												9	1	4				incomp			450
1 ver1_main_procedureEEG	2	1	25	<?xml version="1.0"?>\n<Clock xmlns:dt="urn:schemas-microsoft-com:datatypes"><Description dt:dt="string">E-Prime Primary Realtime Clock</Description><StartTime><Timestamp dt:dt="int">0</Timestamp><DateUtc dt:dt="string">2015-09-17T14:35:59Z</DateUtc></StartTime><FrequencyChanges><FrequencyChange><Frequency dt:dt="r8">2612294</Frequency><Timestamp dt:dt="r8">8506158163</Timestamp><Current dt:dt="r8">0</Current><DateUtc dt:dt="string">2015-09-17T14:35:59Z</DateUtc></FrequencyChange></FrequencyChanges></Clock>\n	1 ver1_main_procedureEEG-2-1	99.931	1.0.0.896	1	MC	-83246204	prawa	1	2.0.10.182	09-17-2015	2015-09-17 14:35:59	16:35:59	kobieta	2.0.10.92	3	3	1	1																							l	{SPACE}		no	BlockProc1		BlockList									5	Cued	rightNeut	l	color_purple.png		-1	8	207650	321	1324																			2	2					75	prime_right.png	0	207230	0	0	13	0	207230	0	207230	7	207230	20	0	-1	205901	207230	207223	0	prime_right.png	TrialProc1	right	0		0	10	207540	-207540		0	0	TrialList1	target_right.png	1	l	-1	3	207280	260	l	361	207641												5	1	5				neut			300
1 ver1_main_procedureEEG	2	1	25	<?xml version="1.0"?>\n<Clock xmlns:dt="urn:schemas-microsoft-com:datatypes"><Description dt:dt="string">E-Prime Primary Realtime Clock</Description><StartTime><Timestamp dt:dt="int">0</Timestamp><DateUtc dt:dt="string">2015-09-17T14:35:59Z</DateUtc></StartTime><FrequencyChanges><FrequencyChange><Frequency dt:dt="r8">2612294</Frequency><Timestamp dt:dt="r8">8506158163</Timestamp><Current dt:dt="r8">0</Current><DateUtc dt:dt="string">2015-09-17T14:35:59Z</DateUtc></FrequencyChange></FrequencyChanges></Clock>\n	1 ver1_main_procedureEEG-2-1	99.931	1.0.0.896	1	MC	-83246204	prawa	1	2.0.10.182	09-17-2015	2015-09-17 14:35:59	16:35:59	kobieta	2.0.10.92	3	3	1	1																							l	{SPACE}		no	BlockProc1		BlockList									6	Cued	leftComp	d	color_yellow.png		-1	12	209862	470	1119																			2						75	prime_left.png	1	209402	0	0	13	1	209402	1	209402	1	209401	20	0	-1	208283	209401	209400	0		TrialProc1	left	0		0	11	209712	-209712		0	0	TrialList1	target_left.png	1	d	-1	3	209451	261	d	398	209849												1	1	6				comp			450
1 ver1_main_procedureEEG	2	1	25	<?xml version="1.0"?>\n<Clock xmlns:dt="urn:schemas-microsoft-com:datatypes"><Description dt:dt="string">E-Prime Primary Realtime Clock</Description><StartTime><Timestamp dt:dt="int">0</Timestamp><DateUtc dt:dt="string">2015-09-17T14:35:59Z</DateUtc></StartTime><FrequencyChanges><FrequencyChange><Frequency dt:dt="r8">2612294</Frequency><Timestamp dt:dt="r8">8506158163</Timestamp><Current dt:dt="r8">0</Current><DateUtc dt:dt="string">2015-09-17T14:35:59Z</DateUtc></FrequencyChange></FrequencyChanges></Clock>\n	1 ver1_main_procedureEEG-2-1	99.931	1.0.0.896	1	MC	-83246204	prawa	1	2.0.10.182	09-17-2015	2015-09-17 14:35:59	16:35:59	kobieta	2.0.10.92	3	3	1	1																							l	{SPACE}		no	BlockProc1		BlockList									7	Cued	leftIncomp	d	color_green.png		-1	13	212423	471	1284																			2						25	prime_right.png	0	211943	0	0	13	0	211943	0	211943	7	211943	20	0	-1	210654	211943	211936	0		TrialProc1	left	0		0	10	212253	-212253		0	0	TrialList1	target_left.png	1	d	-1	3	211993	260	d	416	212409												3	1	7				incomp			450
1 ver1_main_procedureEEG	2	1	25	<?xml version="1.0"?>\n<Clock xmlns:dt="urn:schemas-microsoft-com:datatypes"><Description dt:dt="string">E-Prime Primary Realtime Clock</Description><StartTime><Timestamp dt:dt="int">0</Timestamp><DateUtc dt:dt="string">2015-09-17T14:35:59Z</DateUtc></StartTime><FrequencyChanges><FrequencyChange><Frequency dt:dt="r8">2612294</Frequency><Timestamp dt:dt="r8">8506158163</Timestamp><Current dt:dt="r8">0</Current><DateUtc dt:dt="string">2015-09-17T14:35:59Z</DateUtc></FrequencyChange></FrequencyChanges></Clock>\n	1 ver1_main_procedureEEG-2-1	99.931	1.0.0.896	1	MC	-83246204	prawa	1	2.0.10.182	09-17-2015	2015-09-17 14:35:59	16:35:59	kobieta	2.0.10.92	3	3	1	1																							l	{SPACE}		no	BlockProc1		BlockList									8	Free	rightComp	dl	color_red.png		-1	7	215625	471	1934																			3						25	prime_right.png	0	215145	0	0	13	0	215145	0	215145	7	215145	20	0	-1	213206	215145	215138	0		TrialProc1	right	0		0	10	215455	-215455		0	0	TrialList1	target_both.png	0	dl	-1	3	215195	260	l	422	215617												10	1	8				comp			450
1 ver1_main_procedureEEG	2	1	25	<?xml version="1.0"?>\n<Clock xmlns:dt="urn:schemas-microsoft-com:datatypes"><Description dt:dt="string">E-Prime Primary Realtime Clock</Description><StartTime><Timestamp dt:dt="int">0</Timestamp><DateUtc dt:dt="string">2015-09-17T14:35:59Z</DateUtc></StartTime><FrequencyChanges><FrequencyChange><Frequency dt:dt="r8">2612294</Frequency><Timestamp dt:dt="r8">8506158163</Timestamp><Current dt:dt="r8">0</Current><DateUtc dt:dt="string">2015-09-17T14:35:59Z</DateUtc></FrequencyChange></FrequencyChanges></Clock>\n	1 ver1_main_procedureEEG-2-1	99.931	1.0.0.896	1	MC	-83246204	prawa	1	2.0.10.182	09-17-2015	2015-09-17 14:35:59	16:35:59	kobieta	2.0.10.92	3	3	1	1																							l	{SPACE}		no	BlockProc1		BlockList									9	Cued	leftNeut	d	color_blue.png		-1	11	217837	180	1073																			2	1					25	prime_left.png	0	217486	0	0	13	0	217486	0	217486	7	217486	20	0	-1	216408	217486	217479	0	prime_left.png	TrialProc1	left	0		1	10	217796	-217796		0	0	TrialList1	target_left.png	1	d	-1	3	217536	260	d	289	217825												2	1	9				neut			150
1 ver1_main_procedureEEG	2	1	25	<?xml version="1.0"?>\n<Clock xmlns:dt="urn:schemas-microsoft-com:datatypes"><Description dt:dt="string">E-Prime Primary Realtime Clock</Description><StartTime><Timestamp dt:dt="int">0</Timestamp><DateUtc dt:dt="string">2015-09-17T14:35:59Z</DateUtc></StartTime><FrequencyChanges><FrequencyChange><Frequency dt:dt="r8">2612294</Frequency><Timestamp dt:dt="r8">8506158163</Timestamp><Current dt:dt="r8">0</Current><DateUtc dt:dt="string">2015-09-17T14:35:59Z</DateUtc></FrequencyChange></FrequencyChanges></Clock>\n	1 ver1_main_procedureEEG-2-1	99.931	1.0.0.896	1	MC	-83246204	prawa	1	2.0.10.182	09-17-2015	2015-09-17 14:35:59	16:35:59	kobieta	2.0.10.92	3	3	1	1																							l	{SPACE}		no	BlockProc1		BlockList									10	Free	rightNeut	dl	color_purple.png		-1	8	220578	470	1803																			3	2					25	prime_right.png	0	220138	0	0	13	0	220138	0	220138	8	220138	20	0	-1	218329	220138	220130	0	prime_right.png	TrialProc1	right	0		0	10	220448	-220448		0	0	TrialList1	target_both.png	0	dl	-1	3	220188	260	l	382	220570												11	1	10				neut			450
1 ver1_main_procedureEEG	2	1	25	<?xml version="1.0"?>\n<Clock xmlns:dt="urn:schemas-microsoft-com:datatypes"><Description dt:dt="string">E-Prime Primary Realtime Clock</Description><StartTime><Timestamp dt:dt="int">0</Timestamp><DateUtc dt:dt="string">2015-09-17T14:35:59Z</DateUtc></StartTime><FrequencyChanges><FrequencyChange><Frequency dt:dt="r8">2612294</Frequency><Timestamp dt:dt="r8">8506158163</Timestamp><Current dt:dt="r8">0</Current><DateUtc dt:dt="string">2015-09-17T14:35:59Z</DateUtc></FrequencyChange></FrequencyChanges></Clock>\n	1 ver1_main_procedureEEG-2-1	99.931	1.0.0.896	1	MC	-83246204	prawa	1	2.0.10.182	09-17-2015	2015-09-17 14:35:59	16:35:59	kobieta	2.0.10.92	3	3	1	1																							l	{SPACE}		no	BlockProc1		BlockList									11	Cued	rightComp	l	color_red.png		-1	14	223400	320	1544																			2						75	prime_right.png	0	222910	0	0	13	0	222910	0	222910	7	222910	20	0	-1	221361	222910	222903	0		TrialProc1	right	0		0	10	223220	-223220		0	0	TrialList1	target_right.png	1	l	-1	3	222960	260	l	426	223386												4	1	11				comp			300
1 ver1_main_procedureEEG	2	1	25	<?xml version="1.0"?>\n<Clock xmlns:dt="urn:schemas-microsoft-com:datatypes"><Description dt:dt="string">E-Prime Primary Realtime Clock</Description><StartTime><Timestamp dt:dt="int">0</Timestamp><DateUtc dt:dt="string">2015-09-17T14:35:59Z</DateUtc></StartTime><FrequencyChanges><FrequencyChange><Frequency dt:dt="r8">2612294</Frequency><Timestamp dt:dt="r8">8506158163</Timestamp><Current dt:dt="r8">0</Current><DateUtc dt:dt="string">2015-09-17T14:35:59Z</DateUtc></FrequencyChange></FrequencyChanges></Clock>\n	1 ver1_main_procedureEEG-2-1	99.931	1.0.0.896	1	MC	-83246204	prawa	1	2.0.10.182	09-17-2015	2015-09-17 14:35:59	16:35:59	kobieta	2.0.10.92	3	3	1	1																							l	{SPACE}		no	BlockProc1		BlockList									12	Cued	rightNeut	l	color_purple.png		-1	7	225681	470	1093																			2	1					25	prime_left.png	0	225131	0	0	13	0	225131	0	225131	8	225131	20	0	-1	224032	225131	225123	0	prime_left.png	TrialProc1	right	0		0	10	225441	-225441		0	0	TrialList1	target_right.png	1	l	-1	3	225181	260	l	493	225674												5	1	12				neut			450
1 ver1_main_procedureEEG	2	1	25	<?xml version="1.0"?>\n<Clock xmlns:dt="urn:schemas-microsoft-com:datatypes"><Description dt:dt="string">E-Prime Primary Realtime Clock</Description><StartTime><Timestamp dt:dt="int">0</Timestamp><DateUtc dt:dt="string">2015-09-17T14:35:59Z</DateUtc></StartTime><FrequencyChanges><FrequencyChange><Frequency dt:dt="r8">2612294</Frequency><Timestamp dt:dt="r8">8506158163</Timestamp><Current dt:dt="r8">0</Current><DateUtc dt:dt="string">2015-09-17T14:35:59Z</DateUtc></FrequencyChange></FrequencyChanges></Clock>\n	1 ver1_main_procedureEEG-2-1	99.931	1.0.0.896	1	MC	-83246204	prawa	1	2.0.10.182	09-17-2015	2015-09-17 14:35:59	16:35:59	kobieta	2.0.10.92	3	3	1	1																							l	{SPACE}		no	BlockProc1		BlockList									13	Cued	leftNeut	d	color_blue.png		-1	12	227903	470	1007																			2	2					75	prime_right.png	0	227472	0	0	13	0	227472	0	227472	3	227472	20	0	-1	226464	227472	227469	0	prime_right.png	TrialProc1	left	0		1	10	227782	-227782		0	0	TrialList1	target_left.png	1	d	-1	3	227522	260	d	368	227890												2	1	13				neut			450
1 ver1_main_procedureEEG	2	1	25	<?xml version="1.0"?>\n<Clock xmlns:dt="urn:schemas-microsoft-com:datatypes"><Description dt:dt="string">E-Prime Primary Realtime Clock</Description><StartTime><Timestamp dt:dt="int">0</Timestamp><DateUtc dt:dt="string">2015-09-17T14:35:59Z</DateUtc></StartTime><FrequencyChanges><FrequencyChange><Frequency dt:dt="r8">2612294</Frequency><Timestamp dt:dt="r8">8506158163</Timestamp><Current dt:dt="r8">0</Current><DateUtc dt:dt="string">2015-09-17T14:35:59Z</DateUtc></FrequencyChange></FrequencyChanges></Clock>\n	1 ver1_main_procedureEEG-2-1	99.931	1.0.0.896	1	MC	-83246204	prawa	1	2.0.10.182	09-17-2015	2015-09-17 14:35:59	16:35:59	kobieta	2.0.10.92	3	3	1	1																							l	{SPACE}		no	BlockProc1		BlockList									14	Cued	leftIncomp	d	color_green.png		-1	6	230224	170	1082																			2						25	prime_right.png	0	229774	0	0	13	0	229774	0	229774	9	229774	20	0	-1	228685	229774	229765	0		TrialProc1	left	0		0	10	230084	-230084		0	0	TrialList1	target_left.png	1	d	-1	3	229824	260	d	394	230218												3	1	14				incomp			150
1 ver1_main_procedureEEG	2	1	25	<?xml version="1.0"?>\n<Clock xmlns:dt="urn:schemas-microsoft-com:datatypes"><Description dt:dt="string">E-Prime Primary Realtime Clock</Description><StartTime><Timestamp dt:dt="int">0</Timestamp><DateUtc dt:dt="string">2015-09-17T14:35:59Z</DateUtc></StartTime><FrequencyChanges><FrequencyChange><Frequency dt:dt="r8">2612294</Frequency><Timestamp dt:dt="r8">8506158163</Timestamp><Current dt:dt="r8">0</Current><DateUtc dt:dt="string">2015-09-17T14:35:59Z</DateUtc></FrequencyChange></FrequencyChanges></Clock>\n	1 ver1_main_procedureEEG-2-1	99.931	1.0.0.896	1	MC	-83246204	prawa	1	2.0.10.182	09-17-2015	2015-09-17 14:35:59	16:35:59	kobieta	2.0.10.92	3	3	1	1																							l	{SPACE}		no	BlockProc1		BlockList									15	Cued	leftComp	d	color_yellow.png		-1	13	232415	461	1267																			2						25	prime_left.png	0	231975	0	0	13	0	231975	0	231975	4	231975	20	0	-1	230706	231975	231971	0		TrialProc1	left	0		0	10	232285	-232285		0	0	TrialList1	target_left.png	1	d	-1	3	232025	260	d	377	232402												1	1	15				comp			450
1 ver1_main_procedureEEG	2	1	25	<?xml version="1.0"?>\n<Clock xmlns:dt="urn:schemas-microsoft-com:datatypes"><Description dt:dt="string">E-Prime Primary Realtime Clock</Description><StartTime><Timestamp dt:dt="int">0</Timestamp><DateUtc dt:dt="string">2015-09-17T14:35:59Z</DateUtc></StartTime><FrequencyChanges><FrequencyChange><Frequency dt:dt="r8">2612294</Frequency><Timestamp dt:dt="r8">8506158163</Timestamp><Current dt:dt="r8">0</Current><DateUtc dt:dt="string">2015-09-17T14:35:59Z</DateUtc></FrequencyChange></FrequencyChanges></Clock>\n	1 ver1_main_procedureEEG-2-1	99.931	1.0.0.896	1	MC	-83246204	prawa	1	2.0.10.182	09-17-2015	2015-09-17 14:35:59	16:35:59	kobieta	2.0.10.92	3	3	1	1																							l	{SPACE}		no	BlockProc1		BlockList									16	Cued	leftIncomp	d	color_green.png		-1	14	234617	320	1005																			2						75	prime_right.png	0	234196	0	0	13	0	234196	0	234196	5	234196	20	0	-1	233188	234196	234191	0		TrialProc1	left	0		1	10	234506	-234506		0	0	TrialList1	target_left.png	1	d	-1	3	234246	260	d	356	234602												3	1	16				incomp			300
1 ver1_main_procedureEEG	2	1	25	<?xml version="1.0"?>\n<Clock xmlns:dt="urn:schemas-microsoft-com:datatypes"><Description dt:dt="string">E-Prime Primary Realtime Clock</Description><StartTime><Timestamp dt:dt="int">0</Timestamp><DateUtc dt:dt="string">2015-09-17T14:35:59Z</DateUtc></StartTime><FrequencyChanges><FrequencyChange><Frequency dt:dt="r8">2612294</Frequency><Timestamp dt:dt="r8">8506158163</Timestamp><Current dt:dt="r8">0</Current><DateUtc dt:dt="string">2015-09-17T14:35:59Z</DateUtc></FrequencyChange></FrequencyChanges></Clock>\n	1 ver1_main_procedureEEG-2-1	99.931	1.0.0.896	1	MC	-83246204	prawa	1	2.0.10.182	09-17-2015	2015-09-17 14:35:59	16:35:59	kobieta	2.0.10.92	3	3	1	1																							l	{SPACE}		no	BlockProc1		BlockList									17	Cued	leftComp	d	color_yellow.png		-1	11	237278	471	1679																			2						25	prime_left.png	0	236928	0	0	13	0	236928	0	236928	2	236928	20	0	-1	235249	236928	236926	0		TrialProc1	left	0		0	10	237238	-237238		0	0	TrialList1	target_left.png	1	d	-1	3	236978	260	d	288	237266												1	1	17				comp			450
1 ver1_main_procedureEEG	2	1	25	<?xml version="1.0"?>\n<Clock xmlns:dt="urn:schemas-microsoft-com:datatypes"><Description dt:dt="string">E-Prime Primary Realtime Clock</Description><StartTime><Timestamp dt:dt="int">0</Timestamp><DateUtc dt:dt="string">2015-09-17T14:35:59Z</DateUtc></StartTime><FrequencyChanges><FrequencyChange><Frequency dt:dt="r8">2612294</Frequency><Timestamp dt:dt="r8">8506158163</Timestamp><Current dt:dt="r8">0</Current><DateUtc dt:dt="string">2015-09-17T14:35:59Z</DateUtc></FrequencyChange></FrequencyChanges></Clock>\n	1 ver1_main_procedureEEG-2-1	99.931	1.0.0.896	1	MC	-83246204	prawa	1	2.0.10.182	09-17-2015	2015-09-17 14:35:59	16:35:59	kobieta	2.0.10.92	3	3	1	1																							l	{SPACE}		no	BlockProc1		BlockList									18	Cued	leftNeut	d	color_blue.png		-1	5	240360	170	1939																			2	1					25	prime_left.png	0	240000	0	0	13	0	240000	0	240000	2	240000	20	0	-1	238061	240000	239998	0	prime_left.png	TrialProc1	left	0		0	10	240310	-240310		0	0	TrialList1	target_left.png	1	d	-1	3	240050	260	d	304	240354												2	1	18				neut			150
1 ver1_main_procedureEEG	2	1	25	<?xml version="1.0"?>\n<Clock xmlns:dt="urn:schemas-microsoft-com:datatypes"><Description dt:dt="string">E-Prime Primary Realtime Clock</Description><StartTime><Timestamp dt:dt="int">0</Timestamp><DateUtc dt:dt="string">2015-09-17T14:35:59Z</DateUtc></StartTime><FrequencyChanges><FrequencyChange><Frequency dt:dt="r8">2612294</Frequency><Timestamp dt:dt="r8">8506158163</Timestamp><Current dt:dt="r8">0</Current><DateUtc dt:dt="string">2015-09-17T14:35:59Z</DateUtc></FrequencyChange></FrequencyChanges></Clock>\n	1 ver1_main_procedureEEG-2-1	99.931	1.0.0.896	1	MC	-83246204	prawa	1	2.0.10.182	09-17-2015	2015-09-17 14:35:59	16:35:59	kobieta	2.0.10.92	3	3	1	1																							l	{SPACE}		no	BlockProc1		BlockList									19	Cued	leftComp	d	color_yellow.png		-1	14	242361	320	1105																			2						25	prime_left.png	0	241951	0	0	13	0	241951	0	241951	6	241951	20	0	-1	240842	241951	241945	0		TrialProc1	left	0		0	10	242261	-242261		0	0	TrialList1	target_left.png	1	d	-1	3	242001	260	d	345	242346												1	1	19				comp			300
1 ver1_main_procedureEEG	2	1	25	<?xml version="1.0"?>\n<Clock xmlns:dt="urn:schemas-microsoft-com:datatypes"><Description dt:dt="string">E-Prime Primary Realtime Clock</Description><StartTime><Timestamp dt:dt="int">0</Timestamp><DateUtc dt:dt="string">2015-09-17T14:35:59Z</DateUtc></StartTime><FrequencyChanges><FrequencyChange><Frequency dt:dt="r8">2612294</Frequency><Timestamp dt:dt="r8">8506158163</Timestamp><Current dt:dt="r8">0</Current><DateUtc dt:dt="string">2015-09-17T14:35:59Z</DateUtc></FrequencyChange></FrequencyChanges></Clock>\n	1 ver1_main_procedureEEG-2-1	99.931	1.0.0.896	1	MC	-83246204	prawa	1	2.0.10.182	09-17-2015	2015-09-17 14:35:59	16:35:59	kobieta	2.0.10.92	3	3	1	1																							l	{SPACE}		no	BlockProc1		BlockList									20	Free	rightNeut	dl	color_purple.png		-1	14	245433	170	1943																			3	2					25	prime_right.png	0	244943	0	0	13	0	244943	0	244943	8	244943	20	0	-1	242994	244943	244935	0	prime_right.png	TrialProc1	left	0		0	10	245253	-245253		0	0	TrialList1	target_both.png	0	dl	-1	3	244993	260	l	425	245418												8	1	20				neut			150
1 ver1_main_procedureEEG	2	1	25	<?xml version="1.0"?>\n<Clock xmlns:dt="urn:schemas-microsoft-com:datatypes"><Description dt:dt="string">E-Prime Primary Realtime Clock</Description><StartTime><Timestamp dt:dt="int">0</Timestamp><DateUtc dt:dt="string">2015-09-17T14:35:59Z</DateUtc></StartTime><FrequencyChanges><FrequencyChange><Frequency dt:dt="r8">2612294</Frequency><Timestamp dt:dt="r8">8506158163</Timestamp><Current dt:dt="r8">0</Current><DateUtc dt:dt="string">2015-09-17T14:35:59Z</DateUtc></FrequencyChange></FrequencyChanges></Clock>\n	1 ver1_main_procedureEEG-2-1	99.931	1.0.0.896	1	MC	-83246204	prawa	1	2.0.10.182	09-17-2015	2015-09-17 14:35:59	16:35:59	kobieta	2.0.10.92	3	3	1	1																							l	{SPACE}		no	BlockProc1		BlockList									21	Cued	rightNeut	l	color_purple.png		-1	8	247915	170	1578																			2	1					25	prime_left.png	0	247504	0	0	13	0	247504	0	247504	3	247504	20	0	-1	245925	247504	247501	0	prime_left.png	TrialProc1	right	0		1	10	247814	-247814		0	0	TrialList1	target_right.png	1	l	-1	3	247554	260	l	352	247906												5	1	21				neut			150
1 ver1_main_procedureEEG	2	1	25	<?xml version="1.0"?>\n<Clock xmlns:dt="urn:schemas-microsoft-com:datatypes"><Description dt:dt="string">E-Prime Primary Realtime Clock</Description><StartTime><Timestamp dt:dt="int">0</Timestamp><DateUtc dt:dt="string">2015-09-17T14:35:59Z</DateUtc></StartTime><FrequencyChanges><FrequencyChange><Frequency dt:dt="r8">2612294</Frequency><Timestamp dt:dt="r8">8506158163</Timestamp><Current dt:dt="r8">0</Current><DateUtc dt:dt="string">2015-09-17T14:35:59Z</DateUtc></FrequencyChange></FrequencyChanges></Clock>\n	1 ver1_main_procedureEEG-2-1	99.931	1.0.0.896	1	MC	-83246204	prawa	1	2.0.10.182	09-17-2015	2015-09-17 14:35:59	16:35:59	kobieta	2.0.10.92	3	3	1	1																							l	{SPACE}		no	BlockProc1		BlockList									22	Cued	rightNeut	l	color_purple.png		-1	7	250386	470	1566																			2	2					25	prime_right.png	0	249966	0	0	13	0	249966	0	249966	5	249966	20	0	-1	248397	249966	249961	0	prime_right.png	TrialProc1	right	0		0	10	250276	-250276		0	0	TrialList1	target_right.png	1	l	-1	3	250016	260	l	363	250379												5	1	22				neut			450
1 ver1_main_procedureEEG	2	1	25	<?xml version="1.0"?>\n<Clock xmlns:dt="urn:schemas-microsoft-com:datatypes"><Description dt:dt="string">E-Prime Primary Realtime Clock</Description><StartTime><Timestamp dt:dt="int">0</Timestamp><DateUtc dt:dt="string">2015-09-17T14:35:59Z</DateUtc></StartTime><FrequencyChanges><FrequencyChange><Frequency dt:dt="r8">2612294</Frequency><Timestamp dt:dt="r8">8506158163</Timestamp><Current dt:dt="r8">0</Current><DateUtc dt:dt="string">2015-09-17T14:35:59Z</DateUtc></FrequencyChange></FrequencyChanges></Clock>\n	1 ver1_main_procedureEEG-2-1	99.931	1.0.0.896	1	MC	-83246204	prawa	1	2.0.10.182	09-17-2015	2015-09-17 14:35:59	16:35:59	kobieta	2.0.10.92	3	3	1	1																							l	{SPACE}		no	BlockProc1		BlockList									23	Cued	rightIncomp	l	color_orange.png		-1	14	252777	321	1122																			2						75	prime_left.png	0	252297	0	0	13	0	252297	0	252297	9	252297	20	0	-1	251168	252297	252288	0		TrialProc1	right	0		0	10	252607	-252607		0	0	TrialList1	target_right.png	1	l	-1	3	252347	260	l	415	252762												6	1	23				incomp			300
1 ver1_main_procedureEEG	2	1	25	<?xml version="1.0"?>\n<Clock xmlns:dt="urn:schemas-microsoft-com:datatypes"><Description dt:dt="string">E-Prime Primary Realtime Clock</Description><StartTime><Timestamp dt:dt="int">0</Timestamp><DateUtc dt:dt="string">2015-09-17T14:35:59Z</DateUtc></StartTime><FrequencyChanges><FrequencyChange><Frequency dt:dt="r8">2612294</Frequency><Timestamp dt:dt="r8">8506158163</Timestamp><Current dt:dt="r8">0</Current><DateUtc dt:dt="string">2015-09-17T14:35:59Z</DateUtc></FrequencyChange></FrequencyChanges></Clock>\n	1 ver1_main_procedureEEG-2-1	99.931	1.0.0.896	1	MC	-83246204	prawa	1	2.0.10.182	09-17-2015	2015-09-17 14:35:59	16:35:59	kobieta	2.0.10.92	3	3	1	1																							l	{SPACE}		no	BlockProc1		BlockList									24	Cued	leftComp	d	color_yellow.png		-1	6	255049	170	1307																			2						25	prime_left.png	0	254719	0	0	13	0	254719	0	254719	4	254719	20	0	-1	253410	254719	254715	0		TrialProc1	left	0		0	10	255029	-255029		0	0	TrialList1	target_left.png	1	d	-1	3	254769	260	d	273	255042												1	1	24				comp			150
1 ver1_main_procedureEEG	2	1	25	<?xml version="1.0"?>\n<Clock xmlns:dt="urn:schemas-microsoft-com:datatypes"><Description dt:dt="string">E-Prime Primary Realtime Clock</Description><StartTime><Timestamp dt:dt="int">0</Timestamp><DateUtc dt:dt="string">2015-09-17T14:35:59Z</DateUtc></StartTime><FrequencyChanges><FrequencyChange><Frequency dt:dt="r8">2612294</Frequency><Timestamp dt:dt="r8">8506158163</Timestamp><Current dt:dt="r8">0</Current><DateUtc dt:dt="string">2015-09-17T14:35:59Z</DateUtc></FrequencyChange></FrequencyChanges></Clock>\n	1 ver1_main_procedureEEG-2-1	99.931	1.0.0.896	1	MC	-83246204	prawa	1	2.0.10.182	09-17-2015	2015-09-17 14:35:59	16:35:59	kobieta	2.0.10.92	3	3	1	1																							l	{SPACE}		no	BlockProc1		BlockList									25	Cued	rightComp	l	color_red.png		-1	9	257660	461	1739																			2						75	prime_right.png	0	257270	0	0	13	0	257270	0	257270	2	257270	20	0	-1	255531	257270	257268	0		TrialProc1	right	0		0	10	257580	-257580		0	0	TrialList1	target_right.png	1	l	-1	3	257320	260	l	330	257650												4	1	25				comp			450
1 ver1_main_procedureEEG	2	1	25	<?xml version="1.0"?>\n<Clock xmlns:dt="urn:schemas-microsoft-com:datatypes"><Description dt:dt="string">E-Prime Primary Realtime Clock</Description><StartTime><Timestamp dt:dt="int">0</Timestamp><DateUtc dt:dt="string">2015-09-17T14:35:59Z</DateUtc></StartTime><FrequencyChanges><FrequencyChange><Frequency dt:dt="r8">2612294</Frequency><Timestamp dt:dt="r8">8506158163</Timestamp><Current dt:dt="r8">0</Current><DateUtc dt:dt="string">2015-09-17T14:35:59Z</DateUtc></FrequencyChange></FrequencyChanges></Clock>\n	1 ver1_main_procedureEEG-2-1	99.931	1.0.0.896	1	MC	-83246204	prawa	1	2.0.10.182	09-17-2015	2015-09-17 14:35:59	16:35:59	kobieta	2.0.10.92	3	3	1	1																							l	{SPACE}		no	BlockProc1		BlockList									26	Free	leftComp	dl	color_yellow.png		-1	15	260042	320	1341																			3						25	prime_left.png	0	259772	0	0	13	0	259772	0	259772	0	259772	20	0	-1	258433	259772	259772	0		TrialProc1	right	0		0	0	0	0		0	0	TrialList1	target_both.png	0	dl	-999999	3	259822	0	d	204	260026												12	1	26				incomp			300
1 ver1_main_procedureEEG	2	1	25	<?xml version="1.0"?>\n<Clock xmlns:dt="urn:schemas-microsoft-com:datatypes"><Description dt:dt="string">E-Prime Primary Realtime Clock</Description><StartTime><Timestamp dt:dt="int">0</Timestamp><DateUtc dt:dt="string">2015-09-17T14:35:59Z</DateUtc></StartTime><FrequencyChanges><FrequencyChange><Frequency dt:dt="r8">2612294</Frequency><Timestamp dt:dt="r8">8506158163</Timestamp><Current dt:dt="r8">0</Current><DateUtc dt:dt="string">2015-09-17T14:35:59Z</DateUtc></FrequencyChange></FrequencyChanges></Clock>\n	1 ver1_main_procedureEEG-2-1	99.931	1.0.0.896	1	MC	-83246204	prawa	1	2.0.10.182	09-17-2015	2015-09-17 14:35:59	16:35:59	kobieta	2.0.10.92	3	3	1	1																							l	{SPACE}		no	BlockProc1		BlockList									27	Cued	rightComp	l	color_red.png		-1	14	262153	470	1109																			2						75	prime_right.png	0	261783	0	0	13	0	261783	0	261783	2	261783	20	0	-1	260674	261783	261781	0		TrialProc1	right	0		0	10	262093	-262093		0	0	TrialList1	target_right.png	1	l	-1	3	261833	260	l	305	262138												4	1	27				comp			450
1 ver1_main_procedureEEG	2	1	25	<?xml version="1.0"?>\n<Clock xmlns:dt="urn:schemas-microsoft-com:datatypes"><Description dt:dt="string">E-Prime Primary Realtime Clock</Description><StartTime><Timestamp dt:dt="int">0</Timestamp><DateUtc dt:dt="string">2015-09-17T14:35:59Z</DateUtc></StartTime><FrequencyChanges><FrequencyChange><Frequency dt:dt="r8">2612294</Frequency><Timestamp dt:dt="r8">8506158163</Timestamp><Current dt:dt="r8">0</Current><DateUtc dt:dt="string">2015-09-17T14:35:59Z</DateUtc></FrequencyChange></FrequencyChanges></Clock>\n	1 ver1_main_procedureEEG-2-1	99.931	1.0.0.896	1	MC	-83246204	prawa	1	2.0.10.182	09-17-2015	2015-09-17 14:35:59	16:35:59	kobieta	2.0.10.92	3	3	1	1																							l	{SPACE}		no	BlockProc1		BlockList									28	Cued	rightComp	l	color_red.png		-1	10	264605	170	1318																			2						75	prime_right.png	0	264254	0	0	13	1	264255	1	264255	2	264254	20	0	-1	262935	264254	264252	0		TrialProc1	right	0		0	11	264565	-264565		0	0	TrialList1	target_right.png	1	l	-1	3	264304	261	l	291	264595												4	1	28				comp			150
1 ver1_main_procedureEEG	2	1	25	<?xml version="1.0"?>\n<Clock xmlns:dt="urn:schemas-microsoft-com:datatypes"><Description dt:dt="string">E-Prime Primary Realtime Clock</Description><StartTime><Timestamp dt:dt="int">0</Timestamp><DateUtc dt:dt="string">2015-09-17T14:35:59Z</DateUtc></StartTime><FrequencyChanges><FrequencyChange><Frequency dt:dt="r8">2612294</Frequency><Timestamp dt:dt="r8">8506158163</Timestamp><Current dt:dt="r8">0</Current><DateUtc dt:dt="string">2015-09-17T14:35:59Z</DateUtc></FrequencyChange></FrequencyChanges></Clock>\n	1 ver1_main_procedureEEG-2-1	99.931	1.0.0.896	1	MC	-83246204	prawa	1	2.0.10.182	09-17-2015	2015-09-17 14:35:59	16:35:59	kobieta	2.0.10.92	3	3	1	1																							l	{SPACE}		no	BlockProc1		BlockList									29	Cued	leftNeut	d	color_blue.png		-1	11	266606	320	1120																			2	1					25	prime_left.png	1	266206	0	0	13	1	266206	1	266206	0	266205	20	0	-1	265087	266205	266205	0	prime_left.png	TrialProc1	left	0		0	10	266516	-266516		0	0	TrialList1	target_left.png	1	d	-1	4	266256	260	d	339	266595												2	1	29				neut			300
1 ver1_main_procedureEEG	2	1	25	<?xml version="1.0"?>\n<Clock xmlns:dt="urn:schemas-microsoft-com:datatypes"><Description dt:dt="string">E-Prime Primary Realtime Clock</Description><StartTime><Timestamp dt:dt="int">0</Timestamp><DateUtc dt:dt="string">2015-09-17T14:35:59Z</DateUtc></StartTime><FrequencyChanges><FrequencyChange><Frequency dt:dt="r8">2612294</Frequency><Timestamp dt:dt="r8">8506158163</Timestamp><Current dt:dt="r8">0</Current><DateUtc dt:dt="string">2015-09-17T14:35:59Z</DateUtc></FrequencyChange></FrequencyChanges></Clock>\n	1 ver1_main_procedureEEG-2-1	99.931	1.0.0.896	1	MC	-83246204	prawa	1	2.0.10.182	09-17-2015	2015-09-17 14:35:59	16:35:59	kobieta	2.0.10.92	3	3	1	1																							l	{SPACE}		no	BlockProc1		BlockList									30	Cued	rightIncomp	l	color_orange.png		-1	14	268577	170	1032																			2						75	prime_left.png	0	268277	0	0	13	0	268277	0	268277	9	268277	20	0	-1	267238	268277	268268	0		TrialProc1	right	0		0	0	0	0		0	0	TrialList1	target_right.png	1	l	-999999	3	268327	0	l	236	268563												6	1	30				incomp			150
1 ver1_main_procedureEEG	2	1	25	<?xml version="1.0"?>\n<Clock xmlns:dt="urn:schemas-microsoft-com:datatypes"><Description dt:dt="string">E-Prime Primary Realtime Clock</Description><StartTime><Timestamp dt:dt="int">0</Timestamp><DateUtc dt:dt="string">2015-09-17T14:35:59Z</DateUtc></StartTime><FrequencyChanges><FrequencyChange><Frequency dt:dt="r8">2612294</Frequency><Timestamp dt:dt="r8">8506158163</Timestamp><Current dt:dt="r8">0</Current><DateUtc dt:dt="string">2015-09-17T14:35:59Z</DateUtc></FrequencyChange></FrequencyChanges></Clock>\n	1 ver1_main_procedureEEG-2-1	99.931	1.0.0.896	1	MC	-83246204	prawa	1	2.0.10.182	09-17-2015	2015-09-17 14:35:59	16:35:59	kobieta	2.0.10.92	3	3	1	1																							l	{SPACE}		no	BlockProc1		BlockList									31	Free	leftComp	dl	color_yellow.png		-1	6	271409	470	1897																			3						25	prime_left.png	0	270958	0	0	13	0	270959	0	270958	4	270958	20	0	-1	269061	270958	270954	0		TrialProc1	left	0		0	11	271269	-271269		0	0	TrialList1	target_both.png	0	dl	-1	3	271008	261	d	395	271403												7	1	31				comp			450
1 ver1_main_procedureEEG	2	1	25	<?xml version="1.0"?>\n<Clock xmlns:dt="urn:schemas-microsoft-com:datatypes"><Description dt:dt="string">E-Prime Primary Realtime Clock</Description><StartTime><Timestamp dt:dt="int">0</Timestamp><DateUtc dt:dt="string">2015-09-17T14:35:59Z</DateUtc></StartTime><FrequencyChanges><FrequencyChange><Frequency dt:dt="r8">2612294</Frequency><Timestamp dt:dt="r8">8506158163</Timestamp><Current dt:dt="r8">0</Current><DateUtc dt:dt="string">2015-09-17T14:35:59Z</DateUtc></FrequencyChange></FrequencyChanges></Clock>\n	1 ver1_main_procedureEEG-2-1	99.931	1.0.0.896	1	MC	-83246204	prawa	1	2.0.10.182	09-17-2015	2015-09-17 14:35:59	16:35:59	kobieta	2.0.10.92	3	3	1	1																							l	{SPACE}		no	BlockProc1		BlockList									32	Cued	error	l			-1	7	273770	460	1248																			2						25	prime_left.png	0	273440	0	0	13	0	273440	0	273440	3	273440	20	0	-1	272191	273440	273437	0		TrialProc1	right	0		0	10	273750	-273750		0	0	TrialList1	target_right.png	0	l	-1	3	273490	260	d	273	273763												6	1	32				incomp			450
1 ver1_main_procedureEEG	2	1	25	<?xml version="1.0"?>\n<Clock xmlns:dt="urn:schemas-microsoft-com:datatypes"><Description dt:dt="string">E-Prime Primary Realtime Clock</Description><StartTime><Timestamp dt:dt="int">0</Timestamp><DateUtc dt:dt="string">2015-09-17T14:35:59Z</DateUtc></StartTime><FrequencyChanges><FrequencyChange><Frequency dt:dt="r8">2612294</Frequency><Timestamp dt:dt="r8">8506158163</Timestamp><Current dt:dt="r8">0</Current><DateUtc dt:dt="string">2015-09-17T14:35:59Z</DateUtc></FrequencyChange></FrequencyChanges></Clock>\n	1 ver1_main_procedureEEG-2-1	99.931	1.0.0.896	1	MC	-83246204	prawa	1	2.0.10.182	09-17-2015	2015-09-17 14:35:59	16:35:59	kobieta	2.0.10.92	3	3	1	1																							l	{SPACE}		no	BlockProc1		BlockList									33	Free	rightIncomp	dl	color_orange.png		-1	8	276292	470	1246																			3						25	prime_left.png	0	275791	0	0	13	0	275791	0	275791	5	275791	20	0	-1	274542	275791	275786	0		TrialProc1	left	0		1	10	276101	-276101		0	0	TrialList1	target_both.png	0	dl	-1	3	275841	260	l	442	276283												7	1	33				comp			450
1 ver1_main_procedureEEG	2	1	25	<?xml version="1.0"?>\n<Clock xmlns:dt="urn:schemas-microsoft-com:datatypes"><Description dt:dt="string">E-Prime Primary Realtime Clock</Description><StartTime><Timestamp dt:dt="int">0</Timestamp><DateUtc dt:dt="string">2015-09-17T14:35:59Z</DateUtc></StartTime><FrequencyChanges><FrequencyChange><Frequency dt:dt="r8">2612294</Frequency><Timestamp dt:dt="r8">8506158163</Timestamp><Current dt:dt="r8">0</Current><DateUtc dt:dt="string">2015-09-17T14:35:59Z</DateUtc></FrequencyChange></FrequencyChanges></Clock>\n	1 ver1_main_procedureEEG-2-1	99.931	1.0.0.896	1	MC	-83246204	prawa	1	2.0.10.182	09-17-2015	2015-09-17 14:35:59	16:35:59	kobieta	2.0.10.92	3	3	1	1																							l	{SPACE}		no	BlockProc1		BlockList									34	Cued	rightNeut	l	color_purple.png		-1	9	278973	170	1516																			2	2					75	prime_right.png	0	278593	0	0	13	0	278593	0	278593	5	278593	20	0	-1	277074	278593	278588	0	prime_right.png	TrialProc1	right	0		0	10	278903	-278903		0	0	TrialList1	target_right.png	1	l	-1	3	278643	260	l	320	278963												5	1	34				neut			150
1 ver1_main_procedureEEG	2	1	25	<?xml version="1.0"?>\n<Clock xmlns:dt="urn:schemas-microsoft-com:datatypes"><Description dt:dt="string">E-Prime Primary Realtime Clock</Description><StartTime><Timestamp dt:dt="int">0</Timestamp><DateUtc dt:dt="string">2015-09-17T14:35:59Z</DateUtc></StartTime><FrequencyChanges><FrequencyChange><Frequency dt:dt="r8">2612294</Frequency><Timestamp dt:dt="r8">8506158163</Timestamp><Current dt:dt="r8">0</Current><DateUtc dt:dt="string">2015-09-17T14:35:59Z</DateUtc></FrequencyChange></FrequencyChanges></Clock>\n	1 ver1_main_procedureEEG-2-1	99.931	1.0.0.896	1	MC	-83246204	prawa	1	2.0.10.182	09-17-2015	2015-09-17 14:35:59	16:35:59	kobieta	2.0.10.92	3	3	1	1																							l	{SPACE}		no	BlockProc1		BlockList									35	Cued	leftIncomp	d	color_green.png		-1	7	281395	320	1615																			2						25	prime_right.png	0	281074	0	0	13	1	281075	1	281075	6	281074	20	0	-1	279455	281074	281068	0		TrialProc1	left	0		0	11	281385	-281385		0	0	TrialList1	target_left.png	1	d	-1	3	281124	261	d	263	281387												3	1	35				incomp			300
1 ver1_main_procedureEEG	2	1	25	<?xml version="1.0"?>\n<Clock xmlns:dt="urn:schemas-microsoft-com:datatypes"><Description dt:dt="string">E-Prime Primary Realtime Clock</Description><StartTime><Timestamp dt:dt="int">0</Timestamp><DateUtc dt:dt="string">2015-09-17T14:35:59Z</DateUtc></StartTime><FrequencyChanges><FrequencyChange><Frequency dt:dt="r8">2612294</Frequency><Timestamp dt:dt="r8">8506158163</Timestamp><Current dt:dt="r8">0</Current><DateUtc dt:dt="string">2015-09-17T14:35:59Z</DateUtc></FrequencyChange></FrequencyChanges></Clock>\n	1 ver1_main_procedureEEG-2-1	99.931	1.0.0.896	1	MC	-83246204	prawa	1	2.0.10.182	09-17-2015	2015-09-17 14:35:59	16:35:59	kobieta	2.0.10.92	3	3	1	1																							l	{SPACE}		no	BlockProc1		BlockList									36	Cued	leftNeut	d	color_blue.png		-1	10	284406	321	1954																			2	1					25	prime_left.png	0	283986	0	0	13	0	283986	0	283986	7	283986	20	0	-1	282027	283986	283979	0	prime_left.png	TrialProc1	left	0		1	10	284296	-284296		0	0	TrialList1	target_left.png	1	d	-1	3	284036	260	d	359	284395												2	1	36				neut			300
1 ver1_main_procedureEEG	2	1	25	<?xml version="1.0"?>\n<Clock xmlns:dt="urn:schemas-microsoft-com:datatypes"><Description dt:dt="string">E-Prime Primary Realtime Clock</Description><StartTime><Timestamp dt:dt="int">0</Timestamp><DateUtc dt:dt="string">2015-09-17T14:35:59Z</DateUtc></StartTime><FrequencyChanges><FrequencyChange><Frequency dt:dt="r8">2612294</Frequency><Timestamp dt:dt="r8">8506158163</Timestamp><Current dt:dt="r8">0</Current><DateUtc dt:dt="string">2015-09-17T14:35:59Z</DateUtc></FrequencyChange></FrequencyChanges></Clock>\n	1 ver1_main_procedureEEG-2-1	99.931	1.0.0.896	1	MC	-83246204	prawa	1	2.0.10.182	09-17-2015	2015-09-17 14:35:59	16:35:59	kobieta	2.0.10.92	3	3	1	1																							l	{SPACE}		no	BlockProc1		BlockList									37	Cued	rightComp	l	color_red.png		-1	12	286848	470	1347																			2						25	prime_right.png	0	286388	0	0	13	0	286388	0	286388	4	286388	20	0	-1	285039	286388	286384	0		TrialProc1	right	0		0	10	286698	-286698		0	0	TrialList1	target_right.png	1	l	-1	3	286438	260	l	397	286835												4	1	37				comp			450
1 ver1_main_procedureEEG	2	1	25	<?xml version="1.0"?>\n<Clock xmlns:dt="urn:schemas-microsoft-com:datatypes"><Description dt:dt="string">E-Prime Primary Realtime Clock</Description><StartTime><Timestamp dt:dt="int">0</Timestamp><DateUtc dt:dt="string">2015-09-17T14:35:59Z</DateUtc></StartTime><FrequencyChanges><FrequencyChange><Frequency dt:dt="r8">2612294</Frequency><Timestamp dt:dt="r8">8506158163</Timestamp><Current dt:dt="r8">0</Current><DateUtc dt:dt="string">2015-09-17T14:35:59Z</DateUtc></FrequencyChange></FrequencyChanges></Clock>\n	1 ver1_main_procedureEEG-2-1	99.931	1.0.0.896	1	MC	-83246204	prawa	1	2.0.10.182	09-17-2015	2015-09-17 14:35:59	16:35:59	kobieta	2.0.10.92	3	3	1	1																							l	{SPACE}		no	BlockProc1		BlockList									38	Cued	rightNeut	l	color_purple.png		-1	14	289730	320	1731																			2	2					25	prime_right.png	0	289369	0	0	13	1	289370	1	289370	0	289369	20	0	-1	287640	289369	289369	0	prime_right.png	TrialProc1	right	0		0	11	289680	-289680		0	0	TrialList1	target_right.png	1	l	-1	3	289419	261	l	296	289715												5	1	38				neut			300
1 ver1_main_procedureEEG	2	1	25	<?xml version="1.0"?>\n<Clock xmlns:dt="urn:schemas-microsoft-com:datatypes"><Description dt:dt="string">E-Prime Primary Realtime Clock</Description><StartTime><Timestamp dt:dt="int">0</Timestamp><DateUtc dt:dt="string">2015-09-17T14:35:59Z</DateUtc></StartTime><FrequencyChanges><FrequencyChange><Frequency dt:dt="r8">2612294</Frequency><Timestamp dt:dt="r8">8506158163</Timestamp><Current dt:dt="r8">0</Current><DateUtc dt:dt="string">2015-09-17T14:35:59Z</DateUtc></FrequencyChange></FrequencyChanges></Clock>\n	1 ver1_main_procedureEEG-2-1	99.931	1.0.0.896	1	MC	-83246204	prawa	1	2.0.10.182	09-17-2015	2015-09-17 14:35:59	16:35:59	kobieta	2.0.10.92	3	3	1	1																							l	{SPACE}		no	BlockProc1		BlockList									39	Cued	rightComp	l	color_red.png		-1	11	291951	320	1226																			2						25	prime_right.png	0	291601	0	0	13	0	291601	0	291601	5	291601	20	0	-1	290372	291601	291596	0		TrialProc1	right	0		0	10	291911	-291911		0	0	TrialList1	target_right.png	1	l	-1	3	291651	260	l	288	291939												4	1	39				comp			300
1 ver1_main_procedureEEG	2	1	25	<?xml version="1.0"?>\n<Clock xmlns:dt="urn:schemas-microsoft-com:datatypes"><Description dt:dt="string">E-Prime Primary Realtime Clock</Description><StartTime><Timestamp dt:dt="int">0</Timestamp><DateUtc dt:dt="string">2015-09-17T14:35:59Z</DateUtc></StartTime><FrequencyChanges><FrequencyChange><Frequency dt:dt="r8">2612294</Frequency><Timestamp dt:dt="r8">8506158163</Timestamp><Current dt:dt="r8">0</Current><DateUtc dt:dt="string">2015-09-17T14:35:59Z</DateUtc></FrequencyChange></FrequencyChanges></Clock>\n	1 ver1_main_procedureEEG-2-1	99.931	1.0.0.896	1	MC	-83246204	prawa	1	2.0.10.182	09-17-2015	2015-09-17 14:35:59	16:35:59	kobieta	2.0.10.92	3	3	1	1																							l	{SPACE}		no	BlockProc1		BlockList									40	Cued	rightIncomp	l	color_orange.png		-1	6	294322	461	1317																			2						25	prime_left.png	0	293902	0	0	13	0	293902	0	293902	4	293902	20	0	-1	292583	293902	293898	0		TrialProc1	right	0		0	10	294212	-294212		0	0	TrialList1	target_right.png	1	l	-1	3	293952	260	l	363	294315												6	1	40				incomp			450
1 ver1_main_procedureEEG	2	1	25	<?xml version="1.0"?>\n<Clock xmlns:dt="urn:schemas-microsoft-com:datatypes"><Description dt:dt="string">E-Prime Primary Realtime Clock</Description><StartTime><Timestamp dt:dt="int">0</Timestamp><DateUtc dt:dt="string">2015-09-17T14:35:59Z</DateUtc></StartTime><FrequencyChanges><FrequencyChange><Frequency dt:dt="r8">2612294</Frequency><Timestamp dt:dt="r8">8506158163</Timestamp><Current dt:dt="r8">0</Current><DateUtc dt:dt="string">2015-09-17T14:35:59Z</DateUtc></FrequencyChange></FrequencyChanges></Clock>\n	1 ver1_main_procedureEEG-2-1	99.931	1.0.0.896	1	MC	-83246204	prawa	1	2.0.10.182	09-17-2015	2015-09-17 14:35:59	16:35:59	kobieta	2.0.10.92	3	3	1	1																							l	{SPACE}		no	BlockProc1		BlockList									41	Cued	rightIncomp	l	color_orange.png		-1	10	296814	320	1348																			2						25	prime_left.png	0	296444	0	0	13	0	296444	0	296444	3	296444	20	0	-1	295095	296444	296441	0		TrialProc1	right	0		0	10	296754	-296754		0	0	TrialList1	target_right.png	1	l	-1	3	296494	260	l	309	296803												6	1	41				incomp			300
1 ver1_main_procedureEEG	2	1	25	<?xml version="1.0"?>\n<Clock xmlns:dt="urn:schemas-microsoft-com:datatypes"><Description dt:dt="string">E-Prime Primary Realtime Clock</Description><StartTime><Timestamp dt:dt="int">0</Timestamp><DateUtc dt:dt="string">2015-09-17T14:35:59Z</DateUtc></StartTime><FrequencyChanges><FrequencyChange><Frequency dt:dt="r8">2612294</Frequency><Timestamp dt:dt="r8">8506158163</Timestamp><Current dt:dt="r8">0</Current><DateUtc dt:dt="string">2015-09-17T14:35:59Z</DateUtc></FrequencyChange></FrequencyChanges></Clock>\n	1 ver1_main_procedureEEG-2-1	99.931	1.0.0.896	1	MC	-83246204	prawa	1	2.0.10.182	09-17-2015	2015-09-17 14:35:59	16:35:59	kobieta	2.0.10.92	3	3	1	1																							l	{SPACE}		no	BlockProc1		BlockList									42	Cued	leftNeut	d	color_blue.png		-1	7	298915	470	1111																			2	1					25	prime_left.png	0	298555	0	0	13	0	298555	0	298555	0	298555	20	0	-1	297448	298555	298555	0	prime_left.png	TrialProc1	left	0		0	10	298865	-298865		0	0	TrialList1	target_left.png	1	d	-1	3	298605	260	d	302	298907												2	1	42				neut			450
1 ver1_main_procedureEEG	2	1	25	<?xml version="1.0"?>\n<Clock xmlns:dt="urn:schemas-microsoft-com:datatypes"><Description dt:dt="string">E-Prime Primary Realtime Clock</Description><StartTime><Timestamp dt:dt="int">0</Timestamp><DateUtc dt:dt="string">2015-09-17T14:35:59Z</DateUtc></StartTime><FrequencyChanges><FrequencyChange><Frequency dt:dt="r8">2612294</Frequency><Timestamp dt:dt="r8">8506158163</Timestamp><Current dt:dt="r8">0</Current><DateUtc dt:dt="string">2015-09-17T14:35:59Z</DateUtc></FrequencyChange></FrequencyChanges></Clock>\n	1 ver1_main_procedureEEG-2-1	99.931	1.0.0.896	1	MC	-83246204	prawa	1	2.0.10.182	09-17-2015	2015-09-17 14:35:59	16:35:59	kobieta	2.0.10.92	3	3	1	1																							l	{SPACE}		no	BlockProc1		BlockList									43	Free	rightIncomp	dl	color_orange.png		-1	13	301497	470	1416																			3						25	prime_left.png	1	301117	0	0	13	1	301117	1	301117	4	301116	20	0	-1	299698	301116	301112	0		TrialProc1	right	0		0	11	301427	-301427		0	0	TrialList1	target_both.png	0	dl	-1	3	301166	261	l	318	301484												12	1	43				incomp			450
1 ver1_main_procedureEEG	2	1	25	<?xml version="1.0"?>\n<Clock xmlns:dt="urn:schemas-microsoft-com:datatypes"><Description dt:dt="string">E-Prime Primary Realtime Clock</Description><StartTime><Timestamp dt:dt="int">0</Timestamp><DateUtc dt:dt="string">2015-09-17T14:35:59Z</DateUtc></StartTime><FrequencyChanges><FrequencyChange><Frequency dt:dt="r8">2612294</Frequency><Timestamp dt:dt="r8">8506158163</Timestamp><Current dt:dt="r8">0</Current><DateUtc dt:dt="string">2015-09-17T14:35:59Z</DateUtc></FrequencyChange></FrequencyChanges></Clock>\n	1 ver1_main_procedureEEG-2-1	99.931	1.0.0.896	1	MC	-83246204	prawa	1	2.0.10.182	09-17-2015	2015-09-17 14:35:59	16:35:59	kobieta	2.0.10.92	3	3	1	1																							l	{SPACE}		no	BlockProc1		BlockList									44	Cued	leftNeut	d	color_blue.png		-1	10	303878	470	1184																			2	2					75	prime_right.png	0	303468	0	0	13	0	303468	0	303468	7	303468	20	0	-1	302279	303468	303461	0	prime_right.png	TrialProc1	left	0		0	10	303778	-303778		0	0	TrialList1	target_left.png	1	d	-1	3	303518	260	d	350	303868												2	1	44				neut			450
1 ver1_main_procedureEEG	2	1	25	<?xml version="1.0"?>\n<Clock xmlns:dt="urn:schemas-microsoft-com:datatypes"><Description dt:dt="string">E-Prime Primary Realtime Clock</Description><StartTime><Timestamp dt:dt="int">0</Timestamp><DateUtc dt:dt="string">2015-09-17T14:35:59Z</DateUtc></StartTime><FrequencyChanges><FrequencyChange><Frequency dt:dt="r8">2612294</Frequency><Timestamp dt:dt="r8">8506158163</Timestamp><Current dt:dt="r8">0</Current><DateUtc dt:dt="string">2015-09-17T14:35:59Z</DateUtc></FrequencyChange></FrequencyChanges></Clock>\n	1 ver1_main_procedureEEG-2-1	99.931	1.0.0.896	1	MC	-83246204	prawa	1	2.0.10.182	09-17-2015	2015-09-17 14:35:59	16:35:59	kobieta	2.0.10.92	3	3	1	1																							l	{SPACE}		no	BlockProc1		BlockList									45	Cued	leftComp	d	color_yellow.png		-1	8	306580	320	1585																			2						25	prime_left.png	1	306250	0	0	13	1	306250	1	306250	5	306249	21	0	-1	304663	306249	306244	0		TrialProc1	left	0		0	10	306560	-306560		0	0	TrialList1	target_left.png	1	d	-1	3	306300	260	d	272	306572												1	1	45				comp			300
1 ver1_main_procedureEEG	2	1	25	<?xml version="1.0"?>\n<Clock xmlns:dt="urn:schemas-microsoft-com:datatypes"><Description dt:dt="string">E-Prime Primary Realtime Clock</Description><StartTime><Timestamp dt:dt="int">0</Timestamp><DateUtc dt:dt="string">2015-09-17T14:35:59Z</DateUtc></StartTime><FrequencyChanges><FrequencyChange><Frequency dt:dt="r8">2612294</Frequency><Timestamp dt:dt="r8">8506158163</Timestamp><Current dt:dt="r8">0</Current><DateUtc dt:dt="string">2015-09-17T14:35:59Z</DateUtc></FrequencyChange></FrequencyChanges></Clock>\n	1 ver1_main_procedureEEG-2-1	99.931	1.0.0.896	1	MC	-83246204	prawa	1	2.0.10.182	09-17-2015	2015-09-17 14:35:59	16:35:59	kobieta	2.0.10.92	3	3	1	1																							l	{SPACE}		no	BlockProc1		BlockList									46	Free	rightComp	dl	color_red.png		-1	11	309111	160	1413																			3						25	prime_right.png	0	308631	0	0	13	0	308631	0	308631	8	308631	20	0	-1	307212	308631	308623	0		TrialProc1	left	0		0	10	308941	-308941		0	0	TrialList1	target_both.png	0	dl	-1	3	308681	260	l	419	309100												9	1	46				incomp			150
1 ver1_main_procedureEEG	2	1	25	<?xml version="1.0"?>\n<Clock xmlns:dt="urn:schemas-microsoft-com:datatypes"><Description dt:dt="string">E-Prime Primary Realtime Clock</Description><StartTime><Timestamp dt:dt="int">0</Timestamp><DateUtc dt:dt="string">2015-09-17T14:35:59Z</DateUtc></StartTime><FrequencyChanges><FrequencyChange><Frequency dt:dt="r8">2612294</Frequency><Timestamp dt:dt="r8">8506158163</Timestamp><Current dt:dt="r8">0</Current><DateUtc dt:dt="string">2015-09-17T14:35:59Z</DateUtc></FrequencyChange></FrequencyChanges></Clock>\n	1 ver1_main_procedureEEG-2-1	99.931	1.0.0.896	1	MC	-83246204	prawa	1	2.0.10.182	09-17-2015	2015-09-17 14:35:59	16:35:59	kobieta	2.0.10.92	3	3	1	1																							l	{SPACE}		no	BlockProc1		BlockList									47	Cued	leftNeut	d	color_blue.png		-1	11	311583	470	1565																			2	1					75	prime_left.png	0	311152	0	0	13	1	311153	1	311153	6	311152	20	0	-1	309583	311152	311146	0	prime_left.png	TrialProc1	left	0		0	11	311463	-311463		0	0	TrialList1	target_left.png	1	d	-1	3	311202	261	d	370	311572												2	1	47				neut			450
1 ver1_main_procedureEEG	2	1	25	<?xml version="1.0"?>\n<Clock xmlns:dt="urn:schemas-microsoft-com:datatypes"><Description dt:dt="string">E-Prime Primary Realtime Clock</Description><StartTime><Timestamp dt:dt="int">0</Timestamp><DateUtc dt:dt="string">2015-09-17T14:35:59Z</DateUtc></StartTime><FrequencyChanges><FrequencyChange><Frequency dt:dt="r8">2612294</Frequency><Timestamp dt:dt="r8">8506158163</Timestamp><Current dt:dt="r8">0</Current><DateUtc dt:dt="string">2015-09-17T14:35:59Z</DateUtc></FrequencyChange></FrequencyChanges></Clock>\n	1 ver1_main_procedureEEG-2-1	99.931	1.0.0.896	1	MC	-83246204	prawa	1	2.0.10.182	09-17-2015	2015-09-17 14:35:59	16:35:59	kobieta	2.0.10.92	3	3	1	1																							l	{SPACE}		no	BlockProc1		BlockList									48	Free	rightComp	dl	color_red.png		-1	14	314474	161	1727																			3						75	prime_right.png	0	314094	0	0	13	0	314094	0	314094	4	314094	20	0	-1	312365	314094	314090	0		TrialProc1	right	0		1	10	314404	-314404		0	0	TrialList1	target_both.png	0	dl	-1	3	314144	260	l	316	314460												10	1	48				comp			150
1 ver1_main_procedureEEG	2	1	25	<?xml version="1.0"?>\n<Clock xmlns:dt="urn:schemas-microsoft-com:datatypes"><Description dt:dt="string">E-Prime Primary Realtime Clock</Description><StartTime><Timestamp dt:dt="int">0</Timestamp><DateUtc dt:dt="string">2015-09-17T14:35:59Z</DateUtc></StartTime><FrequencyChanges><FrequencyChange><Frequency dt:dt="r8">2612294</Frequency><Timestamp dt:dt="r8">8506158163</Timestamp><Current dt:dt="r8">0</Current><DateUtc dt:dt="string">2015-09-17T14:35:59Z</DateUtc></FrequencyChange></FrequencyChanges></Clock>\n	1 ver1_main_procedureEEG-2-1	99.931	1.0.0.896	1	MC	-83246204	prawa	1	2.0.10.182	09-17-2015	2015-09-17 14:35:59	16:35:59	kobieta	2.0.10.92	3	3	1	1																							l	{SPACE}		no	BlockProc1		BlockList									49	Cued	rightIncomp	l	color_orange.png		-1	10	317246	470	1955																			2						75	prime_left.png	0	316906	0	0	13	0	316906	0	316906	6	316906	20	0	-1	314947	316906	316900	0		TrialProc1	right	0		0	10	317216	-317216		0	0	TrialList1	target_right.png	1	l	-1	3	316956	260	l	280	317236												6	1	49				incomp			450
1 ver1_main_procedureEEG	2	1	25	<?xml version="1.0"?>\n<Clock xmlns:dt="urn:schemas-microsoft-com:datatypes"><Description dt:dt="string">E-Prime Primary Realtime Clock</Description><StartTime><Timestamp dt:dt="int">0</Timestamp><DateUtc dt:dt="string">2015-09-17T14:35:59Z</DateUtc></StartTime><FrequencyChanges><FrequencyChange><Frequency dt:dt="r8">2612294</Frequency><Timestamp dt:dt="r8">8506158163</Timestamp><Current dt:dt="r8">0</Current><DateUtc dt:dt="string">2015-09-17T14:35:59Z</DateUtc></FrequencyChange></FrequencyChanges></Clock>\n	1 ver1_main_procedureEEG-2-1	99.931	1.0.0.896	1	MC	-83246204	prawa	1	2.0.10.182	09-17-2015	2015-09-17 14:35:59	16:35:59	kobieta	2.0.10.92	3	3	1	1																							l	{SPACE}		no	BlockProc1		BlockList									50	Cued	rightIncomp	l	color_orange.png		-1	11	320128	470	1697																			2						75	prime_left.png	0	319728	0	0	13	0	319728	0	319728	4	319728	20	0	-1	318028	319728	319724	0		TrialProc1	right	0		0	10	320038	-320038		0	0	TrialList1	target_right.png	1	l	-1	3	319778	260	l	338	320116												6	1	50				incomp			450
1 ver1_main_procedureEEG	2	1	25	<?xml version="1.0"?>\n<Clock xmlns:dt="urn:schemas-microsoft-com:datatypes"><Description dt:dt="string">E-Prime Primary Realtime Clock</Description><StartTime><Timestamp dt:dt="int">0</Timestamp><DateUtc dt:dt="string">2015-09-17T14:35:59Z</DateUtc></StartTime><FrequencyChanges><FrequencyChange><Frequency dt:dt="r8">2612294</Frequency><Timestamp dt:dt="r8">8506158163</Timestamp><Current dt:dt="r8">0</Current><DateUtc dt:dt="string">2015-09-17T14:35:59Z</DateUtc></FrequencyChange></FrequencyChanges></Clock>\n	1 ver1_main_procedureEEG-2-1	99.931	1.0.0.896	1	MC	-83246204	prawa	1	2.0.10.182	09-17-2015	2015-09-17 14:35:59	16:35:59	kobieta	2.0.10.92	3	3	1	1																							l	{SPACE}		no	BlockProc1		BlockList									51	Cued	leftIncomp	d	color_green.png		-1	11	323080	170	1858																			2						25	prime_right.png	0	322769	0	0	13	1	322770	1	322770	3	322769	20	0	-1	320910	322769	322766	0		TrialProc1	left	0		-999999	0	0	0		0	0	TrialList1	target_left.png	1	d	-1	3	322819	0	d	249	323068												3	1	51				incomp			150
1 ver1_main_procedureEEG	2	1	25	<?xml version="1.0"?>\n<Clock xmlns:dt="urn:schemas-microsoft-com:datatypes"><Description dt:dt="string">E-Prime Primary Realtime Clock</Description><StartTime><Timestamp dt:dt="int">0</Timestamp><DateUtc dt:dt="string">2015-09-17T14:35:59Z</DateUtc></StartTime><FrequencyChanges><FrequencyChange><Frequency dt:dt="r8">2612294</Frequency><Timestamp dt:dt="r8">8506158163</Timestamp><Current dt:dt="r8">0</Current><DateUtc dt:dt="string">2015-09-17T14:35:59Z</DateUtc></FrequencyChange></FrequencyChanges></Clock>\n	1 ver1_main_procedureEEG-2-1	99.931	1.0.0.896	1	MC	-83246204	prawa	1	2.0.10.182	09-17-2015	2015-09-17 14:35:59	16:35:59	kobieta	2.0.10.92	3	3	1	1																							l	{SPACE}		no	BlockProc1		BlockList									52	Cued	rightComp	l	color_red.png		-1	10	325871	461	1978																			2						75	prime_right.png	0	325541	0	0	13	0	325541	0	325541	3	325541	20	0	-1	323562	325541	325538	0		TrialProc1	right	0		1	10	325851	-325851		0	0	TrialList1	target_right.png	1	l	-1	3	325591	260	l	269	325860												4	1	52				comp			450
1 ver1_main_procedureEEG	2	1	25	<?xml version="1.0"?>\n<Clock xmlns:dt="urn:schemas-microsoft-com:datatypes"><Description dt:dt="string">E-Prime Primary Realtime Clock</Description><StartTime><Timestamp dt:dt="int">0</Timestamp><DateUtc dt:dt="string">2015-09-17T14:35:59Z</DateUtc></StartTime><FrequencyChanges><FrequencyChange><Frequency dt:dt="r8">2612294</Frequency><Timestamp dt:dt="r8">8506158163</Timestamp><Current dt:dt="r8">0</Current><DateUtc dt:dt="string">2015-09-17T14:35:59Z</DateUtc></FrequencyChange></FrequencyChanges></Clock>\n	1 ver1_main_procedureEEG-2-1	99.931	1.0.0.896	1	MC	-83246204	prawa	1	2.0.10.182	09-17-2015	2015-09-17 14:35:59	16:35:59	kobieta	2.0.10.92	3	3	1	1																							l	{SPACE}		no	BlockProc1		BlockList									53	Free	rightNeut	dl	color_purple.png		-1	6	328763	320	1766																			3	2					75	prime_right.png	0	328413	0	0	13	0	328413	0	328413	5	328413	20	0	-1	326644	328413	328408	0	prime_right.png	TrialProc1	right	0		0	10	328723	-328723		0	0	TrialList1	target_both.png	0	dl	-1	3	328463	260	l	293	328756												11	1	53				neut			300
1 ver1_main_procedureEEG	2	1	25	<?xml version="1.0"?>\n<Clock xmlns:dt="urn:schemas-microsoft-com:datatypes"><Description dt:dt="string">E-Prime Primary Realtime Clock</Description><StartTime><Timestamp dt:dt="int">0</Timestamp><DateUtc dt:dt="string">2015-09-17T14:35:59Z</DateUtc></StartTime><FrequencyChanges><FrequencyChange><Frequency dt:dt="r8">2612294</Frequency><Timestamp dt:dt="r8">8506158163</Timestamp><Current dt:dt="r8">0</Current><DateUtc dt:dt="string">2015-09-17T14:35:59Z</DateUtc></FrequencyChange></FrequencyChanges></Clock>\n	1 ver1_main_procedureEEG-2-1	99.931	1.0.0.896	1	MC	-83246204	prawa	1	2.0.10.182	09-17-2015	2015-09-17 14:35:59	16:35:59	kobieta	2.0.10.92	3	3	1	1																							l	{SPACE}		no	BlockProc1		BlockList									54	Cued	rightComp	l	color_red.png		-1	10	331575	170	1857																			2						75	prime_right.png	1	331255	0	0	13	1	331255	1	331255	4	331254	20	0	-1	329395	331254	331250	0		TrialProc1	right	0		-999999	10	331565	0		0	0	TrialList1	target_right.png	1	l	-1	4	331305	0	l	251	331556												4	1	54				comp			150
1 ver1_main_procedureEEG	2	1	25	<?xml version="1.0"?>\n<Clock xmlns:dt="urn:schemas-microsoft-com:datatypes"><Description dt:dt="string">E-Prime Primary Realtime Clock</Description><StartTime><Timestamp dt:dt="int">0</Timestamp><DateUtc dt:dt="string">2015-09-17T14:35:59Z</DateUtc></StartTime><FrequencyChanges><FrequencyChange><Frequency dt:dt="r8">2612294</Frequency><Timestamp dt:dt="r8">8506158163</Timestamp><Current dt:dt="r8">0</Current><DateUtc dt:dt="string">2015-09-17T14:35:59Z</DateUtc></FrequencyChange></FrequencyChanges></Clock>\n	1 ver1_main_procedureEEG-2-1	99.931	1.0.0.896	1	MC	-83246204	prawa	1	2.0.10.182	09-17-2015	2015-09-17 14:35:59	16:35:59	kobieta	2.0.10.92	3	3	1	1																							l	{SPACE}		no	BlockProc1		BlockList									55	Free	leftIncomp	dl	color_green.png		-1	9	333606	470	1064																			3						25	prime_right.png	0	333126	0	0	13	0	333126	0	333126	7	333126	20	0	-1	332057	333126	333119	0		TrialProc1	left	0		0	10	333436	-333436		0	0	TrialList1	target_both.png	0	dl	-1	3	333176	260	d	420	333596												9	1	55				incomp			450
1 ver1_main_procedureEEG	2	1	25	<?xml version="1.0"?>\n<Clock xmlns:dt="urn:schemas-microsoft-com:datatypes"><Description dt:dt="string">E-Prime Primary Realtime Clock</Description><StartTime><Timestamp dt:dt="int">0</Timestamp><DateUtc dt:dt="string">2015-09-17T14:35:59Z</DateUtc></StartTime><FrequencyChanges><FrequencyChange><Frequency dt:dt="r8">2612294</Frequency><Timestamp dt:dt="r8">8506158163</Timestamp><Current dt:dt="r8">0</Current><DateUtc dt:dt="string">2015-09-17T14:35:59Z</DateUtc></FrequencyChange></FrequencyChanges></Clock>\n	1 ver1_main_procedureEEG-2-1	99.931	1.0.0.896	1	MC	-83246204	prawa	1	2.0.10.182	09-17-2015	2015-09-17 14:35:59	16:35:59	kobieta	2.0.10.92	3	3	1	1																							l	{SPACE}		no	BlockProc1		BlockList									56	Cued	leftComp	d	color_yellow.png		-1	8	335957	170	1197																			2						75	prime_left.png	0	335587	0	0	13	0	335587	0	335587	4	335587	20	0	-1	334388	335587	335583	0		TrialProc1	left	0		0	10	335897	-335897		0	0	TrialList1	target_left.png	1	d	-1	3	335637	260	d	311	335948												1	1	56				comp			150
1 ver1_main_procedureEEG	2	1	25	<?xml version="1.0"?>\n<Clock xmlns:dt="urn:schemas-microsoft-com:datatypes"><Description dt:dt="string">E-Prime Primary Realtime Clock</Description><StartTime><Timestamp dt:dt="int">0</Timestamp><DateUtc dt:dt="string">2015-09-17T14:35:59Z</DateUtc></StartTime><FrequencyChanges><FrequencyChange><Frequency dt:dt="r8">2612294</Frequency><Timestamp dt:dt="r8">8506158163</Timestamp><Current dt:dt="r8">0</Current><DateUtc dt:dt="string">2015-09-17T14:35:59Z</DateUtc></FrequencyChange></FrequencyChanges></Clock>\n	1 ver1_main_procedureEEG-2-1	99.931	1.0.0.896	1	MC	-83246204	prawa	1	2.0.10.182	09-17-2015	2015-09-17 14:35:59	16:35:59	kobieta	2.0.10.92	3	3	1	1																							l	{SPACE}		no	BlockProc1		BlockList									57	Free	rightNeut	dl	color_purple.png		-1	10	337999	320	1147																			3	1					25	prime_left.png	0	337588	0	0	13	0	337588	0	337588	3	337588	20	0	-1	336441	337588	337585	0	prime_left.png	TrialProc1	left	0		1	10	337898	-337898		0	0	TrialList1	target_both.png	0	dl	-1	3	337638	260	l	350	337988												8	1	57				neut			300
1 ver1_main_procedureEEG	2	1	25	<?xml version="1.0"?>\n<Clock xmlns:dt="urn:schemas-microsoft-com:datatypes"><Description dt:dt="string">E-Prime Primary Realtime Clock</Description><StartTime><Timestamp dt:dt="int">0</Timestamp><DateUtc dt:dt="string">2015-09-17T14:35:59Z</DateUtc></StartTime><FrequencyChanges><FrequencyChange><Frequency dt:dt="r8">2612294</Frequency><Timestamp dt:dt="r8">8506158163</Timestamp><Current dt:dt="r8">0</Current><DateUtc dt:dt="string">2015-09-17T14:35:59Z</DateUtc></FrequencyChange></FrequencyChanges></Clock>\n	1 ver1_main_procedureEEG-2-1	99.931	1.0.0.896	1	MC	-83246204	prawa	1	2.0.10.182	09-17-2015	2015-09-17 14:35:59	16:35:59	kobieta	2.0.10.92	3	3	1	1																							l	{SPACE}		no	BlockProc1		BlockList									58	Cued	error	l			-1	9	340550	310	1593																			2						75	prime_left.png	0	340230	0	0	13	0	340230	0	340230	8	340230	20	0	-1	338631	340230	340222	0		TrialProc1	right	0		0	10	340540	-340540		0	0	TrialList1	target_right.png	0	l	-1	3	340280	260	d	260	340540												6	1	58				incomp			300
1 ver1_main_procedureEEG	2	1	25	<?xml version="1.0"?>\n<Clock xmlns:dt="urn:schemas-microsoft-com:datatypes"><Description dt:dt="string">E-Prime Primary Realtime Clock</Description><StartTime><Timestamp dt:dt="int">0</Timestamp><DateUtc dt:dt="string">2015-09-17T14:35:59Z</DateUtc></StartTime><FrequencyChanges><FrequencyChange><Frequency dt:dt="r8">2612294</Frequency><Timestamp dt:dt="r8">8506158163</Timestamp><Current dt:dt="r8">0</Current><DateUtc dt:dt="string">2015-09-17T14:35:59Z</DateUtc></FrequencyChange></FrequencyChanges></Clock>\n	1 ver1_main_procedureEEG-2-1	99.931	1.0.0.896	1	MC	-83246204	prawa	1	2.0.10.182	09-17-2015	2015-09-17 14:35:59	16:35:59	kobieta	2.0.10.92	3	3	1	1																							l	{SPACE}		no	BlockProc1		BlockList									59	Cued	leftIncomp	d	color_green.png		-1	7	343092	470	1509																			2						25	prime_right.png	0	342681	0	0	13	1	342682	1	342682	2	342681	20	0	-1	341172	342681	342679	0		TrialProc1	left	0		1	10	342991	-342991		0	0	TrialList1	target_left.png	1	d	-1	3	342731	260	d	353	343084												3	1	59				incomp			450
1 ver1_main_procedureEEG	2	1	25	<?xml version="1.0"?>\n<Clock xmlns:dt="urn:schemas-microsoft-com:datatypes"><Description dt:dt="string">E-Prime Primary Realtime Clock</Description><StartTime><Timestamp dt:dt="int">0</Timestamp><DateUtc dt:dt="string">2015-09-17T14:35:59Z</DateUtc></StartTime><FrequencyChanges><FrequencyChange><Frequency dt:dt="r8">2612294</Frequency><Timestamp dt:dt="r8">8506158163</Timestamp><Current dt:dt="r8">0</Current><DateUtc dt:dt="string">2015-09-17T14:35:59Z</DateUtc></FrequencyChange></FrequencyChanges></Clock>\n	1 ver1_main_procedureEEG-2-1	99.931	1.0.0.896	1	MC	-83246204	prawa	1	2.0.10.182	09-17-2015	2015-09-17 14:35:59	16:35:59	kobieta	2.0.10.92	3	3	1	1																							l	{SPACE}		no	BlockProc1		BlockList									60	Cued	error	l			-1	14	346003	310	1763																			2	2					25	prime_right.png	0	345643	0	0	13	0	345643	0	345643	8	345643	20	0	-1	343874	345643	345635	0	prime_right.png	TrialProc1	right	0		1	10	345953	-345953		0	0	TrialList1	target_right.png	0	l	-1	3	345693	260	d	296	345989												5	1	60				neut			300
1 ver1_main_procedureEEG	2	1	25	<?xml version="1.0"?>\n<Clock xmlns:dt="urn:schemas-microsoft-com:datatypes"><Description dt:dt="string">E-Prime Primary Realtime Clock</Description><StartTime><Timestamp dt:dt="int">0</Timestamp><DateUtc dt:dt="string">2015-09-17T14:35:59Z</DateUtc></StartTime><FrequencyChanges><FrequencyChange><Frequency dt:dt="r8">2612294</Frequency><Timestamp dt:dt="r8">8506158163</Timestamp><Current dt:dt="r8">0</Current><DateUtc dt:dt="string">2015-09-17T14:35:59Z</DateUtc></FrequencyChange></FrequencyChanges></Clock>\n	1 ver1_main_procedureEEG-2-1	99.931	1.0.0.896	1	MC	-83246204	prawa	1	2.0.10.182	09-17-2015	2015-09-17 14:35:59	16:35:59	kobieta	2.0.10.92	3	3	1	1																							l	{SPACE}		no	BlockProc1		BlockList									61	Cued	rightNeut	l	color_purple.png		-1	12	348945	470	1931																			2	1					25	prime_left.png	0	348555	0	0	13	0	348555	0	348555	0	348555	20	0	-1	346626	348555	348555	0	prime_left.png	TrialProc1	right	0		0	10	348865	-348865		0	0	TrialList1	target_right.png	1	l	-1	3	348605	260	l	328	348933												5	1	61				neut			450
1 ver1_main_procedureEEG	2	1	25	<?xml version="1.0"?>\n<Clock xmlns:dt="urn:schemas-microsoft-com:datatypes"><Description dt:dt="string">E-Prime Primary Realtime Clock</Description><StartTime><Timestamp dt:dt="int">0</Timestamp><DateUtc dt:dt="string">2015-09-17T14:35:59Z</DateUtc></StartTime><FrequencyChanges><FrequencyChange><Frequency dt:dt="r8">2612294</Frequency><Timestamp dt:dt="r8">8506158163</Timestamp><Current dt:dt="r8">0</Current><DateUtc dt:dt="string">2015-09-17T14:35:59Z</DateUtc></FrequencyChange></FrequencyChanges></Clock>\n	1 ver1_main_procedureEEG-2-1	99.931	1.0.0.896	1	MC	-83246204	prawa	1	2.0.10.182	09-17-2015	2015-09-17 14:35:59	16:35:59	kobieta	2.0.10.92	3	3	1	1																							l	{SPACE}		no	BlockProc1		BlockList									62	Cued	rightNeut	l	color_purple.png		-1	14	352107	320	1970																			2	2					75	prime_right.png	0	351697	0	0	13	0	351697	0	351697	1	351697	20	0	-1	349727	351697	351696	0	prime_right.png	TrialProc1	right	0		0	10	352007	-352007		0	0	TrialList1	target_right.png	1	l	-1	3	351747	260	l	346	352093												5	1	62				neut			300
1 ver1_main_procedureEEG	2	1	25	<?xml version="1.0"?>\n<Clock xmlns:dt="urn:schemas-microsoft-com:datatypes"><Description dt:dt="string">E-Prime Primary Realtime Clock</Description><StartTime><Timestamp dt:dt="int">0</Timestamp><DateUtc dt:dt="string">2015-09-17T14:35:59Z</DateUtc></StartTime><FrequencyChanges><FrequencyChange><Frequency dt:dt="r8">2612294</Frequency><Timestamp dt:dt="r8">8506158163</Timestamp><Current dt:dt="r8">0</Current><DateUtc dt:dt="string">2015-09-17T14:35:59Z</DateUtc></FrequencyChange></FrequencyChanges></Clock>\n	1 ver1_main_procedureEEG-2-1	99.931	1.0.0.896	1	MC	-83246204	prawa	1	2.0.10.182	09-17-2015	2015-09-17 14:35:59	16:35:59	kobieta	2.0.10.92	3	3	1	1																							l	{SPACE}		no	BlockProc1		BlockList									63	Cued	leftNeut	d	color_blue.png		-1	8	354709	470	1634																			2	1					25	prime_left.png	0	354378	0	0	13	0	354379	0	354378	7	354378	20	0	-1	352739	354378	354371	0	prime_left.png	TrialProc1	left	0		0	11	354689	-354689		0	0	TrialList1	target_left.png	1	d	-1	3	354428	261	d	273	354701												2	1	63				neut			450
1 ver1_main_procedureEEG	2	1	25	<?xml version="1.0"?>\n<Clock xmlns:dt="urn:schemas-microsoft-com:datatypes"><Description dt:dt="string">E-Prime Primary Realtime Clock</Description><StartTime><Timestamp dt:dt="int">0</Timestamp><DateUtc dt:dt="string">2015-09-17T14:35:59Z</DateUtc></StartTime><FrequencyChanges><FrequencyChange><Frequency dt:dt="r8">2612294</Frequency><Timestamp dt:dt="r8">8506158163</Timestamp><Current dt:dt="r8">0</Current><DateUtc dt:dt="string">2015-09-17T14:35:59Z</DateUtc></FrequencyChange></FrequencyChanges></Clock>\n	1 ver1_main_procedureEEG-2-1	99.931	1.0.0.896	1	MC	-83246204	prawa	1	2.0.10.182	09-17-2015	2015-09-17 14:35:59	16:35:59	kobieta	2.0.10.92	3	3	1	1																							l	{SPACE}		no	BlockProc1		BlockList									64	Cued	leftComp	d	color_yellow.png		-1	12	357890	461	1970																			2						75	prime_left.png	0	357460	0	0	13	0	357460	0	357460	1	357460	20	0	-1	355491	357460	357459	0		TrialProc1	left	0		1	10	357770	-357770		0	0	TrialList1	target_left.png	1	d	-1	3	357510	260	d	367	357877												1	1	64				comp			450
1 ver1_main_procedureEEG	2	1	25	<?xml version="1.0"?>\n<Clock xmlns:dt="urn:schemas-microsoft-com:datatypes"><Description dt:dt="string">E-Prime Primary Realtime Clock</Description><StartTime><Timestamp dt:dt="int">0</Timestamp><DateUtc dt:dt="string">2015-09-17T14:35:59Z</DateUtc></StartTime><FrequencyChanges><FrequencyChange><Frequency dt:dt="r8">2612294</Frequency><Timestamp dt:dt="r8">8506158163</Timestamp><Current dt:dt="r8">0</Current><DateUtc dt:dt="string">2015-09-17T14:35:59Z</DateUtc></FrequencyChange></FrequencyChanges></Clock>\n	1 ver1_main_procedureEEG-2-1	99.931	1.0.0.896	1	MC	-83246204	prawa	1	2.0.10.182	09-17-2015	2015-09-17 14:35:59	16:35:59	kobieta	2.0.10.92	3	3	1	1																							l	{SPACE}		no	BlockProc1		BlockList									65	Free	rightIncomp	dl	color_orange.png		-1	14	360852	170	1695																			3						75	prime_left.png	0	360362	0	0	13	0	360362	0	360362	6	360362	20	0	-1	358663	360362	360356	0		TrialProc1	left	0		0	10	360672	-360672		0	0	TrialList1	target_both.png	0	dl	-1	3	360412	260	l	425	360837												7	1	65				comp			150
1 ver1_main_procedureEEG	2	1	25	<?xml version="1.0"?>\n<Clock xmlns:dt="urn:schemas-microsoft-com:datatypes"><Description dt:dt="string">E-Prime Primary Realtime Clock</Description><StartTime><Timestamp dt:dt="int">0</Timestamp><DateUtc dt:dt="string">2015-09-17T14:35:59Z</DateUtc></StartTime><FrequencyChanges><FrequencyChange><Frequency dt:dt="r8">2612294</Frequency><Timestamp dt:dt="r8">8506158163</Timestamp><Current dt:dt="r8">0</Current><DateUtc dt:dt="string">2015-09-17T14:35:59Z</DateUtc></FrequencyChange></FrequencyChanges></Clock>\n	1 ver1_main_procedureEEG-2-1	99.931	1.0.0.896	1	MC	-83246204	prawa	1	2.0.10.182	09-17-2015	2015-09-17 14:35:59	16:35:59	kobieta	2.0.10.92	3	3	1	1																							l	{SPACE}		no	BlockProc1		BlockList									66	Free	rightNeut	dl	color_purple.png		-1	13	362843	321	1103																			3	2					25	prime_right.png	0	362443	0	0	13	0	362443	0	362443	8	362443	20	0	-1	361336	362443	362435	0	prime_right.png	TrialProc1	left	0		1	10	362753	-362753		0	0	TrialList1	target_both.png	0	dl	-1	3	362493	260	l	336	362829												8	1	66				neut			300
1 ver1_main_procedureEEG	2	1	25	<?xml version="1.0"?>\n<Clock xmlns:dt="urn:schemas-microsoft-com:datatypes"><Description dt:dt="string">E-Prime Primary Realtime Clock</Description><StartTime><Timestamp dt:dt="int">0</Timestamp><DateUtc dt:dt="string">2015-09-17T14:35:59Z</DateUtc></StartTime><FrequencyChanges><FrequencyChange><Frequency dt:dt="r8">2612294</Frequency><Timestamp dt:dt="r8">8506158163</Timestamp><Current dt:dt="r8">0</Current><DateUtc dt:dt="string">2015-09-17T14:35:59Z</DateUtc></FrequencyChange></FrequencyChanges></Clock>\n	1 ver1_main_procedureEEG-2-1	99.931	1.0.0.896	1	MC	-83246204	prawa	1	2.0.10.182	09-17-2015	2015-09-17 14:35:59	16:35:59	kobieta	2.0.10.92	3	3	1	1																							l	{SPACE}		no	BlockProc1		BlockList									67	Cued	rightComp	l	color_red.png		-1	13	365555	310	1724																			2						75	prime_right.png	0	365205	0	0	13	0	365205	0	365205	7	365205	20	0	-1	363476	365205	365198	0		TrialProc1	right	0		0	10	365515	-365515		0	0	TrialList1	target_right.png	1	l	-1	3	365255	260	l	286	365541												4	1	67				comp			300
1 ver1_main_procedureEEG	2	1	25	<?xml version="1.0"?>\n<Clock xmlns:dt="urn:schemas-microsoft-com:datatypes"><Description dt:dt="string">E-Prime Primary Realtime Clock</Description><StartTime><Timestamp dt:dt="int">0</Timestamp><DateUtc dt:dt="string">2015-09-17T14:35:59Z</DateUtc></StartTime><FrequencyChanges><FrequencyChange><Frequency dt:dt="r8">2612294</Frequency><Timestamp dt:dt="r8">8506158163</Timestamp><Current dt:dt="r8">0</Current><DateUtc dt:dt="string">2015-09-17T14:35:59Z</DateUtc></FrequencyChange></FrequencyChanges></Clock>\n	1 ver1_main_procedureEEG-2-1	99.931	1.0.0.896	1	MC	-83246204	prawa	1	2.0.10.182	09-17-2015	2015-09-17 14:35:59	16:35:59	kobieta	2.0.10.92	3	3	1	1																							l	{SPACE}		no	BlockProc1		BlockList									68	Cued	leftIncomp	d	color_green.png		-1	6	367596	170	1066																			2						75	prime_right.png	0	367246	0	0	13	0	367246	0	367246	5	367246	20	0	-1	366177	367246	367241	0		TrialProc1	left	0		1	10	367556	-367556		0	0	TrialList1	target_left.png	1	d	-1	3	367296	260	d	293	367589												3	1	68				incomp			150
1 ver1_main_procedureEEG	2	1	25	<?xml version="1.0"?>\n<Clock xmlns:dt="urn:schemas-microsoft-com:datatypes"><Description dt:dt="string">E-Prime Primary Realtime Clock</Description><StartTime><Timestamp dt:dt="int">0</Timestamp><DateUtc dt:dt="string">2015-09-17T14:35:59Z</DateUtc></StartTime><FrequencyChanges><FrequencyChange><Frequency dt:dt="r8">2612294</Frequency><Timestamp dt:dt="r8">8506158163</Timestamp><Current dt:dt="r8">0</Current><DateUtc dt:dt="string">2015-09-17T14:35:59Z</DateUtc></FrequencyChange></FrequencyChanges></Clock>\n	1 ver1_main_procedureEEG-2-1	99.931	1.0.0.896	1	MC	-83246204	prawa	1	2.0.10.182	09-17-2015	2015-09-17 14:35:59	16:35:59	kobieta	2.0.10.92	3	3	1	1																							l	{SPACE}		no	BlockProc1		BlockList									69	Cued	leftIncomp	d	color_green.png		-1	8	370318	320	1904																			2						75	prime_right.png	0	369988	0	0	13	0	369988	0	369988	7	369988	20	0	-1	368078	369988	369981	0		TrialProc1	left	0		0	10	370298	-370298		0	0	TrialList1	target_left.png	1	d	-1	3	370038	260	d	271	370309												3	1	69				incomp			300
1 ver1_main_procedureEEG	2	1	25	<?xml version="1.0"?>\n<Clock xmlns:dt="urn:schemas-microsoft-com:datatypes"><Description dt:dt="string">E-Prime Primary Realtime Clock</Description><StartTime><Timestamp dt:dt="int">0</Timestamp><DateUtc dt:dt="string">2015-09-17T14:35:59Z</DateUtc></StartTime><FrequencyChanges><FrequencyChange><Frequency dt:dt="r8">2612294</Frequency><Timestamp dt:dt="r8">8506158163</Timestamp><Current dt:dt="r8">0</Current><DateUtc dt:dt="string">2015-09-17T14:35:59Z</DateUtc></FrequencyChange></FrequencyChanges></Clock>\n	1 ver1_main_procedureEEG-2-1	99.931	1.0.0.896	1	MC	-83246204	prawa	1	2.0.10.182	09-17-2015	2015-09-17 14:35:59	16:35:59	kobieta	2.0.10.92	3	3	1	1																							l	{SPACE}		no	BlockProc1		BlockList									70	Free	rightIncomp	dl	color_orange.png		-1	14	373020	470	1711																			3						75	prime_left.png	0	372669	0	0	13	0	372670	0	372669	0	372669	20	0	-1	370960	372669	372669	0		TrialProc1	right	0		1	10	372979	-372979		0	0	TrialList1	target_both.png	0	dl	-1	3	372719	260	l	286	373005												12	1	70				incomp			450
1 ver1_main_procedureEEG	2	1	25	<?xml version="1.0"?>\n<Clock xmlns:dt="urn:schemas-microsoft-com:datatypes"><Description dt:dt="string">E-Prime Primary Realtime Clock</Description><StartTime><Timestamp dt:dt="int">0</Timestamp><DateUtc dt:dt="string">2015-09-17T14:35:59Z</DateUtc></StartTime><FrequencyChanges><FrequencyChange><Frequency dt:dt="r8">2612294</Frequency><Timestamp dt:dt="r8">8506158163</Timestamp><Current dt:dt="r8">0</Current><DateUtc dt:dt="string">2015-09-17T14:35:59Z</DateUtc></FrequencyChange></FrequencyChanges></Clock>\n	1 ver1_main_procedureEEG-2-1	99.931	1.0.0.896	1	MC	-83246204	prawa	1	2.0.10.182	09-17-2015	2015-09-17 14:35:59	16:35:59	kobieta	2.0.10.92	3	3	1	1																							l	{SPACE}		no	BlockProc1		BlockList									71	Cued	leftIncomp	d	color_green.png		-1	7	375981	320	1760																			2						75	prime_right.png	0	375561	0	0	13	0	375561	0	375561	1	375561	20	0	-1	373802	375561	375560	0		TrialProc1	left	0		0	10	375871	-375871		0	0	TrialList1	target_left.png	1	d	-1	3	375611	260	d	362	375973												3	1	71				incomp			300
1 ver1_main_procedureEEG	2	1	25	<?xml version="1.0"?>\n<Clock xmlns:dt="urn:schemas-microsoft-com:datatypes"><Description dt:dt="string">E-Prime Primary Realtime Clock</Description><StartTime><Timestamp dt:dt="int">0</Timestamp><DateUtc dt:dt="string">2015-09-17T14:35:59Z</DateUtc></StartTime><FrequencyChanges><FrequencyChange><Frequency dt:dt="r8">2612294</Frequency><Timestamp dt:dt="r8">8506158163</Timestamp><Current dt:dt="r8">0</Current><DateUtc dt:dt="string">2015-09-17T14:35:59Z</DateUtc></FrequencyChange></FrequencyChanges></Clock>\n	1 ver1_main_procedureEEG-2-1	99.931	1.0.0.896	1	MC	-83246204	prawa	1	2.0.10.182	09-17-2015	2015-09-17 14:35:59	16:35:59	kobieta	2.0.10.92	3	3	1	1																							l	{SPACE}		no	BlockProc1		BlockList									72	Cued	rightIncomp	l	color_orange.png		-1	5	378563	320	1600																			2						25	prime_left.png	0	378213	0	0	13	0	378213	0	378213	1	378213	20	0	-1	376614	378213	378212	0		TrialProc1	right	0		0	10	378523	-378523		0	0	TrialList1	target_right.png	1	l	-1	3	378263	260	l	294	378557												6	1	72				incomp			300
1 ver1_main_procedureEEG	2	1	25	<?xml version="1.0"?>\n<Clock xmlns:dt="urn:schemas-microsoft-com:datatypes"><Description dt:dt="string">E-Prime Primary Realtime Clock</Description><StartTime><Timestamp dt:dt="int">0</Timestamp><DateUtc dt:dt="string">2015-09-17T14:35:59Z</DateUtc></StartTime><FrequencyChanges><FrequencyChange><Frequency dt:dt="r8">2612294</Frequency><Timestamp dt:dt="r8">8506158163</Timestamp><Current dt:dt="r8">0</Current><DateUtc dt:dt="string">2015-09-17T14:35:59Z</DateUtc></FrequencyChange></FrequencyChanges></Clock>\n	1 ver1_main_procedureEEG-2-1	99.931	1.0.0.896	1	MC	-83246204	prawa	1	2.0.10.182	09-17-2015	2015-09-17 14:35:59	16:35:59	kobieta	2.0.10.92	3	3	1	1																							l	{SPACE}		no	BlockProc1		BlockList									73											1	4	3	5	2	6	color_green.png	color_red.png	color_blue.png	color_orange.png	color_purple.png	color_yellow.png	color_green.png	color_purple.png	color_blue.png	color_red.png	color_orange.png	color_yellow.png			1	1	1	37820																						DragProc											Ocena																															
1 ver1_main_procedureEEG	2	1	25	<?xml version="1.0"?>\n<Clock xmlns:dt="urn:schemas-microsoft-com:datatypes"><Description dt:dt="string">E-Prime Primary Realtime Clock</Description><StartTime><Timestamp dt:dt="int">0</Timestamp><DateUtc dt:dt="string">2015-09-17T14:35:59Z</DateUtc></StartTime><FrequencyChanges><FrequencyChange><Frequency dt:dt="r8">2612294</Frequency><Timestamp dt:dt="r8">8506158163</Timestamp><Current dt:dt="r8">0</Current><DateUtc dt:dt="string">2015-09-17T14:35:59Z</DateUtc></FrequencyChange></FrequencyChanges></Clock>\n	1 ver1_main_procedureEEG-2-1	99.931	1.0.0.896	1	MC	-83246204	prawa	1	2.0.10.182	09-17-2015	2015-09-17 14:35:59	16:35:59	kobieta	2.0.10.92	3	3	1	1																							l	{SPACE}		no	BlockProc1		BlockList									74					Liczby muszą być przypisane w sposób rosnący.												color_green.png	color_red.png	color_blue.png	color_orange.png	color_purple.png	color_yellow.png									2	1	2																							EnterProc											Ocena												0	10	60	80	85	90														
1 ver1_main_procedureEEG	2	1	25	<?xml version="1.0"?>\n<Clock xmlns:dt="urn:schemas-microsoft-com:datatypes"><Description dt:dt="string">E-Prime Primary Realtime Clock</Description><StartTime><Timestamp dt:dt="int">0</Timestamp><DateUtc dt:dt="string">2015-09-17T14:35:59Z</DateUtc></StartTime><FrequencyChanges><FrequencyChange><Frequency dt:dt="r8">2612294</Frequency><Timestamp dt:dt="r8">8506158163</Timestamp><Current dt:dt="r8">0</Current><DateUtc dt:dt="string">2015-09-17T14:35:59Z</DateUtc></FrequencyChange></FrequencyChanges></Clock>\n	1 ver1_main_procedureEEG-2-1	99.931	1.0.0.896	1	MC	-83246204	prawa	1	2.0.10.182	09-17-2015	2015-09-17 14:35:59	16:35:59	kobieta	2.0.10.92	4	2	1	2																							d	{SPACE}		no	BlockProc1		BlockList									1	Cued	leftIncomp	d	color_yellow.png		-1	8	569387	320	1574																			2						25	prime_right.png	0	568937	0	0	13	0	568937	0	568937	7	568937	20	0	-1	567358	568937	568930	0		TrialProc1	left	0		1	10	569247	-569247		0	0	TrialList1	target_left.png	1	d	-1	3	568987	260	d	391	569378												3	2	73				incomp			300
1 ver1_main_procedureEEG	2	1	25	<?xml version="1.0"?>\n<Clock xmlns:dt="urn:schemas-microsoft-com:datatypes"><Description dt:dt="string">E-Prime Primary Realtime Clock</Description><StartTime><Timestamp dt:dt="int">0</Timestamp><DateUtc dt:dt="string">2015-09-17T14:35:59Z</DateUtc></StartTime><FrequencyChanges><FrequencyChange><Frequency dt:dt="r8">2612294</Frequency><Timestamp dt:dt="r8">8506158163</Timestamp><Current dt:dt="r8">0</Current><DateUtc dt:dt="string">2015-09-17T14:35:59Z</DateUtc></FrequencyChange></FrequencyChanges></Clock>\n	1 ver1_main_procedureEEG-2-1	99.931	1.0.0.896	1	MC	-83246204	prawa	1	2.0.10.182	09-17-2015	2015-09-17 14:35:59	16:35:59	kobieta	2.0.10.92	4	2	1	2																							d	{SPACE}		no	BlockProc1		BlockList									2	Cued	rightIncomp	l	color_purple.png		-1	6	572249	470	1834																			2						25	prime_left.png	0	571869	0	0	13	0	571869	0	571869	7	571869	20	0	-1	570030	571869	571862	0		TrialProc1	right	0		0	10	572179	-572179		0	0	TrialList1	target_right.png	1	l	-1	3	571919	260	l	323	572242												6	2	74				incomp			450
1 ver1_main_procedureEEG	2	1	25	<?xml version="1.0"?>\n<Clock xmlns:dt="urn:schemas-microsoft-com:datatypes"><Description dt:dt="string">E-Prime Primary Realtime Clock</Description><StartTime><Timestamp dt:dt="int">0</Timestamp><DateUtc dt:dt="string">2015-09-17T14:35:59Z</DateUtc></StartTime><FrequencyChanges><FrequencyChange><Frequency dt:dt="r8">2612294</Frequency><Timestamp dt:dt="r8">8506158163</Timestamp><Current dt:dt="r8">0</Current><DateUtc dt:dt="string">2015-09-17T14:35:59Z</DateUtc></FrequencyChange></FrequencyChanges></Clock>\n	1 ver1_main_procedureEEG-2-1	99.931	1.0.0.896	1	MC	-83246204	prawa	1	2.0.10.182	09-17-2015	2015-09-17 14:35:59	16:35:59	kobieta	2.0.10.92	4	2	1	2																							d	{SPACE}		no	BlockProc1		BlockList									3	Cued	error	l			-1	14	575161	160	1840																			2						25	prime_left.png	1	574871	0	0	13	1	574871	1	574871	1	574870	20	0	-1	573031	574870	574869	0		TrialProc1	right	0		0	0	0	0		0	0	TrialList1	target_right.png	0	l	-999999	3	574920	0	d	226	575146												6	2	75				incomp			150
1 ver1_main_procedureEEG	2	1	25	<?xml version="1.0"?>\n<Clock xmlns:dt="urn:schemas-microsoft-com:datatypes"><Description dt:dt="string">E-Prime Primary Realtime Clock</Description><StartTime><Timestamp dt:dt="int">0</Timestamp><DateUtc dt:dt="string">2015-09-17T14:35:59Z</DateUtc></StartTime><FrequencyChanges><FrequencyChange><Frequency dt:dt="r8">2612294</Frequency><Timestamp dt:dt="r8">8506158163</Timestamp><Current dt:dt="r8">0</Current><DateUtc dt:dt="string">2015-09-17T14:35:59Z</DateUtc></FrequencyChange></FrequencyChanges></Clock>\n	1 ver1_main_procedureEEG-2-1	99.931	1.0.0.896	1	MC	-83246204	prawa	1	2.0.10.182	09-17-2015	2015-09-17 14:35:59	16:35:59	kobieta	2.0.10.92	4	2	1	2																							d	{SPACE}		no	BlockProc1		BlockList									4	Cued	leftComp	d	color_blue.png		-1	13	577792	460	1800																			2						25	prime_left.png	0	577432	0	0	13	0	577432	0	577432	1	577432	20	0	-1	575633	577432	577431	0		TrialProc1	left	0		0	10	577742	-577742		0	0	TrialList1	target_left.png	1	d	-1	3	577482	260	d	296	577778												1	2	76				comp			450
1 ver1_main_procedureEEG	2	1	25	<?xml version="1.0"?>\n<Clock xmlns:dt="urn:schemas-microsoft-com:datatypes"><Description dt:dt="string">E-Prime Primary Realtime Clock</Description><StartTime><Timestamp dt:dt="int">0</Timestamp><DateUtc dt:dt="string">2015-09-17T14:35:59Z</DateUtc></StartTime><FrequencyChanges><FrequencyChange><Frequency dt:dt="r8">2612294</Frequency><Timestamp dt:dt="r8">8506158163</Timestamp><Current dt:dt="r8">0</Current><DateUtc dt:dt="string">2015-09-17T14:35:59Z</DateUtc></FrequencyChange></FrequencyChanges></Clock>\n	1 ver1_main_procedureEEG-2-1	99.931	1.0.0.896	1	MC	-83246204	prawa	1	2.0.10.182	09-17-2015	2015-09-17 14:35:59	16:35:59	kobieta	2.0.10.92	4	2	1	2																							d	{SPACE}		no	BlockProc1		BlockList									5	Cued	leftNeut	d	color_red.png		-1	13	580344	170	1431																			2	1					25	prime_left.png	0	579994	0	0	13	0	579994	0	579994	0	579994	20	0	-1	578565	579994	579994	0	prime_left.png	TrialProc1	left	0		0	10	580304	-580304		0	0	TrialList1	target_left.png	1	d	-1	3	580044	260	d	286	580330												2	2	77				neut			150
1 ver1_main_procedureEEG	2	1	25	<?xml version="1.0"?>\n<Clock xmlns:dt="urn:schemas-microsoft-com:datatypes"><Description dt:dt="string">E-Prime Primary Realtime Clock</Description><StartTime><Timestamp dt:dt="int">0</Timestamp><DateUtc dt:dt="string">2015-09-17T14:35:59Z</DateUtc></StartTime><FrequencyChanges><FrequencyChange><Frequency dt:dt="r8">2612294</Frequency><Timestamp dt:dt="r8">8506158163</Timestamp><Current dt:dt="r8">0</Current><DateUtc dt:dt="string">2015-09-17T14:35:59Z</DateUtc></FrequencyChange></FrequencyChanges></Clock>\n	1 ver1_main_procedureEEG-2-1	99.931	1.0.0.896	1	MC	-83246204	prawa	1	2.0.10.182	09-17-2015	2015-09-17 14:35:59	16:35:59	kobieta	2.0.10.92	4	2	1	2																							d	{SPACE}		no	BlockProc1		BlockList									6	Free	rightComp	dl	color_orange.png		-1	10	582635	310	1484																			3						25	prime_right.png	0	582315	0	0	13	0	582315	0	582315	7	582315	20	0	-1	580828	582315	582308	0		TrialProc1	left	0		-999999	10	582625	0		0	0	TrialList1	target_both.png	0	dl	-1	3	582365	0	l	253	582618												9	2	78				incomp			300
1 ver1_main_procedureEEG	2	1	25	<?xml version="1.0"?>\n<Clock xmlns:dt="urn:schemas-microsoft-com:datatypes"><Description dt:dt="string">E-Prime Primary Realtime Clock</Description><StartTime><Timestamp dt:dt="int">0</Timestamp><DateUtc dt:dt="string">2015-09-17T14:35:59Z</DateUtc></StartTime><FrequencyChanges><FrequencyChange><Frequency dt:dt="r8">2612294</Frequency><Timestamp dt:dt="r8">8506158163</Timestamp><Current dt:dt="r8">0</Current><DateUtc dt:dt="string">2015-09-17T14:35:59Z</DateUtc></FrequencyChange></FrequencyChanges></Clock>\n	1 ver1_main_procedureEEG-2-1	99.931	1.0.0.896	1	MC	-83246204	prawa	1	2.0.10.182	09-17-2015	2015-09-17 14:35:59	16:35:59	kobieta	2.0.10.92	4	2	1	2																							d	{SPACE}		no	BlockProc1		BlockList									7	Cued	leftComp	d	color_blue.png		-1	12	585607	170	1989																			2						75	prime_left.png	0	585247	0	0	13	0	585247	0	585247	3	585247	20	0	-1	583257	585247	585244	0		TrialProc1	left	0		0	10	585557	-585557		0	0	TrialList1	target_left.png	1	d	-1	3	585297	260	d	297	585594												1	2	79				comp			150
1 ver1_main_procedureEEG	2	1	25	<?xml version="1.0"?>\n<Clock xmlns:dt="urn:schemas-microsoft-com:datatypes"><Description dt:dt="string">E-Prime Primary Realtime Clock</Description><StartTime><Timestamp dt:dt="int">0</Timestamp><DateUtc dt:dt="string">2015-09-17T14:35:59Z</DateUtc></StartTime><FrequencyChanges><FrequencyChange><Frequency dt:dt="r8">2612294</Frequency><Timestamp dt:dt="r8">8506158163</Timestamp><Current dt:dt="r8">0</Current><DateUtc dt:dt="string">2015-09-17T14:35:59Z</DateUtc></FrequencyChange></FrequencyChanges></Clock>\n	1 ver1_main_procedureEEG-2-1	99.931	1.0.0.896	1	MC	-83246204	prawa	1	2.0.10.182	09-17-2015	2015-09-17 14:35:59	16:35:59	kobieta	2.0.10.92	4	2	1	2																							d	{SPACE}		no	BlockProc1		BlockList									8	Free	rightIncomp	dl	color_purple.png		-1	5	587768	310	1187																			3						25	prime_left.png	0	587278	0	0	13	0	587278	0	587278	4	587278	20	0	-1	586089	587278	587274	0		TrialProc1	left	0		0	10	587588	-587588		0	0	TrialList1	target_both.png	0	dl	-1	3	587328	260	l	434	587762												7	2	80				comp			300
