Name	Block	Trial	CorrectRespon	Effect	GoalRespInd1	GoalRespInd2	GoalRespInd3	GoalRespInd4	GoalRespInd5	GoalRespInd6	GoalRespName1	GoalRespName2	GoalRespName3	GoalRespName4	GoalRespName5	GoalRespName6	kol1	kol2	kol3	kol4	kol5	kol6	TargetSlide.CRESP	TargetSlide.RESP	TargetSlide.RT	TBox1	TBox2	TBox3	TBox4	TBox5	TBox6	TBoxPew	TrialType	WaitTime	Prime	Target
Kasmir	1																																			
Kasmir	2	1	d	color_orange.png																			d	d	592								incomp	300	prime_right.png	target_left.png
Kasmir	2	2	d	color_purple.png																			d	d	297								neut	450	prime_left.png	target_left.png
Kasmir	2	3	l	color_yellow.png																			l	l	455								incomp	300	prime_left.png	target_right.png
Kasmir	2	4	d	color_green.png																			d	d	386								comp	450	prime_left.png	target_left.png
Kasmir	2	5	d	color_orange.png																			d	d	312								incomp	300	prime_right.png	target_left.png
Kasmir	2	6	l	color_blue.png																			l	l	297								comp	450	prime_right.png	target_right.png
Kasmir	2	7	d	color_green.png																			d	d	303								comp	300	prime_left.png	target_left.png
Kasmir	2	8	dl	color_orange.png																			dl	d	298								incomp	300	prime_right.png	target_both.png
Kasmir	2	9	l	color_blue.png																			l	l	344								comp	150	prime_right.png	target_right.png
Kasmir	2	10	d	color_purple.png																			d	d	383								neut	450	prime_right.png	target_left.png
Kasmir	2	11	l	color_blue.png																			l	l	267								comp	300	prime_right.png	target_right.png
Kasmir	2	12	l																				l	d	258								comp	450	prime_right.png	target_right.png
Kasmir	2	13	dl	color_yellow.png																			dl	l	467								incomp	150	prime_left.png	target_both.png
Kasmir	2	14	d	color_green.png																			d	d	376								comp	450	prime_left.png	target_left.png
Kasmir	2	15	dl	color_yellow.png																			dl	l	267								comp	150	prime_left.png	target_both.png
Kasmir	2	16	l	color_yellow.png																			l	l	383								incomp	300	prime_left.png	target_right.png
Kasmir	2	17	d	color_purple.png																			d	d	298								neut	150	prime_left.png	target_left.png
Kasmir	2	18	dl	color_orange.png																			dl	d	454								incomp	150	prime_right.png	target_both.png
Kasmir	2	19	l	color_blue.png																			l	l	337								comp	450	prime_right.png	target_right.png
Kasmir	2	20	l	color_yellow.png																			l	l	276								incomp	150	prime_left.png	target_right.png
Kasmir	2	21	l																				l	d	270								comp	150	prime_right.png	target_right.png
Kasmir	2	22	dl	color_blue.png																			dl	l	390								comp	450	prime_right.png	target_both.png
Kasmir	2	23	d	color_green.png																			d	d	345								comp	300	prime_left.png	target_left.png
Kasmir	2	24	l	color_red.png																			l	l	375								neut	300	prime_right.png	target_right.png
Kasmir	2	25	d	color_green.png																			d	d	300								comp	300	prime_left.png	target_left.png
Kasmir	2	26	l	color_yellow.png																			l	l	315								incomp	150	prime_left.png	target_right.png
Kasmir	2	27	dl	color_orange.png																			dl	d	298								comp	300	prime_right.png	target_both.png
Kasmir	2	28	d	color_purple.png																			d	d	341								neut	300	prime_left.png	target_left.png
Kasmir	2	29	dl	color_yellow.png																			dl	l	306								incomp	300	prime_left.png	target_both.png
Kasmir	2	30	dl	color_red.png																			dl	l	500								neut	450	prime_right.png	target_both.png
Kasmir	2	31	l	color_red.png																			l	l	383								neut	150	prime_left.png	target_right.png
Kasmir	2	32	d	color_orange.png																			d	d	296								incomp	300	prime_right.png	target_left.png
Kasmir	2	33	l	color_red.png																			l	l	266								neut	150	prime_right.png	target_right.png
Kasmir	2	34	dl	color_yellow.png																			dl	l	372								comp	150	prime_left.png	target_both.png
Kasmir	2	35	l																				l	d	305								neut	450	prime_left.png	target_right.png
Kasmir	2	36	d	color_orange.png																			d	d	502								incomp	450	prime_right.png	target_left.png
Kasmir	2	37	l	color_blue.png																			l	l	308								comp	450	prime_right.png	target_right.png
Kasmir	2	38	d	color_orange.png																			d	d	305								incomp	150	prime_right.png	target_left.png
Kasmir	2	39	dl	color_orange.png																			dl	d	489								comp	450	prime_right.png	target_both.png
Kasmir	2	40	l	color_yellow.png																			l	l	267								incomp	300	prime_left.png	target_right.png
Kasmir	2	41	l	color_red.png																			l	l	416								neut	300	prime_right.png	target_right.png
Kasmir	2	42	dl	color_orange.png																			dl	d	377								incomp	300	prime_right.png	target_both.png
Kasmir	2	43	dl	color_purple.png																			dl	d	463								neut	300	prime_left.png	target_both.png
Kasmir	2	44	l	color_yellow.png																			l	l	336								incomp	150	prime_left.png	target_right.png
Kasmir	2	45	d	color_green.png																			d	d	299								comp	450	prime_left.png	target_left.png
Kasmir	2	46	dl	color_red.png																			dl	l	344								neut	150	prime_right.png	target_both.png
Kasmir	2	47	dl	color_green.png																			dl	d	525								incomp	150	prime_left.png	target_both.png
Kasmir	2	48	d	color_purple.png																			d	d	336								neut	150	prime_left.png	target_left.png
Kasmir	2	49	d	color_purple.png																			d	d	375								neut	450	prime_right.png	target_left.png
Kasmir	2	50	l	color_red.png																			l	l	267								neut	450	prime_left.png	target_right.png
Kasmir	2	51	dl	color_yellow.png																			dl	l	566								comp	300	prime_left.png	target_both.png
Kasmir	2	52	d	color_orange.png																			d	d	415								incomp	150	prime_right.png	target_left.png
Kasmir	2	53	d	color_purple.png																			d	d	337								neut	150	prime_right.png	target_left.png
Kasmir	2	54	d	color_orange.png																			d	d	382								incomp	150	prime_right.png	target_left.png
Kasmir	2	55	d																				d	l	305								incomp	450	prime_right.png	target_left.png
Kasmir	2	56	d	color_purple.png																			d	d	312								neut	450	prime_left.png	target_left.png
Kasmir	2	57	l	color_red.png																			l	l	374								neut	300	prime_right.png	target_right.png
Kasmir	2	58	l	color_yellow.png																			l	l	338								incomp	150	prime_left.png	target_right.png
Kasmir	2	59	dl	color_purple.png																			dl	d	339								neut	300	prime_left.png	target_both.png
Kasmir	2	60	l	color_yellow.png																			l	l	494								incomp	300	prime_left.png	target_right.png
Kasmir	2	61	l	color_red.png																			l	l	385								neut	150	prime_right.png	target_right.png
Kasmir	2	62	l	color_blue.png																			l	l	388								comp	300	prime_right.png	target_right.png
Kasmir	2	63	d	color_green.png																			d	d	417								comp	450	prime_left.png	target_left.png
Kasmir	2	64	dl	color_purple.png																			dl	d	380								neut	150	prime_left.png	target_both.png
Kasmir	2	65	l	color_red.png																			l	l	342								neut	150	prime_right.png	target_right.png
Kasmir	2	66	l	color_yellow.png																			l	l	419								incomp	450	prime_left.png	target_right.png
Kasmir	2	67	d																				d	l	354								incomp	300	prime_right.png	target_left.png
Kasmir	2	68	d	color_purple.png																			d	d	463								neut	300	prime_left.png	target_left.png
Kasmir	2	69	l	color_blue.png																			l	l	373								comp	150	prime_right.png	target_right.png
Kasmir	2	70	d	color_green.png																			d	d	297								comp	150	prime_left.png	target_left.png
Kasmir	2	71	d	color_green.png																			d	d	338								comp	150	prime_left.png	target_left.png
Kasmir	2	72	dl	color_red.png																			dl	l	501								neut	450	prime_right.png	target_both.png
Kasmir	2	73			2	1	3	6	4	5	color_purple.png	color_orange.png	color_red.png	color_yellow.png	color_blue.png	color_green.png	color_orange.png	color_purple.png	color_red.png	color_blue.png	color_green.png	color_yellow.png														
Kasmir	2	74									color_purple.png	color_orange.png	color_red.png	color_yellow.png	color_blue.png	color_green.png										15	20	25	26	50	70	40				
Kasmir	3	1	dl	color_purple.png																			dl	d	559								incomp	150	prime_left.png	target_both.png
Kasmir	3	2	dl	color_red.png																			dl	l	378								comp	300	prime_left.png	target_both.png
Kasmir	3	3	dl	color_blue.png																			dl	d	380								neut	150	prime_left.png	target_both.png
Kasmir	3	4	dl	color_red.png																			dl	l	455								incomp	450	prime_left.png	target_both.png
Kasmir	3	5	dl	color_orange.png																			dl	l	426								neut	450	prime_right.png	target_both.png
Kasmir	3	6	dl	color_purple.png																			dl	d	455								comp	300	prime_left.png	target_both.png
Kasmir	3	7	dl	color_blue.png																			dl	d	376								neut	150	prime_left.png	target_both.png
Kasmir	3	8	dl	color_red.png																			dl	l	338								comp	450	prime_left.png	target_both.png
Kasmir	3	9	dl	color_orange.png																			dl	l	267								neut	150	prime_right.png	target_both.png
Kasmir	3	10	dl	color_purple.png																			dl	d	377								comp	450	prime_left.png	target_both.png
Kasmir	3	11	dl	color_orange.png																			dl	l	466								neut	150	prime_left.png	target_both.png
Kasmir	3	12	l	color_red.png																			l	l	299								incomp	150	prime_left.png	target_right.png
Kasmir	3	13	dl	color_blue.png																			dl	d	302								neut	450	prime_right.png	target_both.png
Kasmir	3	14	dl	color_green.png																			dl	d	300								incomp	150	prime_right.png	target_both.png
Kasmir	3	15	dl	color_orange.png																			dl	l	417								neut	450	prime_left.png	target_both.png
Kasmir	3	16	dl	color_red.png																			dl	l	343								comp	300	prime_left.png	target_both.png
Kasmir	3	17	l																				l	d	422								comp	450	prime_right.png	target_right.png
Kasmir	3	18	dl	color_yellow.png																			dl	l	423								incomp	150	prime_right.png	target_both.png
Kasmir	3	19	dl	color_yellow.png																			dl	l	372								comp	450	prime_right.png	target_both.png
Kasmir	3	20	l	color_orange.png																			l	l	489								neut	150	prime_right.png	target_right.png
Kasmir	3	21	d	color_green.png																			d	d	379								incomp	150	prime_right.png	target_left.png
Kasmir	3	22	dl	color_yellow.png																			dl	l	455								comp	300	prime_right.png	target_both.png
Kasmir	3	23	dl	color_yellow.png																			dl	l	528								incomp	300	prime_right.png	target_both.png
Kasmir	3	24	d	color_blue.png																			d	d	379								neut	150	prime_left.png	target_left.png
Kasmir	3	25	dl	color_green.png																			dl	d	530								incomp	450	prime_right.png	target_both.png
Kasmir	3	26	dl	color_yellow.png																			dl	l	394								comp	300	prime_right.png	target_both.png
Kasmir	3	27	dl	color_yellow.png																			dl	l	461								incomp	450	prime_right.png	target_both.png
Kasmir	3	28	dl	color_blue.png																			dl	d	384								neut	300	prime_right.png	target_both.png
Kasmir	3	29	dl	color_purple.png																			dl	d	337								comp	450	prime_left.png	target_both.png
Kasmir	3	30	dl	color_yellow.png																			dl	l	305								incomp	150	prime_right.png	target_both.png
Kasmir	3	31	d	color_blue.png																			d	d	375								neut	450	prime_left.png	target_left.png
Kasmir	3	32	dl	color_yellow.png																			dl	l	378								comp	450	prime_right.png	target_both.png
Kasmir	3	33	dl	color_orange.png																			dl	l	305								neut	300	prime_right.png	target_both.png
Kasmir	3	34	l																				l	d	339								comp	300	prime_right.png	target_right.png
Kasmir	3	35	d	color_purple.png																			d	d	466								comp	150	prime_left.png	target_left.png
Kasmir	3	36	dl	color_red.png																			dl	l	413								incomp	300	prime_left.png	target_both.png
Kasmir	3	37	l																				l	d	266								incomp	450	prime_left.png	target_right.png
Kasmir	3	38	dl	color_red.png																			dl	l	385								incomp	450	prime_left.png	target_both.png
Kasmir	3	39	dl	color_green.png																			dl	d	416								comp	450	prime_right.png	target_both.png
Kasmir	3	40	dl	color_green.png																			dl	d	417								incomp	150	prime_right.png	target_both.png
Kasmir	3	41	dl	color_red.png																			dl	l	490								incomp	450	prime_left.png	target_both.png
Kasmir	3	42	dl	color_orange.png																			dl	l	421								neut	450	prime_left.png	target_both.png
Kasmir	3	43	dl	color_green.png																			dl	d	399								comp	300	prime_right.png	target_both.png
Kasmir	3	44	dl	color_purple.png																			dl	d	353								incomp	300	prime_left.png	target_both.png
Kasmir	3	45	dl	color_yellow.png																			dl	l	308								incomp	150	prime_right.png	target_both.png
Kasmir	3	46	dl	color_orange.png																			dl	l	339								neut	300	prime_right.png	target_both.png
Kasmir	3	47	dl	color_purple.png																			dl	d	306								comp	300	prime_left.png	target_both.png
Kasmir	3	48	l	color_red.png																			l	l	415								incomp	150	prime_left.png	target_right.png
Kasmir	3	49	d	color_purple.png																			d	d	412								comp	300	prime_left.png	target_left.png
Kasmir	3	50	d	color_green.png																			d	d	384								incomp	150	prime_right.png	target_left.png
Kasmir	3	51	dl	color_orange.png																			dl	l	449								neut	150	prime_left.png	target_both.png
Kasmir	3	52	dl	color_orange.png																			dl	l	455								neut	150	prime_right.png	target_both.png
Kasmir	3	53	d	color_purple.png																			d	d	413								comp	300	prime_left.png	target_left.png
Kasmir	3	54	dl	color_purple.png																			dl	d	422								incomp	150	prime_left.png	target_both.png
Kasmir	3	55	dl	color_purple.png																			dl	d	533								comp	150	prime_left.png	target_both.png
Kasmir	3	56	dl	color_yellow.png																			dl	l	335								comp	450	prime_right.png	target_both.png
Kasmir	3	57	dl	color_orange.png																			dl	l	378								neut	150	prime_left.png	target_both.png
Kasmir	3	58	dl	color_orange.png																			dl	l	340								neut	450	prime_right.png	target_both.png
Kasmir	3	59	dl	color_green.png																			dl	d	346								comp	450	prime_right.png	target_both.png
Kasmir	3	60	dl	color_orange.png																			dl	l	417								neut	150	prime_left.png	target_both.png
Kasmir	3	61	l	color_orange.png																			l	l	415								neut	300	prime_right.png	target_right.png
Kasmir	3	62	dl	color_red.png																			dl	l	414								comp	150	prime_left.png	target_both.png
Kasmir	3	63	dl	color_purple.png																			dl	d	335								incomp	150	prime_left.png	target_both.png
Kasmir	3	64	d	color_green.png																			d	d	414								incomp	300	prime_right.png	target_left.png
Kasmir	3	65	dl	color_orange.png																			dl	l	413								neut	300	prime_left.png	target_both.png
Kasmir	3	66	dl	color_blue.png																			dl	d	413								neut	150	prime_right.png	target_both.png
Kasmir	3	67	l	color_yellow.png																			l	l	486								comp	300	prime_right.png	target_right.png
Kasmir	3	68	d	color_blue.png																			d	d	311								neut	300	prime_left.png	target_left.png
Kasmir	3	69	dl	color_purple.png																			dl	d	421								incomp	450	prime_left.png	target_both.png
Kasmir	3	70	dl	color_yellow.png																			dl	l	346								comp	450	prime_right.png	target_both.png
Kasmir	3	71	dl	color_yellow.png																			dl	l	380								incomp	450	prime_right.png	target_both.png
Kasmir	3	72	l	color_orange.png																			l	l	345								neut	150	prime_right.png	target_right.png
Kasmir	3	73			3	1	5	2	4	6	color_purple.png	color_red.png	color_blue.png	color_orange.png	color_yellow.png	color_green.png	color_red.png	color_orange.png	color_purple.png	color_yellow.png	color_blue.png	color_green.png														
Kasmir	3	74									color_purple.png	color_red.png	color_blue.png	color_orange.png	color_yellow.png	color_green.png										1	15	20	40	50	60	40				
Kasmir	4	1	dl	color_orange.png																			dl	l	384								comp	300	prime_left.png	target_both.png
Kasmir	4	2	dl	color_purple.png																			dl	d	300								incomp	300	prime_right.png	target_both.png
Kasmir	4	3	dl	color_green.png																			dl	l	345								neut	450	prime_left.png	target_both.png
Kasmir	4	4	dl	color_green.png																			dl	l	302								neut	300	prime_right.png	target_both.png
Kasmir	4	5	dl	color_orange.png																			dl	l	298								incomp	150	prime_left.png	target_both.png
Kasmir	4	6	d	color_purple.png																			d	d	340								incomp	150	prime_right.png	target_left.png
Kasmir	4	7	dl	color_yellow.png																			dl	d	419								neut	450	prime_left.png	target_both.png
Kasmir	4	8	dl	color_orange.png																			dl	l	458								comp	450	prime_left.png	target_both.png
Kasmir	4	9	dl	color_orange.png																			dl	l	343								comp	150	prime_left.png	target_both.png
Kasmir	4	10	dl	color_purple.png																			dl	d	298								comp	150	prime_right.png	target_both.png
Kasmir	4	11	d	color_blue.png																			d	d	349								comp	300	prime_left.png	target_left.png
Kasmir	4	12	d																				d	l	311								incomp	300	prime_right.png	target_left.png
Kasmir	4	13	l	color_red.png																			l	l	395								comp	300	prime_right.png	target_right.png
Kasmir	4	14	dl	color_yellow.png																			dl	d	492								neut	150	prime_right.png	target_both.png
Kasmir	4	15	dl	color_yellow.png																			dl	d	381								neut	150	prime_left.png	target_both.png
Kasmir	4	16	dl	color_red.png																			dl	l	381								comp	300	prime_right.png	target_both.png
Kasmir	4	17	d	color_yellow.png																			d	d	383								neut	450	prime_right.png	target_left.png
Kasmir	4	18	dl	color_yellow.png																			dl	d	491								neut	150	prime_left.png	target_both.png
Kasmir	4	19	d	color_purple.png																			d	d	494								incomp	150	prime_right.png	target_left.png
Kasmir	4	20	l	color_green.png																			l	l	375								neut	300	prime_right.png	target_right.png
Kasmir	4	21	dl	color_blue.png																			dl	d	377								comp	450	prime_left.png	target_both.png
Kasmir	4	22	dl	color_green.png																			dl	l	456								neut	300	prime_left.png	target_both.png
Kasmir	4	23	dl	color_red.png																			dl	l	340								incomp	450	prime_right.png	target_both.png
Kasmir	4	24	dl	color_red.png																			dl	l	432								comp	450	prime_right.png	target_both.png
Kasmir	4	25	dl	color_purple.png																			dl	d	357								comp	450	prime_right.png	target_both.png
Kasmir	4	26	dl	color_orange.png																			dl	l	435								incomp	300	prime_left.png	target_both.png
Kasmir	4	27	l	color_orange.png																			l	l	387								incomp	300	prime_left.png	target_right.png
Kasmir	4	28	l	color_green.png																			l	l	313								neut	150	prime_right.png	target_right.png
Kasmir	4	29	dl	color_purple.png																			dl	d	1209								incomp	450	prime_right.png	target_both.png
Kasmir	4	30	l	color_green.png																			l	l	354								neut	300	prime_left.png	target_right.png
Kasmir	4	31	dl	color_orange.png																			dl	l	300								incomp	450	prime_left.png	target_both.png
Kasmir	4	32	dl	color_yellow.png																			dl	d	346								neut	300	prime_right.png	target_both.png
Kasmir	4	33	dl	color_green.png																			dl	l	416								neut	150	prime_left.png	target_both.png
Kasmir	4	34	dl	color_purple.png																			dl	d	491								incomp	450	prime_right.png	target_both.png
Kasmir	4	35	dl	color_red.png																			dl	l	346								comp	150	prime_right.png	target_both.png
Kasmir	4	36	dl	color_orange.png																			dl	l	300								incomp	450	prime_left.png	target_both.png
Kasmir	4	37	dl	color_yellow.png																			dl	d	394								neut	300	prime_right.png	target_both.png
Kasmir	4	38	d	color_yellow.png																			d	d	452								neut	300	prime_left.png	target_left.png
Kasmir	4	39	dl	color_green.png																			dl	l	345								neut	450	prime_right.png	target_both.png
Kasmir	4	40	l	color_red.png																			l	l	379								comp	450	prime_right.png	target_right.png
Kasmir	4	41	l	color_orange.png																			l	l	421								incomp	150	prime_left.png	target_right.png
Kasmir	4	42	dl	color_orange.png																			dl	l	381								comp	450	prime_left.png	target_both.png
Kasmir	4	43	dl	color_purple.png																			dl	d	386								comp	150	prime_right.png	target_both.png
Kasmir	4	44	d	color_blue.png																			d	d	338								comp	300	prime_left.png	target_left.png
Kasmir	4	45	dl	color_blue.png																			dl	d	282								comp	450	prime_left.png	target_both.png
Kasmir	4	46	dl	color_red.png																			dl	l	310								incomp	450	prime_right.png	target_both.png
Kasmir	4	47	dl	color_orange.png																			dl	l	317								comp	450	prime_left.png	target_both.png
Kasmir	4	48	dl	color_purple.png																			dl	d	343								comp	150	prime_right.png	target_both.png
Kasmir	4	49	dl	color_green.png																			dl	l	450								neut	300	prime_left.png	target_both.png
Kasmir	4	50	dl	color_purple.png																			dl	d	458								incomp	150	prime_right.png	target_both.png
Kasmir	4	51	dl	color_green.png																			dl	l	346								neut	300	prime_right.png	target_both.png
Kasmir	4	52	d	color_yellow.png																			d	d	454								neut	300	prime_left.png	target_left.png
Kasmir	4	53	dl	color_yellow.png																			dl	d	414								neut	450	prime_right.png	target_both.png
Kasmir	4	54	dl	color_purple.png																			dl	d	454								comp	150	prime_right.png	target_both.png
Kasmir	4	55	dl	color_orange.png																			dl	l	298								comp	150	prime_left.png	target_both.png
Kasmir	4	56	dl	color_blue.png																			dl	d	379								incomp	300	prime_left.png	target_both.png
Kasmir	4	57	l	color_red.png																			l	l	343								comp	450	prime_right.png	target_right.png
Kasmir	4	58	dl	color_green.png																			dl	l	414								neut	150	prime_left.png	target_both.png
Kasmir	4	59	d	color_blue.png																			d	d	374								comp	450	prime_left.png	target_left.png
Kasmir	4	60	dl	color_green.png																			dl	l	350								neut	450	prime_right.png	target_both.png
Kasmir	4	61	dl	color_purple.png																			dl	d	308								incomp	450	prime_right.png	target_both.png
Kasmir	4	62	dl	color_orange.png																			dl	l	316								incomp	300	prime_left.png	target_both.png
Kasmir	4	63	dl	color_blue.png																			dl	d	302								incomp	150	prime_left.png	target_both.png
Kasmir	4	64	dl	color_red.png																			dl	l	297								incomp	300	prime_right.png	target_both.png
Kasmir	4	65	l	color_orange.png																			l	l	379								incomp	150	prime_left.png	target_right.png
Kasmir	4	66	dl	color_blue.png																			dl	d	351								incomp	150	prime_left.png	target_both.png
Kasmir	4	67	dl	color_orange.png																			dl	l	343								comp	300	prime_left.png	target_both.png
Kasmir	4	68	dl	color_green.png																			dl	l	300								neut	300	prime_left.png	target_both.png
Kasmir	4	69	dl	color_purple.png																			dl	d	268								comp	150	prime_right.png	target_both.png
Kasmir	4	70	dl	color_blue.png																			dl	d	578								incomp	450	prime_left.png	target_both.png
Kasmir	4	71	dl	color_red.png																			dl	l	278								incomp	450	prime_right.png	target_both.png
Kasmir	4	72	dl	color_green.png																			dl	l	316								neut	300	prime_right.png	target_both.png
Kasmir	4	73			5	2	1	4	3	6	color_orange.png	color_red.png	color_purple.png	color_green.png	color_yellow.png	color_blue.png	color_purple.png	color_red.png	color_yellow.png	color_green.png	color_orange.png	color_blue.png														
Kasmir	4	74									color_orange.png	color_red.png	color_purple.png	color_green.png	color_yellow.png	color_blue.png										12	20	25	45	55	65	30				
Kasmir	5	1	dl	color_yellow.png																			dl	d	478								incomp	450	prime_left.png	target_both.png
Kasmir	5	2	l	color_green.png																			l	l	306								incomp	450	prime_left.png	target_right.png
Kasmir	5	3	dl	color_purple.png																			dl	l	314								neut	300	prime_left.png	target_both.png
Kasmir	5	4	dl	color_purple.png																			dl	l	301								neut	450	prime_right.png	target_both.png
Kasmir	5	5	dl	color_blue.png																			dl	d	309								incomp	450	prime_right.png	target_both.png
Kasmir	5	6	dl	color_blue.png																			dl	d	307								incomp	450	prime_right.png	target_both.png
Kasmir	5	7	dl	color_red.png																			dl	d	343								neut	450	prime_left.png	target_both.png
Kasmir	5	8	dl	color_orange.png																			dl	l	301								comp	300	prime_right.png	target_both.png
Kasmir	5	9	dl	color_purple.png																			dl	l	384								neut	450	prime_right.png	target_both.png
Kasmir	5	10	dl	color_blue.png																			dl	d	302								comp	150	prime_right.png	target_both.png
Kasmir	5	11	dl	color_green.png																			dl	l	372								comp	450	prime_left.png	target_both.png
Kasmir	5	12	d	color_yellow.png																			d	d	317								comp	450	prime_left.png	target_left.png
Kasmir	5	13	l	color_purple.png																			l	l	353								neut	150	prime_left.png	target_right.png
Kasmir	5	14	dl	color_purple.png																			dl	l	335								neut	300	prime_right.png	target_both.png
Kasmir	5	15	l																				l	d	266								neut	150	prime_left.png	target_right.png
Kasmir	5	16	dl	color_orange.png																			dl	l	346								incomp	150	prime_right.png	target_both.png
Kasmir	5	17	dl	color_blue.png																			dl	d	348								comp	300	prime_right.png	target_both.png
Kasmir	5	18	dl	color_green.png																			dl	l	381								comp	450	prime_left.png	target_both.png
Kasmir	5	19	l	color_green.png																			l	l	309								incomp	150	prime_left.png	target_right.png
Kasmir	5	20	dl	color_green.png																			dl	l	380								incomp	450	prime_left.png	target_both.png
Kasmir	5	21	d	color_blue.png																			d	d	308								incomp	450	prime_right.png	target_left.png
Kasmir	5	22	dl	color_purple.png																			dl	l	382								neut	450	prime_right.png	target_both.png
Kasmir	5	23	dl	color_red.png																			dl	d	300								neut	150	prime_left.png	target_both.png
Kasmir	5	24	dl	color_purple.png																			dl	l	418								neut	150	prime_right.png	target_both.png
Kasmir	5	25	dl	color_blue.png																			dl	d	416								comp	150	prime_right.png	target_both.png
Kasmir	5	26	dl	color_green.png																			dl	l	302								comp	300	prime_left.png	target_both.png
Kasmir	5	27	dl	color_orange.png																			dl	l	308								incomp	300	prime_right.png	target_both.png
Kasmir	5	28	l	color_orange.png																			l	l	304								comp	300	prime_right.png	target_right.png
Kasmir	5	29	dl	color_orange.png																			dl	l	386								comp	150	prime_right.png	target_both.png
Kasmir	5	30	d	color_blue.png																			d	d	376								incomp	450	prime_right.png	target_left.png
Kasmir	5	31	dl	color_red.png																			dl	d	349								neut	300	prime_left.png	target_both.png
Kasmir	5	32	dl	color_green.png																			dl	l	382								comp	300	prime_left.png	target_both.png
Kasmir	5	33	dl	color_yellow.png																			dl	d	308								incomp	300	prime_left.png	target_both.png
Kasmir	5	34	dl	color_yellow.png																			dl	d	349								incomp	450	prime_left.png	target_both.png
Kasmir	5	35	dl	color_green.png																			dl	l	393								comp	450	prime_left.png	target_both.png
Kasmir	5	36	dl	color_yellow.png																			dl	d	349								incomp	450	prime_left.png	target_both.png
Kasmir	5	37	dl	color_orange.png																			dl	l	431								comp	150	prime_right.png	target_both.png
Kasmir	5	38	dl	color_blue.png																			dl	d	396								incomp	150	prime_right.png	target_both.png
Kasmir	5	39	dl	color_orange.png																			dl	l	301								incomp	300	prime_right.png	target_both.png
Kasmir	5	40	l																				l	d	270								incomp	450	prime_left.png	target_right.png
Kasmir	5	41	dl	color_green.png																			dl	l	432								comp	450	prime_left.png	target_both.png
Kasmir	5	42	dl	color_red.png																			dl	d	320								neut	450	prime_right.png	target_both.png
Kasmir	5	43	dl	color_yellow.png																			dl	d	308								incomp	150	prime_left.png	target_both.png
Kasmir	5	44	dl	color_yellow.png																			dl	d	530								comp	150	prime_left.png	target_both.png
Kasmir	5	45	d	color_blue.png																			d	d	381								incomp	450	prime_right.png	target_left.png
Kasmir	5	46	dl	color_yellow.png																			dl	d	309								comp	300	prime_left.png	target_both.png
Kasmir	5	47	d	color_yellow.png																			d	d	382								comp	150	prime_left.png	target_left.png
Kasmir	5	48	dl	color_yellow.png																			dl	d	379								comp	150	prime_left.png	target_both.png
Kasmir	5	49	dl	color_orange.png																			dl	l	351								comp	150	prime_right.png	target_both.png
Kasmir	5	50	dl	color_green.png																			dl	l	343								incomp	300	prime_left.png	target_both.png
Kasmir	5	51	dl	color_orange.png																			dl	l	353								incomp	300	prime_right.png	target_both.png
Kasmir	5	52	dl	color_purple.png																			dl	l	299								neut	450	prime_left.png	target_both.png
Kasmir	5	53	dl	color_red.png																			dl	d	308								neut	300	prime_right.png	target_both.png
Kasmir	5	54	dl	color_purple.png																			dl	l	304								neut	300	prime_left.png	target_both.png
Kasmir	5	55	l	color_purple.png																			l	l	490								neut	300	prime_right.png	target_right.png
Kasmir	5	56	dl	color_orange.png																			dl	l	383								comp	300	prime_right.png	target_both.png
Kasmir	5	57	d	color_red.png																			d	d	299								neut	150	prime_left.png	target_left.png
Kasmir	5	58	dl	color_red.png																			dl	d	380								neut	450	prime_right.png	target_both.png
Kasmir	5	59	dl	color_purple.png																			dl	l	308								neut	450	prime_left.png	target_both.png
Kasmir	5	60	dl	color_yellow.png																			dl	d	383								incomp	150	prime_left.png	target_both.png
Kasmir	5	61	dl	color_orange.png																			dl	l	307								incomp	300	prime_right.png	target_both.png
Kasmir	5	62	l																				l	d	303								comp	300	prime_right.png	target_right.png
Kasmir	5	63	d	color_red.png																			d	d	585								neut	150	prime_right.png	target_left.png
Kasmir	5	64	dl	color_orange.png																			dl	l	489								comp	150	prime_right.png	target_both.png
Kasmir	5	65	l	color_orange.png																			l	l	418								comp	300	prime_right.png	target_right.png
Kasmir	5	66	dl	color_orange.png																			dl	l	418								incomp	300	prime_right.png	target_both.png
Kasmir	5	67	dl	color_yellow.png																			dl	d	557								incomp	150	prime_left.png	target_both.png
Kasmir	5	68	d	color_yellow.png																			d	d	349								comp	450	prime_left.png	target_left.png
Kasmir	5	69	dl	color_purple.png																			dl	l	536								neut	150	prime_left.png	target_both.png
Kasmir	5	70	d	color_red.png																			d	d	452								neut	150	prime_right.png	target_left.png
Kasmir	5	71	dl	color_purple.png																			dl	l	487								neut	300	prime_left.png	target_both.png
Kasmir	5	72	dl	color_red.png																			dl	d	342								neut	450	prime_right.png	target_both.png
Kasmir	5	73			4	1	5	6	3	2	color_red.png	color_purple.png	color_orange.png	color_green.png	color_yellow.png	color_blue.png	color_purple.png	color_blue.png	color_yellow.png	color_red.png	color_orange.png	color_green.png														
Kasmir	5	74									color_red.png	color_purple.png	color_orange.png	color_green.png	color_yellow.png	color_blue.png										10	14	18	45	60	80	70				
Kasmir	6	1	d	color_yellow.png																			d	d	455								incomp	300	prime_right.png	target_left.png
Kasmir	6	2	l	color_blue.png																			l	l	453								neut	450	prime_left.png	target_right.png
Kasmir	6	3	d	color_red.png																			d	d	378								comp	300	prime_left.png	target_left.png
Kasmir	6	4	l	color_green.png																			l	l	428								comp	450	prime_right.png	target_right.png
Kasmir	6	5	l																				l	d	317								incomp	150	prime_left.png	target_right.png
Kasmir	6	6	l	color_purple.png																			l	l	311								incomp	150	prime_left.png	target_right.png
Kasmir	6	7	d	color_orange.png																			d	d	373								neut	450	prime_right.png	target_left.png
Kasmir	6	8	l	color_green.png																			l	l	339								comp	150	prime_right.png	target_right.png
Kasmir	6	9	l	color_blue.png																			l	l	342								neut	450	prime_left.png	target_right.png
Kasmir	6	10	l	color_green.png																			l	l	300								comp	300	prime_right.png	target_right.png
Kasmir	6	11	dl	color_purple.png																			dl	l	649								comp	450	prime_left.png	target_both.png
Kasmir	6	12	d	color_yellow.png																			d	d	431								incomp	300	prime_right.png	target_left.png
Kasmir	6	13	l	color_green.png																			l	l	346								comp	450	prime_right.png	target_right.png
Kasmir	6	14	d	color_yellow.png																			d	d	418								incomp	300	prime_right.png	target_left.png
Kasmir	6	15	l	color_purple.png																			l	l	381								incomp	300	prime_left.png	target_right.png
Kasmir	6	16	dl	color_red.png																			dl	d	423								incomp	150	prime_left.png	target_both.png
Kasmir	6	17	d	color_yellow.png																			d	d	601								incomp	150	prime_right.png	target_left.png
Kasmir	6	18	l	color_green.png																			l	l	358								comp	450	prime_right.png	target_right.png
Kasmir	6	19	d	color_red.png																			d	d	317								comp	450	prime_left.png	target_left.png
Kasmir	6	20	d	color_red.png																			d	d	619								comp	300	prime_left.png	target_left.png
Kasmir	6	21	d																				d	l	316								neut	450	prime_right.png	target_left.png
Kasmir	6	22	d	color_red.png																			d	d	466								comp	450	prime_left.png	target_left.png
Kasmir	6	23	d	color_yellow.png																			d	d	353								incomp	450	prime_right.png	target_left.png
Kasmir	6	24	l	color_purple.png																			l	l	578								incomp	300	prime_left.png	target_right.png
Kasmir	6	25	dl	color_orange.png																			dl	d	428								neut	450	prime_left.png	target_both.png
Kasmir	6	26	d																				d	l	383								incomp	450	prime_right.png	target_left.png
Kasmir	6	27	d	color_red.png																			d	d	387								comp	300	prime_left.png	target_left.png
Kasmir	6	28	l	color_purple.png																			l	l	418								incomp	150	prime_left.png	target_right.png
Kasmir	6	29	d	color_red.png																			d	d	393								comp	450	prime_left.png	target_left.png
Kasmir	6	30	dl	color_blue.png																			dl	l	987								neut	300	prime_right.png	target_both.png
Kasmir	6	31	d	color_orange.png																			d	d	379								neut	150	prime_left.png	target_left.png
Kasmir	6	32	l	color_purple.png																			l	l	456								incomp	450	prime_left.png	target_right.png
Kasmir	6	33	dl	color_green.png																			dl	l	418								comp	450	prime_right.png	target_both.png
Kasmir	6	34	l	color_blue.png																			l	l	497								neut	450	prime_right.png	target_right.png
Kasmir	6	35	d	color_orange.png																			d	d	419								neut	150	prime_left.png	target_left.png
Kasmir	6	36	d	color_orange.png																			d	d	419								neut	450	prime_right.png	target_left.png
Kasmir	6	37	l	color_green.png																			l	l	345								comp	450	prime_right.png	target_right.png
Kasmir	6	38	l	color_green.png																			l	l	267								comp	450	prime_right.png	target_right.png
Kasmir	6	39	d	color_orange.png																			d	d	428								neut	450	prime_left.png	target_left.png
Kasmir	6	40	dl	color_blue.png																			dl	l	497								neut	300	prime_right.png	target_both.png
Kasmir	6	41	dl	color_green.png																			dl	l	418								incomp	450	prime_right.png	target_both.png
Kasmir	6	42	dl	color_green.png																			dl	l	430								comp	450	prime_right.png	target_both.png
Kasmir	6	43	l	color_blue.png																			l	l	395								neut	450	prime_left.png	target_right.png
Kasmir	6	44	l	color_purple.png																			l	l	418								incomp	300	prime_left.png	target_right.png
Kasmir	6	45	d	color_red.png																			d	d	542								comp	300	prime_left.png	target_left.png
Kasmir	6	46	l	color_green.png																			l	l	309								comp	300	prime_right.png	target_right.png
Kasmir	6	47	l	color_blue.png																			l	l	306								neut	300	prime_right.png	target_right.png
Kasmir	6	48	l	color_purple.png																			l	l	379								incomp	150	prime_left.png	target_right.png
Kasmir	6	49	dl	color_green.png																			dl	l	380								incomp	450	prime_right.png	target_both.png
Kasmir	6	50	l	color_blue.png																			l	l	433								neut	150	prime_left.png	target_right.png
Kasmir	6	51	l	color_blue.png																			l	l	373								neut	150	prime_right.png	target_right.png
Kasmir	6	52	d																				d	l	298								incomp	300	prime_right.png	target_left.png
Kasmir	6	53	dl	color_red.png																			dl	d	392								incomp	450	prime_left.png	target_both.png
Kasmir	6	54	d	color_orange.png																			d	d	415								neut	150	prime_left.png	target_left.png
Kasmir	6	55	l	color_blue.png																			l	l	339								neut	450	prime_right.png	target_right.png
Kasmir	6	56	dl	color_orange.png																			dl	d	384								neut	450	prime_left.png	target_both.png
Kasmir	6	57	l	color_blue.png																			l	l	340								neut	450	prime_right.png	target_right.png
Kasmir	6	58	d	color_red.png																			d	d	423								comp	300	prime_left.png	target_left.png
Kasmir	6	59	d	color_orange.png																			d	d	424								neut	450	prime_left.png	target_left.png
Kasmir	6	60	l	color_purple.png																			l	l	455								incomp	300	prime_left.png	target_right.png
Kasmir	6	61	dl	color_orange.png																			dl	d	501								neut	300	prime_right.png	target_both.png
Kasmir	6	62	dl	color_red.png																			dl	d	460								incomp	300	prime_left.png	target_both.png
Kasmir	6	63	dl	color_green.png																			dl	l	345								incomp	150	prime_right.png	target_both.png
Kasmir	6	64	d	color_red.png																			d	d	681								comp	450	prime_left.png	target_left.png
Kasmir	6	65	d	color_yellow.png																			d	d	473								incomp	450	prime_right.png	target_left.png
Kasmir	6	66	dl	color_purple.png																			dl	l	682								comp	150	prime_left.png	target_both.png
Kasmir	6	67	d	color_yellow.png																			d	d	496								incomp	300	prime_right.png	target_left.png
Kasmir	6	68	dl	color_green.png																			dl	l	575								comp	300	prime_right.png	target_both.png
Kasmir	6	69	d	color_orange.png																			d	d	492								neut	150	prime_left.png	target_left.png
Kasmir	6	70	dl	color_purple.png																			dl	l	488								comp	300	prime_left.png	target_both.png
Kasmir	6	71	l																				l	d	495								comp	150	prime_right.png	target_right.png
Kasmir	6	72	dl	color_blue.png																			dl	l	461								neut	300	prime_right.png	target_both.png
Kasmir	6	73			6	4	5	3	2	1	color_yellow.png	color_orange.png	color_red.png	color_purple.png	color_green.png	color_blue.png	color_blue.png	color_green.png	color_purple.png	color_orange.png	color_red.png	color_yellow.png														
Kasmir	6	74									color_yellow.png	color_orange.png	color_red.png	color_purple.png	color_green.png	color_blue.png										20	30	40	45	55	69	20				
Kasmir	7	1	d	color_red.png																			d	d	480								incomp	300	prime_right.png	target_left.png
Kasmir	7	2	d																				d	l	307								comp	150	prime_left.png	target_left.png
Kasmir	7	3	d	color_red.png																			d	d	313								incomp	150	prime_right.png	target_left.png
Kasmir	7	4	l	color_purple.png																			l	l	411								comp	450	prime_right.png	target_right.png
Kasmir	7	5	d	color_green.png																			d	d	327								neut	150	prime_left.png	target_left.png
Kasmir	7	6	d	color_red.png																			d	d	377								incomp	150	prime_right.png	target_left.png
Kasmir	7	7	dl	color_red.png																			dl	d	302								comp	450	prime_right.png	target_both.png
Kasmir	7	8	dl	color_purple.png																			dl	l	378								incomp	450	prime_right.png	target_both.png
Kasmir	7	9	d	color_orange.png																			d	d	421								comp	150	prime_left.png	target_left.png
Kasmir	7	10	dl	color_orange.png																			dl	d	306								incomp	300	prime_left.png	target_both.png
Kasmir	7	11	l	color_yellow.png																			l	l	389								neut	450	prime_right.png	target_right.png
Kasmir	7	12	l	color_yellow.png																			l	l	308								neut	150	prime_left.png	target_right.png
Kasmir	7	13	dl	color_purple.png																			dl	l	834								comp	150	prime_right.png	target_both.png
Kasmir	7	14	dl	color_red.png																			dl	d	381								incomp	450	prime_right.png	target_both.png
Kasmir	7	15	l	color_blue.png																			l	l	307								incomp	150	prime_left.png	target_right.png
Kasmir	7	16	l	color_yellow.png																			l	l	530								neut	150	prime_right.png	target_right.png
Kasmir	7	17	l	color_purple.png																			l	l	343								comp	300	prime_right.png	target_right.png
Kasmir	7	18	dl	color_yellow.png																			dl	l	338								neut	300	prime_left.png	target_both.png
Kasmir	7	19	d	color_green.png																			d	d	305								neut	150	prime_right.png	target_left.png
Kasmir	7	20	d	color_green.png																			d	d	413								neut	300	prime_left.png	target_left.png
Kasmir	7	21	d	color_green.png																			d	d	414								neut	450	prime_right.png	target_left.png
Kasmir	7	22	l	color_yellow.png																			l	l	423								neut	300	prime_left.png	target_right.png
Kasmir	7	23	dl																				dl		0								incomp	150	prime_right.png	target_both.png
Kasmir	7	24	d	color_green.png																			d	d	423								neut	150	prime_right.png	target_left.png
Kasmir	7	25	d	color_orange.png																			d	d	374								comp	150	prime_left.png	target_left.png
Kasmir	7	26	dl	color_green.png																			dl	d	375								neut	450	prime_left.png	target_both.png
Kasmir	7	27	d	color_orange.png																			d	d	646								comp	150	prime_left.png	target_left.png
Kasmir	7	28	dl	color_green.png																			dl	d	414								neut	450	prime_right.png	target_both.png
Kasmir	7	29	d	color_orange.png																			d	d	455								comp	300	prime_left.png	target_left.png
Kasmir	7	30	l	color_blue.png																			l	l	341								incomp	450	prime_left.png	target_right.png
Kasmir	7	31	dl	color_blue.png																			dl	l	424								incomp	450	prime_left.png	target_both.png
Kasmir	7	32	l	color_blue.png																			l	l	455								incomp	150	prime_left.png	target_right.png
Kasmir	7	33	l	color_purple.png																			l	l	528								comp	300	prime_right.png	target_right.png
Kasmir	7	34	d	color_red.png																			d	d	343								incomp	300	prime_right.png	target_left.png
Kasmir	7	35	l	color_purple.png																			l	l	385								comp	450	prime_right.png	target_right.png
Kasmir	7	36	l	color_yellow.png																			l	l	314								neut	450	prime_left.png	target_right.png
Kasmir	7	37	d	color_red.png																			d	d	417								incomp	450	prime_right.png	target_left.png
Kasmir	7	38	l	color_blue.png																			l	l	458								incomp	300	prime_left.png	target_right.png
Kasmir	7	39	d	color_red.png																			d	d	457								incomp	450	prime_right.png	target_left.png
Kasmir	7	40	l	color_purple.png																			l	l	306								comp	300	prime_right.png	target_right.png
Kasmir	7	41	d	color_orange.png																			d	d	569								comp	450	prime_left.png	target_left.png
Kasmir	7	42	d	color_red.png																			d	d	498								incomp	300	prime_right.png	target_left.png
Kasmir	7	43	l	color_blue.png																			l	l	343								incomp	150	prime_left.png	target_right.png
Kasmir	7	44	d	color_green.png																			d	d	451								neut	450	prime_right.png	target_left.png
Kasmir	7	45	l	color_blue.png																			l	l	386								incomp	300	prime_left.png	target_right.png
Kasmir	7	46	l	color_blue.png																			l	l	455								incomp	300	prime_left.png	target_right.png
Kasmir	7	47	l	color_purple.png																			l	l	378								comp	450	prime_right.png	target_right.png
Kasmir	7	48	dl	color_orange.png																			dl	d	469								comp	150	prime_left.png	target_both.png
Kasmir	7	49	dl	color_yellow.png																			dl	l	352								neut	150	prime_left.png	target_both.png
Kasmir	7	50	l	color_blue.png																			l	l	335								incomp	450	prime_left.png	target_right.png
Kasmir	7	51	l	color_blue.png																			l	l	456								incomp	450	prime_left.png	target_right.png
Kasmir	7	52	d	color_orange.png																			d	d	533								comp	450	prime_left.png	target_left.png
Kasmir	7	53	l	color_purple.png																			l	l	378								comp	450	prime_right.png	target_right.png
Kasmir	7	54	l	color_yellow.png																			l	l	497								neut	150	prime_right.png	target_right.png
Kasmir	7	55	l	color_purple.png																			l	l	379								comp	150	prime_right.png	target_right.png
Kasmir	7	56	d	color_green.png																			d	d	418								neut	300	prime_left.png	target_left.png
Kasmir	7	57	l	color_yellow.png																			l	l	381								neut	150	prime_right.png	target_right.png
Kasmir	7	58	d	color_orange.png																			d	d	268								comp	150	prime_left.png	target_left.png
Kasmir	7	59	l	color_yellow.png																			l	l	462								neut	450	prime_left.png	target_right.png
Kasmir	7	60	dl	color_red.png																			dl	d	453								comp	450	prime_right.png	target_both.png
Kasmir	7	61	dl	color_yellow.png																			dl	l	416								neut	450	prime_right.png	target_both.png
Kasmir	7	62	d	color_red.png																			d	d	419								incomp	450	prime_right.png	target_left.png
Kasmir	7	63	dl	color_orange.png																			dl	d	352								comp	300	prime_left.png	target_both.png
Kasmir	7	64	l	color_purple.png																			l	l	414								comp	300	prime_right.png	target_right.png
Kasmir	7	65	d	color_orange.png																			d	d	377								comp	450	prime_left.png	target_left.png
Kasmir	7	66	dl	color_blue.png																			dl	l	497								comp	300	prime_left.png	target_both.png
Kasmir	7	67	dl	color_green.png																			dl	d	380								neut	450	prime_left.png	target_both.png
Kasmir	7	68	d																				d	l	385								incomp	300	prime_right.png	target_left.png
Kasmir	7	69	d	color_green.png																			d	d	426								neut	150	prime_right.png	target_left.png
Kasmir	7	70	dl	color_orange.png																			dl	d	415								incomp	300	prime_left.png	target_both.png
Kasmir	7	71	l	color_yellow.png																			l	l	378								neut	300	prime_left.png	target_right.png
Kasmir	7	72	d	color_green.png																			d	d	458								neut	150	prime_right.png	target_left.png
Kasmir	7	73			2	4	3	1	5	6	color_yellow.png	color_orange.png	color_red.png	color_green.png	color_purple.png	color_blue.png	color_green.png	color_yellow.png	color_red.png	color_orange.png	color_purple.png	color_blue.png														
Kasmir	7	74									color_yellow.png	color_orange.png	color_red.png	color_green.png	color_purple.png	color_blue.png										9	14	20	39	56	70	40				
Kasmir	8																																			
