	Eprime.Level	Eprime.LevelName	Eprime.Basename	Eprime.FrameNumber	Procedure	Running	VersionPersist	LevelName	Experiment	SessionDate	SessionTime	SessionStartDateTimeUtc	RuntimeVersion	ResearcherID	Subject	Session	Group	Name	Age	Sex	Recznosc	DataFile.Basename	RandomSeed	Display.RefreshRate	proszenie	planowanie	zrozumienie	wykonanie	WordList	kobieta_S1	mezczyzna_S1	kobieta_S2	mezczyzna_S2	kobieta_S3	mezczyzna_S3	kobieta_S4	mezczyzna_S4	Cycle	Block	Sample	Instructions3.RESP	Instructions4.RESP	Instructions5.RESP	TargetTraining	TrCorrectResp	TrWaitTime	TrPosit	Prime	Target	Resp	Effect	ChoiceType	CorrectRespon	TrialType	WaitTime	Posit	Prime.OnsetDelay	Prime.OnsetTime	Prime.DurationError	Prime.PreRelease	Prime.Duration	Prime.StartTime	Prime.OffsetTime	Prime.FinishTime	Prime.TimingMode	Prime.CustomOnsetTime	Prime.CustomOffsetTime	Prime.ActionDelay	Prime.ActionTime	Prime.TargetOffsetTime	Prime.TargetOnsetTime	Prime.PendingInputMasks	Prime.OffsetDelay	Prime.OnsetToOnsetTime	TargetSlide.OnsetDelay	TargetSlide.OnsetTime	TargetSlide.DurationError	TargetSlide.RTTime	TargetSlide.ACC	TargetSlide.RT	TargetSlide.RESP	TargetSlide.CRESP	TargetSlide.OnsetToOnsetTime	RespWin.OnsetDelay	RespWin.OnsetTime	RespWin.DurationError	RespWin.RTTime	RespWin.ACC	RespWin.RT	RespWin.RESP	RespWin.CRESP	RespWin.OnsetToOnsetTime	Fixation2.OnsetDelay	Fixation2.OnsetTime	Fixation2.DurationError	Fixation2.OnsetToOnsetTime	NeutralPrimeList1	PrimeChoice	kol1	kol2	kol3	kol4	kol5	kol6	ErrorText	OverallRT	GoalRespInd1	GoalRespName1	GoalRespInd2	GoalRespName2	GoalRespInd3	GoalRespName3	GoalRespInd4	GoalRespName4	GoalRespInd5	GoalRespName5	GoalRespInd6	GoalRespName6	TBox1	TBox2	TBox3	TBox4	TBox5	TBox6	PracticeMode	BlockNumber	NextBlock0.RESP	NextBlock.RESP	StudioVersion	ExperimentVersion
1	1	Header_	1 ver1_main_procedure-3-1	1	Header	Header	1	LogLevel10	1 ver1_main_procedure	08/07/2015	16:19:16	07/08/2015 14:19	2.0.10.182	1	3	1	1	tg	21	mezczyzna	prawa	1 ver1_main_procedure-3-1	-1609811240	99.939																																																																																																										
2	2	InstrList_1	1 ver1_main_procedure-3-1	2	InstrProc	InstrList																			poproszony	planowal	zrozumiales	wykonal	1	poproszona	poproszony	planowala	planowal	zrozumialas	zrozumiales	wykonala	wykonal	1		1	{SPACE}	{SPACE}	l																																																																																							
3	3	TrainingList1_2	1 ver1_main_procedure-3-1	3	TrainProc	TrainingList1																																1	1	1				target_right.png	l	300	25																																																																																			
4	3	TrainingList1_1	1 ver1_main_procedure-3-1	4	TrainProc	TrainingList1																																1	1	2				target_left.png	d	150	25																																																																																			
5	3	TrainingList1_3	1 ver1_main_procedure-3-1	5	TrainProc	TrainingList1																																1	1	3				target_both.png	dl	450	25																																																																																			
6	3	TrainingList1_2	1 ver1_main_procedure-3-1	6	TrainProc	TrainingList1																																1	1	4				target_right.png	l	450	25																																																																																			
7	3	TrainingList1_3	1 ver1_main_procedure-3-1	7	TrainProc	TrainingList1																																1	1	5				target_both.png	dl	150	75																																																																																			
8	3	TrainingList1_3	1 ver1_main_procedure-3-1	8	TrainProc	TrainingList1																																1	1	6				target_both.png	dl	150	25																																																																																			
9	3	TrainingList1_2	1 ver1_main_procedure-3-1	9	TrainProc	TrainingList1																																1	1	7				target_right.png	l	450	25																																																																																			
10	3	TrainingList1_1	1 ver1_main_procedure-3-1	10	TrainProc	TrainingList1																																1	1	8				target_left.png	d	450	25																																																																																			
11	3	TrainingList1_1	1 ver1_main_procedure-3-1	11	TrainProc	TrainingList1																																1	1	9				target_left.png	d	150	75																																																																																			
12	2	TrainingList_1	1 ver1_main_procedure-3-1	12	TrainingProc1	TrainingList																																1	1	1																																																																																										
13	3	TrialList2_10	1 ver1_main_procedure-3-1	13	TrialProc1	TrialList2																																1	2	1								prime_right.png	target_both.png	right	color_blue.png	Free	dl	comp	150	75	1	292983	0	-1	13	291484	292983	292983	0	0	0	0	292983	292983	292982	0	0	20	3	293033	-1	293392	0	359	l	dl	270	20	293303	0	0	0	0			-293303	9	293403	-1	160																																		
14	3	TrialList2_11	1 ver1_main_procedure-3-1	14	TrialProc1	TrialList2																																1	2	2								prime_right.png	target_both.png	right	color_green.png	Free	dl	neut	450	25	0	295374	1	-1	13	293875	295375	295375	0	0	0	0	295374	295374	295374	0	1	20	3	295424	-1	295752	0	328	l	dl	261	11	295685	0	0	0	0			-295685	12	295765	-1	460	2	prime_right.png																																
15	3	TrialList2_2	1 ver1_main_procedure-3-1	15	TrialProc1	TrialList2																																1	2	3								prime_left.png	target_left.png	left	color_orange.png	Cued	d	neut	450	75	1	298036	0	-1	13	296537	298036	298036	0	0	0	0	298036	298036	298035	0	0	20	3	298086	-1	298432	1	346	d	d	260	10	298346	0	0	0	0			-298346	13	298446	-1	460	1	prime_left.png																																
16	3	TrialList2_7	1 ver1_main_procedure-3-1	16	TrialProc1	TrialList2																																1	2	4								prime_left.png	target_both.png	left	color_yellow.png	Free	dl	comp	300	25	1	300718	0	-1	13	299218	300718	300718	0	0	0	0	300718	300718	300717	0	0	20	3	300768	-1	301264	0	496	d	dl	260	10	301028	0	0	0	0			-301028	13	301278	-1	310																																		
17	3	TrialList2_7	1 ver1_main_procedure-3-1	17	TrialProc1	TrialList2																																1	2	5								prime_left.png	target_both.png	left	color_purple.png	Free	dl	comp	150	75	1	303399	0	-1	13	301900	303399	303399	0	0	0	0	303399	303399	303398	0	0	20	3	303449	-1	303840	0	391	l	dl	260	10	303709	0	0	0	0			-303709	8	303849	-1	160																																		
18	3	TrialList2_12	1 ver1_main_procedure-3-1	18	TrialProc1	TrialList2																																1	2	6								prime_left.png	target_both.png	right	color_yellow.png	Free	dl	incomp	300	25	1	305821	0	-1	13	304321	305821	305821	0	0	0	0	305821	305821	305820	0	0	20	3	305871	-1	306184	0	313	d	dl	260	10	306131	0	0	0	0			-306131	6	306191	-1	310																																		
19	3	TrialList2_9	1 ver1_main_procedure-3-1	19	TrialProc1	TrialList2																																1	2	7								prime_right.png	target_both.png	left	color_blue.png	Free	dl	incomp	450	25	1	308312	0	-1	13	306813	308312	308312	0	0	0	0	308312	308312	308311	0	0	20	3	308362	-999999	308584	0	222	l	dl	0	0	0	0	0	0	0			0	7	308592	-1	460																																		
20	3	TrialList2_10	1 ver1_main_procedure-3-1	20	TrialProc1	TrialList2																																1	2	8								prime_right.png	target_both.png	right	color_blue.png	Free	dl	comp	450	25	0	310863	1	-1	13	309364	310864	310864	0	0	0	1	310864	310863	310863	0	1	21	3	310914	-1	311224	0	310	l	dl	260	10	311174	0	0	0	0			-311174	9	311234	-1	460																																		
21	3	TrialList2_7	1 ver1_main_procedure-3-1	21	TrialProc1	TrialList2																																1	2	9								prime_left.png	target_both.png	left	color_yellow.png	Free	dl	comp	300	75	1	313505	0	-1	13	312006	313505	313505	0	0	0	0	313505	313505	313504	0	0	20	3	313555	-1	313873	0	318	d	dl	260	10	313815	0	0	0	0			-313815	12	313885	-1	311																																		
22	3	TrialList2_3	1 ver1_main_procedure-3-1	22	TrialProc1	TrialList2																																1	2	10								prime_right.png	target_left.png	left	color_red.png	Cued	d	incomp	300	75	1	316007	0	-1	13	314507	316007	316007	0	0	0	0	316007	316007	316006	0	0	20	3	316057	-1	316425	1	368	d	d	260	10	316317	0	0	0	0			-316317	12	316437	-1	310																																		
23	3	TrialList2_12	1 ver1_main_procedure-3-1	23	TrialProc1	TrialList2																																1	2	11								prime_left.png	target_both.png	right	color_purple.png	Free	dl	incomp	150	25	1	318558	0	-1	13	317059	318558	318558	0	0	0	0	318558	318558	318557	0	0	20	3	318608	-1	318945	0	337	l	dl	260	10	318868	0	0	0	0			-318868	13	318958	-1	160																																		
24	3	TrialList2_12	1 ver1_main_procedure-3-1	24	TrialProc1	TrialList2																																1	2	12								prime_left.png	target_both.png	right	color_yellow.png	Free	dl	incomp	300	25	0	320929	1	-1	13	319430	320930	320930	0	0	0	1	320930	320929	320929	0	1	20	3	320979	-1	321345	0	366	d	dl	261	11	321240	0	0	0	0			-321240	15	321360	-1	310																																		
25	3	TrialList2_12	1 ver1_main_procedure-3-1	25	TrialProc1	TrialList2																																1	2	13								prime_left.png	target_both.png	right	color_yellow.png	Free	dl	incomp	150	25	1	323481	0	-1	13	321982	323481	323481	0	0	0	0	323481	323481	323480	0	0	20	3	323531	-1	323841	0	310	d	dl	260	10	323791	0	0	0	0			-323791	10	323851	-1	160																																		
26	3	TrialList2_7	1 ver1_main_procedure-3-1	26	TrialProc1	TrialList2																																1	2	14								prime_left.png	target_both.png	left	color_purple.png	Free	dl	comp	450	25	1	325822	0	-1	13	324323	325822	325822	0	0	0	0	325822	325822	325821	0	0	20	3	325872	-999999	326113	0	241	l	dl	0	0	0	0	0	0	0			0	9	326122	-1	461																																		
27	3	TrialList2_9	1 ver1_main_procedure-3-1	27	TrialProc1	TrialList2																																1	2	15								prime_right.png	target_both.png	left	color_red.png	Free	dl	incomp	150	75	1	328394	0	-1	13	326894	328394	328394	0	0	0	0	328394	328394	328393	0	0	20	3	328444	-1	328713	0	269	d	dl	260	10	328704	0	0	0	0			-328704	11	328724	-1	160																																		
28	3	TrialList2_11	1 ver1_main_procedure-3-1	28	TrialProc1	TrialList2																																1	2	16								prime_right.png	target_both.png	right	color_orange.png	Free	dl	neut	150	75	1	330695	0	-1	13	329196	330695	330695	0	0	0	0	330695	330695	330694	0	0	20	3	330745	-1	331057	0	312	d	dl	260	10	331005	0	0	0	0			-331005	8	331065	-1	160	2	prime_right.png																																
29	3	TrialList2_9	1 ver1_main_procedure-3-1	29	TrialProc1	TrialList2																																1	2	17								prime_right.png	target_both.png	left	color_red.png	Free	dl	incomp	150	25	1	333037	0	-1	13	331537	333037	333037	0	0	0	0	333037	333037	333036	0	0	20	3	333087	-1	333345	0	258	d	dl	0	10	333347	-999999	0	0	0			0	10	333357	-1	160																																		
30	3	TrialList2_7	1 ver1_main_procedure-3-1	30	TrialProc1	TrialList2																																1	2	18								prime_left.png	target_both.png	left	color_purple.png	Free	dl	comp	150	25	1	335328	0	-1	13	333829	335328	335328	0	0	0	0	335328	335328	335327	0	0	20	3	335378	-999999	335553	0	175	l	dl	0	0	0	0	0	0	0			0	15	335568	-1	160																																		
31	3	TrialList2_10	1 ver1_main_procedure-3-1	31	TrialProc1	TrialList2																																1	2	19								prime_right.png	target_both.png	right	color_red.png	Free	dl	comp	450	75	1	337539	0	-1	13	336040	337539	337539	0	0	0	0	337539	337539	337538	0	0	20	3	337589	-999999	337769	0	180	d	dl	0	0	0	0	0	0	0			0	10	337779	-1	461																																		
32	3	TrialList2_11	1 ver1_main_procedure-3-1	32	TrialProc1	TrialList2																																1	2	20								prime_left.png	target_both.png	right	color_green.png	Free	dl	neut	150	75	1	340051	0	-1	13	338551	340051	340051	0	0	0	0	340051	340051	340050	0	0	20	3	340101	-999999	340321	0	220	l	dl	0	0	0	0	0	0	0			0	9	340331	-1	160	1	prime_left.png																																
33	3	TrialList2_10	1 ver1_main_procedure-3-1	33	TrialProc1	TrialList2																																1	2	21								prime_right.png	target_both.png	right	color_red.png	Free	dl	comp	300	25	1	342302	0	-1	13	340803	342302	342302	0	0	0	0	342302	342302	342301	0	0	20	3	342352	-999999	342521	0	169	d	dl	0	0	0	0	0	0	0			0	10	342532	-1	310																																		
34	3	TrialList2_12	1 ver1_main_procedure-3-1	34	TrialProc1	TrialList2																																1	2	22								prime_left.png	target_both.png	right		Free	dl	incomp	450	75	0	344653	1	-1	13	343154	344654	344654	0	0	0	1	344654	344653	344653	0	1	20	3	344703	-1	0	0	0		dl	261	11	344964	0	0	0	0			1500	0	346464	-1	461																																		
35	3	TrialList2_11	1 ver1_main_procedure-3-1	35	TrialProc1	TrialList2																																1	2	23								prime_right.png	target_both.png	right	color_orange.png	Free	dl	neut	300	25	1	348736	0	-1	13	347237	348736	348736	0	0	0	0	348736	348736	348735	0	0	20	3	348786	-1	349065	0	279	d	dl	260	10	349046	0	0	0	0			-349046	10	349076	-1	310	2	prime_right.png																																
36	3	TrialList2_11	1 ver1_main_procedure-3-1	36	TrialProc1	TrialList2																																1	2	24								prime_left.png	target_both.png	right	color_orange.png	Free	dl	neut	450	25	1	351197	0	-1	13	349698	351197	351197	0	0	0	0	351197	351197	351196	0	0	20	3	351247	-999999	351465	0	218	d	dl	0	0	0	0	0	0	0			0	11	351477	-1	461	1	prime_left.png																																
37	3	TrialList2_1	1 ver1_main_procedure-3-1	37	TrialProc1	TrialList2																																1	2	25								prime_left.png	target_left.png	left		Cued	d	comp	300	75	1	353749	0	-1	13	352250	353749	353749	0	0	0	0	353749	353749	353748	0	0	20	3	353799	-999999	353985	0	186	l	d	0	0	0	0	0	0	0			0	13	353999	-1	310																																		
38	3	TrialList2_8	1 ver1_main_procedure-3-1	38	TrialProc1	TrialList2																																1	2	26								prime_right.png	target_both.png	left	color_green.png	Free	dl	neut	450	25	1	356120	0	-1	13	354621	356120	356120	0	0	0	0	356120	356120	356119	0	0	20	3	356170	-1	356513	0	343	l	dl	260	10	356430	1	0	0	0			-356430	6	356520	-1	461	2	prime_right.png																																
39	3	TrialList2_8	1 ver1_main_procedure-3-1	39	TrialProc1	TrialList2																																1	2	27								prime_left.png	target_both.png	left	color_orange.png	Free	dl	neut	450	75	1	358792	0	-1	13	357292	358792	358792	0	0	0	0	358792	358792	358791	0	0	20	3	358842	-1	359289	0	447	d	dl	260	10	359102	0	0	0	0			-359102	12	359302	-1	460	1	prime_left.png																																
40	3	TrialList2_9	1 ver1_main_procedure-3-1	40	TrialProc1	TrialList2																																1	2	28								prime_right.png	target_both.png	left	color_blue.png	Free	dl	incomp	300	75	0	361573	0	-1	13	360074	361573	361573	0	0	0	0	361573	361573	361573	0	0	20	3	361623	-1	361889	0	266	l	dl	260	10	361883	1	0	0	0			-361883	13	361903	-1	311																																		
41	3	TrialList2_11	1 ver1_main_procedure-3-1	41	TrialProc1	TrialList2																																1	2	29								prime_right.png	target_both.png	right	color_green.png	Free	dl	neut	450	25	1	364025	0	-1	13	362527	364025	364025	0	0	0	0	364025	364025	364024	0	0	20	3	364075	-1	364457	0	382	l	dl	260	10	364335	0	0	0	0			-364335	7	364465	-1	460	2	prime_right.png																																
42	3	TrialList2_11	1 ver1_main_procedure-3-1	42	TrialProc1	TrialList2																																1	2	30								prime_left.png	target_both.png	right	color_orange.png	Free	dl	neut	450	25	1	366736	0	-1	13	365237	366736	366736	0	0	0	0	366736	366736	366735	0	0	20	3	366786	-1	367089	0	303	d	dl	260	10	367046	1	0	0	0			-367046	7	367097	-1	460	1	prime_left.png																																
43	3	TrialList2_5	1 ver1_main_procedure-3-1	43	TrialProc1	TrialList2																																1	2	31								prime_right.png	target_right.png	right	color_green.png	Cued	l	neut	450	75	1	369368	0	-1	13	367869	369368	369368	0	0	0	0	369368	369368	369367	0	0	20	3	369418	-999999	369577	1	159	l	l	0	0	0	0	0	0	0			0	10	369588	-1	460	2	prime_right.png																																
44	3	TrialList2_12	1 ver1_main_procedure-3-1	44	TrialProc1	TrialList2																																1	2	32								prime_left.png	target_both.png	right	color_purple.png	Free	dl	incomp	300	75	1	371859	0	-1	13	370360	371859	371859	0	0	0	0	371859	371859	371858	0	0	20	3	371909	-1	372241	0	332	l	dl	260	10	372169	1	0	0	0			-372169	8	372250	-1	310																																		
45	3	TrialList2_8	1 ver1_main_procedure-3-1	45	TrialProc1	TrialList2																																1	2	33								prime_left.png	target_both.png	left	color_orange.png	Free	dl	neut	150	25	1	374371	0	-1	13	372872	374371	374371	0	0	0	0	374371	374371	374370	0	0	20	3	374421	-999999	374649	0	228	d	dl	0	0	0	0	0	0	0			0	11	374661	-1	160	1	prime_left.png																																
46	3	TrialList2_10	1 ver1_main_procedure-3-1	46	TrialProc1	TrialList2																																1	2	34								prime_right.png	target_both.png	right	color_red.png	Free	dl	comp	450	75	1	376632	0	-1	13	375133	376632	376632	0	0	0	0	376632	376632	376631	0	0	20	3	376682	-999999	376929	0	247	d	dl	0	0	0	0	0	0	0			0	12	376942	-1	461																																		
47	3	TrialList2_9	1 ver1_main_procedure-3-1	47	TrialProc1	TrialList2																																1	2	35								prime_right.png	target_both.png	left	color_blue.png	Free	dl	incomp	150	75	1	379214	0	-1	13	377714	379214	379214	0	0	0	0	379214	379214	379213	0	0	20	3	379264	-999999	379489	0	225	l	dl	0	0	0	0	0	0	0			0	14	379504	-1	160																																		
48	3	TrialList2_1	1 ver1_main_procedure-3-1	48	TrialProc1	TrialList2																																1	2	36								prime_left.png	target_left.png	left		Cued	d	comp	150	25	1	381475	0	-1	13	379976	381475	381475	0	0	0	0	381475	381475	381474	0	0	20	3	381525	-1	381801	0	276	l	d	260	10	381785	0	0	0	0			-381785	13	381815	-1	160																																		
49	3	TrialList2_7	1 ver1_main_procedure-3-1	49	TrialProc1	TrialList2																																1	2	37								prime_left.png	target_both.png	left	color_yellow.png	Free	dl	comp	300	25	1	383786	1	-1	13	382287	383787	383787	0	0	0	1	383787	383786	383785	0	1	20	3	383836	-1	384145	0	309	d	dl	261	11	384097	0	0	0	0			-384097	11	384157	-1	310																																		
50	3	TrialList2_5	1 ver1_main_procedure-3-1	50	TrialProc1	TrialList2																																1	2	38								prime_right.png	target_right.png	right	color_green.png	Cued	l	neut	300	25	1	386278	0	-1	13	384779	386278	386278	0	0	0	0	386278	386278	386277	0	0	20	3	386328	-999999	386569	1	241	l	l	0	0	0	0	0	0	0			0	8	386578	-1	310	2	prime_right.png																																
51	3	TrialList2_8	1 ver1_main_procedure-3-1	51	TrialProc1	TrialList2																																1	2	39								prime_left.png	target_both.png	left		Free	dl	neut	300	75	1	388699	1	-1	13	387200	388700	388700	0	0	0	0	388699	388699	388698	0	1	20	3	388749	-1	0	0	0		dl	260	10	389009	1	0	0	0			1501	1	390510	-1	310	1	prime_left.png																																
52	3	TrialList2_10	1 ver1_main_procedure-3-1	52	TrialProc1	TrialList2																																1	2	40								prime_right.png	target_both.png	right	color_red.png	Free	dl	comp	150	25	1	392632	0	-1	13	391132	392632	392632	0	0	0	0	392632	392632	392631	0	0	20	3	392682	-1	393066	0	384	d	dl	260	10	392942	0	0	0	0			-392942	6	393072	-1	160																																		
53	3	TrialList2_10	1 ver1_main_procedure-3-1	53	TrialProc1	TrialList2																																1	2	41								prime_right.png	target_both.png	right	color_blue.png	Free	dl	comp	450	25	1	395043	0	-1	13	393544	395043	395043	0	0	0	0	395043	395043	395042	0	0	20	3	395093	-1	395426	0	333	l	dl	260	10	395353	0	0	0	0			-395353	7	395433	-1	460																																		
54	3	TrialList2_4	1 ver1_main_procedure-3-1	54	TrialProc1	TrialList2																																1	2	42								prime_right.png	target_right.png	right	color_blue.png	Cued	l	comp	150	25	1	397705	0	-1	13	396205	397705	397705	0	0	0	0	397705	397705	397704	0	0	20	3	397755	-1	398082	1	327	l	l	260	10	398015	0	0	0	0			-398015	13	398095	-1	160																																		
55	3	TrialList2_10	1 ver1_main_procedure-3-1	55	TrialProc1	TrialList2																																1	2	43								prime_right.png	target_both.png	right	color_red.png	Free	dl	comp	150	75	1	400066	0	-1	13	398567	400066	400066	0	0	0	0	400066	400066	400065	0	0	20	3	400116	-1	400546	0	430	d	dl	260	10	400376	0	0	0	0			-400376	10	400556	-1	160																																		
56	3	TrialList2_12	1 ver1_main_procedure-3-1	56	TrialProc1	TrialList2																																1	2	44								prime_left.png	target_both.png	right	color_purple.png	Free	dl	incomp	450	75	0	402527	1	-1	13	401028	402528	402528	0	0	0	0	402527	402527	402527	0	1	20	3	402577	-1	402874	0	297	l	dl	261	11	402838	0	0	0	0			-402838	14	402888	-1	460																																		
57	3	TrialList2_6	1 ver1_main_procedure-3-1	57	TrialProc1	TrialList2																																1	2	45								prime_left.png	target_right.png	right	color_purple.png	Cued	l	incomp	300	75	1	405159	0	-1	13	403660	405159	405159	0	0	0	0	405159	405159	405158	0	0	20	3	405209	-1	405562	1	353	l	l	260	10	405469	0	0	0	0			-405469	7	405569	-1	310																																		
58	3	TrialList2_9	1 ver1_main_procedure-3-1	58	TrialProc1	TrialList2																																1	2	46								prime_right.png	target_both.png	left	color_blue.png	Free	dl	incomp	450	25	1	407690	1	-1	13	406191	407691	407691	0	0	0	0	407690	407690	407689	0	1	20	3	407740	-1	408138	0	398	l	dl	261	11	408001	0	0	0	0			-408001	13	408151	-1	460																																		
59	3	TrialList2_11	1 ver1_main_procedure-3-1	59	TrialProc1	TrialList2																																1	2	47								prime_right.png	target_both.png	right	color_green.png	Free	dl	neut	450	75	1	410422	0	-1	13	408923	410422	410422	0	0	0	0	410422	410422	410421	0	0	20	3	410472	-1	410738	0	266	l	dl	260	10	410732	0	0	0	0			-410732	14	410752	-1	460	2	prime_right.png																																
60	3	TrialList2_7	1 ver1_main_procedure-3-1	60	TrialProc1	TrialList2																																1	2	48								prime_left.png	target_both.png	left	color_purple.png	Free	dl	comp	450	25	1	413024	0	-1	13	411524	413024	413024	0	0	0	0	413024	413024	413023	0	0	20	3	413074	-1	413410	0	336	l	dl	260	10	413334	0	0	0	0			-413334	14	413424	-1	460																																		
61	3	TrialList2_3	1 ver1_main_procedure-3-1	61	TrialProc1	TrialList2																																1	2	49								prime_right.png	target_left.png	left		Cued	d	incomp	300	25	1	415695	0	-1	13	414196	415695	415695	0	0	0	0	415695	415695	415694	0	0	20	3	415745	-1	416058	0	313	l	d	260	10	416005	0	0	0	0			-416005	7	416065	-1	310																																		
62	3	TrialList2_6	1 ver1_main_procedure-3-1	62	TrialProc1	TrialList2																																1	2	50								prime_left.png	target_right.png	right	color_purple.png	Cued	l	incomp	150	25	1	418187	0	-1	13	416687	418187	418187	0	0	0	0	418187	418187	418186	0	0	20	3	418237	-999999	418482	1	245	l	l	0	0	0	0	0	0	0			0	14	418497	-1	160																																		
63	3	TrialList2_2	1 ver1_main_procedure-3-1	63	TrialProc1	TrialList2																																1	2	51								prime_left.png	target_left.png	left	color_orange.png	Cued	d	neut	150	25	1	420468	0	-1	13	418969	420468	420468	0	0	0	0	420468	420468	420467	0	0	20	3	420518	-1	420794	1	276	d	d	260	10	420778	0	0	0	0			-420778	13	420808	-1	160	1	prime_left.png																																
64	3	TrialList2_8	1 ver1_main_procedure-3-1	64	TrialProc1	TrialList2																																1	2	52								prime_right.png	target_both.png	left	color_orange.png	Free	dl	neut	450	25	1	422779	0	-1	13	421280	422779	422779	0	0	0	0	422779	422779	422778	0	0	20	3	422829	-1	423378	0	549	d	dl	260	10	423089	1	0	0	0			-423089	11	423390	-1	460	2	prime_right.png																																
65	3	TrialList2_9	1 ver1_main_procedure-3-1	65	TrialProc1	TrialList2																																1	2	53								prime_right.png	target_both.png	left	color_red.png	Free	dl	incomp	300	75	1	425661	0	-1	13	424162	425661	425661	0	0	0	0	425661	425661	425660	0	0	20	3	425711	-1	426194	0	483	d	dl	260	10	425971	0	0	0	0			-425971	6	426201	-1	310																																		
66	3	TrialList2_8	1 ver1_main_procedure-3-1	66	TrialProc1	TrialList2																																1	2	54								prime_left.png	target_both.png	left	color_green.png	Free	dl	neut	300	25	1	428323	0	-1	13	426823	428323	428323	0	0	0	0	428323	428323	428322	0	0	19	4	428373	-1	428642	0	269	l	dl	260	10	428633	0	0	0	0			-428633	10	428653	-1	310	1	prime_left.png																																
67	3	TrialList2_7	1 ver1_main_procedure-3-1	67	TrialProc1	TrialList2																																1	2	55								prime_left.png	target_both.png	left	color_yellow.png	Free	dl	comp	300	25	1	430774	0	-1	13	429275	430774	430774	0	0	0	0	430774	430774	430773	0	0	20	3	430824	-999999	431066	0	242	d	dl	0	0	0	0	0	0	0			0	7	431074	-1	310																																		
68	3	TrialList2_6	1 ver1_main_procedure-3-1	68	TrialProc1	TrialList2																																1	2	56								prime_left.png	target_right.png	right	color_purple.png	Cued	l	incomp	450	75	1	433195	1	-1	13	431696	433196	433196	0	0	0	0	433195	433195	433194	0	1	20	3	433245	-999999	433490	1	245	l	l	0	0	0	0	0	0	0			0	15	433506	-1	460																																		
69	3	TrialList2_12	1 ver1_main_procedure-3-1	69	TrialProc1	TrialList2																																1	2	57								prime_left.png	target_both.png	right	color_yellow.png	Free	dl	incomp	300	75	1	435777	0	-1	13	434278	435777	435777	0	0	0	0	435777	435777	435776	0	0	20	3	435827	-1	436090	0	263	d	dl	260	10	436087	0	0	0	0			-436087	6	436097	-1	310																																		
70	3	TrialList2_4	1 ver1_main_procedure-3-1	70	TrialProc1	TrialList2																																1	2	58								prime_right.png	target_right.png	right	color_blue.png	Cued	l	comp	150	25	1	438218	0	-1	13	436719	438218	438219	0	0	0	0	438218	438218	438217	0	0	20	3	438268	-1	438562	1	294	l	l	260	10	438528	1	0	0	0			-438528	5	438568	-1	161																																		
71	3	TrialList2_4	1 ver1_main_procedure-3-1	71	TrialProc1	TrialList2																																1	2	59								prime_right.png	target_right.png	right		Cued	l	comp	450	25	1	440540	0	-1	13	439040	440540	440540	0	0	0	0	440540	440540	440539	0	0	20	3	440590	-999999	440826	0	236	d	l	0	0	0	0	0	0	0			0	13	440840	-1	460																																		
72	3	TrialList2_7	1 ver1_main_procedure-3-1	72	TrialProc1	TrialList2																																1	2	60								prime_left.png	target_both.png	left	color_purple.png	Free	dl	comp	450	75	1	443111	0	-1	13	441612	443111	443112	0	0	0	0	443111	443111	443110	0	0	20	3	443161	-1	443412	0	251	l	dl	0	10	443421	-999999	0	0	0			0	9	443431	-1	461																																		
73	3	TrialList2_9	1 ver1_main_procedure-3-1	73	TrialProc1	TrialList2																																1	2	61								prime_right.png	target_both.png	left	color_red.png	Free	dl	incomp	150	75	1	445703	0	-1	13	444203	445703	445703	0	0	0	0	445703	445703	445702	0	0	20	3	445753	-1	446004	0	251	d	dl	0	10	446013	-999999	0	0	0			0	10	446023	-1	160																																		
74	3	TrialList2_3	1 ver1_main_procedure-3-1	74	TrialProc1	TrialList2																																1	2	62								prime_right.png	target_left.png	left	color_red.png	Cued	d	incomp	450	75	1	447994	0	-1	13	446495	447994	447994	0	0	0	0	447994	447994	447993	0	0	20	3	448044	-1	448402	1	358	d	d	260	10	448304	0	0	0	0			-448304	11	448414	-1	461																																		
75	3	TrialList2_8	1 ver1_main_procedure-3-1	75	TrialProc1	TrialList2																																1	2	63								prime_right.png	target_both.png	left	color_green.png	Free	dl	neut	300	25	1	450686	0	-1	13	449187	450686	450686	0	0	0	0	450686	450686	450685	0	0	20	3	450736	-1	451066	0	330	l	dl	260	10	450996	0	0	0	0			-450996	9	451076	-1	310	2	prime_right.png																																
76	3	TrialList2_12	1 ver1_main_procedure-3-1	76	TrialProc1	TrialList2																																1	2	64								prime_left.png	target_both.png	right	color_purple.png	Free	dl	incomp	300	75	1	453197	0	-1	13	451698	453197	453197	0	0	0	0	453197	453197	453196	0	0	20	3	453247	-1	453498	0	251	l	dl	0	10	453507	-999999	0	0	0			0	9	453517	-1	310																																		
77	3	TrialList2_11	1 ver1_main_procedure-3-1	77	TrialProc1	TrialList2																																1	2	65								prime_left.png	target_both.png	right	color_green.png	Free	dl	neut	450	75	1	455639	0	-1	13	454139	455639	455639	0	0	0	0	455639	455639	455638	0	0	20	3	455689	-1	456050	0	361	l	dl	260	10	455949	0	0	0	0			-455949	8	456059	-1	460	1	prime_left.png																																
78	3	TrialList2_9	1 ver1_main_procedure-3-1	78	TrialProc1	TrialList2																																1	2	66								prime_right.png	target_both.png	left	color_blue.png	Free	dl	incomp	150	75	1	458330	0	-1	13	456831	458330	458330	0	0	0	0	458330	458330	458329	0	0	20	3	458380	-1	458802	0	422	l	dl	260	10	458640	0	0	0	0			-458640	7	458810	-1	161																																		
79	3	TrialList2_8	1 ver1_main_procedure-3-1	79	TrialProc1	TrialList2																																1	2	67								prime_right.png	target_both.png	left	color_green.png	Free	dl	neut	300	75	1	460782	0	-1	13	459282	460782	460782	0	0	0	0	460782	460782	460781	0	0	20	3	460832	-1	461226	0	394	l	dl	260	10	461092	0	0	0	0			-461092	15	461242	-1	310	2	prime_right.png																																
80	3	TrialList2_10	1 ver1_main_procedure-3-1	80	TrialProc1	TrialList2																																1	2	68								prime_right.png	target_both.png	right	color_blue.png	Free	dl	comp	450	25	1	463363	0	-1	13	461864	463363	463363	0	0	0	0	463363	463363	463362	0	0	20	3	463413	-1	463682	0	269	l	dl	260	10	463673	0	0	0	0			-463673	10	463693	-1	461																																		
81	3	TrialList2_1	1 ver1_main_procedure-3-1	81	TrialProc1	TrialList2																																1	2	69								prime_left.png	target_left.png	left		Cued	d	comp	300	75	1	465965	0	-1	13	464465	465965	465965	0	0	0	0	465965	465965	465964	0	0	20	3	466015	-999999	466259	0	244	l	d	0	0	0	0	0	0	0			0	16	466275	-1	310																																		
82	3	TrialList2_8	1 ver1_main_procedure-3-1	82	TrialProc1	TrialList2																																1	2	70								prime_left.png	target_both.png	left	color_orange.png	Free	dl	neut	150	25	1	468396	0	-1	13	466897	468396	468396	0	0	0	0	468396	468396	468395	0	0	20	3	468446	-1	468762	0	316	d	dl	260	10	468706	0	0	0	0			-468706	13	468776	-1	160	1	prime_left.png																																
83	3	TrialList2_2	1 ver1_main_procedure-3-1	83	TrialProc1	TrialList2																																1	2	71								prime_right.png	target_left.png	left		Cued	d	neut	450	25	0	470747	1	-1	13	469248	470748	470748	0	0	0	1	470748	470747	470747	0	1	20	3	470797	-999999	471027	0	230	l	d	0	0	0	0	0	0	0			0	11	471038	-1	460	2	prime_right.png																																
84	3	TrialList2_5	1 ver1_main_procedure-3-1	84	TrialProc1	TrialList2																																1	2	72								prime_left.png	target_right.png	right	color_green.png	Cued	l	neut	150	75	1	473309	0	-1	13	471810	473309	473309	0	0	0	0	473309	473309	473308	0	0	20	3	473359	-1	473691	1	332	l	l	260	10	473619	0	0	0	0			-473619	8	473699	-1	160	1	prime_left.png																																
85	3	Ocena_1	1 ver1_main_procedure-3-1	85	DragProc	Ocena																																1	2	1																																																											color_red.png	color_blue.png	color_orange.png	color_green.png	color_yellow.png	color_purple.png		13487	4	color_green.png	5	color_yellow.png	1	color_red.png	2	color_blue.png	3	color_orange.png	6	color_purple.png												
86	3	Ocena_2	1 ver1_main_procedure-3-1	86	EnterProc	Ocena																																1	2	2																																																																				color_green.png		color_yellow.png		color_red.png		color_blue.png		color_orange.png		color_purple.png	20	50	60	65	70	71						
87	2	BlockList_5	1 ver1_main_procedure-3-1	87	BlockProc2	BlockList																																1	2	1																																																																																					no		{SPACE}	d		
88	3	TrialList2_12	1 ver1_main_procedure-3-1	88	TrialProc1	TrialList2																																2	3	73								prime_left.png	target_both.png	right	color_orange.png	Free	dl	incomp	450	25	1	610059	1	-1	13	608560	610060	610060	0	0	0	0	610059	610059	610058	0	1	20	3	610109	-1	610580	0	471	d	dl	260	10	610369	1	0	0	0			-610369	9	610590	-1	460																																		
89	3	TrialList2_10	1 ver1_main_procedure-3-1	89	TrialProc1	TrialList2																																2	3	74								prime_right.png	target_both.png	right	color_yellow.png	Free	dl	comp	150	75	1	612861	0	-1	13	611362	612861	612861	0	0	0	0	612861	612861	612860	0	0	20	3	612911	-1	613220	0	309	d	dl	260	10	613171	0	0	0	0			-613171	10	613231	-1	160																																		
90	3	TrialList2_4	1 ver1_main_procedure-3-1	90	TrialProc1	TrialList2																																2	3	75								prime_right.png	target_right.png	right	color_purple.png	Cued	l	comp	300	75	1	615202	0	-1	13	613703	615202	615202	0	0	0	0	615202	615202	615201	0	0	20	3	615252	-1	615588	1	336	l	l	260	10	615512	1	0	0	0			-615512	13	615602	-1	311																																		
91	3	TrialList2_5	1 ver1_main_procedure-3-1	91	TrialProc1	TrialList2																																2	3	76								prime_right.png	target_right.png	right	color_red.png	Cued	l	neut	150	25	1	617724	0	-1	13	616225	617724	617724	0	0	0	0	617724	617724	617723	0	0	20	3	617774	-999999	617972	1	198	l	l	0	0	0	0	0	0	0			0	11	617984	-1	160	2	prime_right.png																																
92	3	TrialList2_9	1 ver1_main_procedure-3-1	92	TrialProc1	TrialList2																																2	3	77								prime_right.png	target_both.png	left	color_yellow.png	Free	dl	incomp	150	75	1	619955	0	-1	13	618456	619955	619955	0	0	0	0	619955	619955	619954	0	0	20	3	620005	-1	620300	0	295	d	dl	260	10	620265	0	0	0	0			-620265	14	620315	-1	160																																		
93	3	TrialList2_8	1 ver1_main_procedure-3-1	93	TrialProc1	TrialList2																																2	3	78								prime_left.png	target_both.png	left	color_red.png	Free	dl	neut	450	25	0	622286	1	-1	13	620787	622287	622287	0	0	0	1	622287	622286	622286	0	1	20	3	622336	-999999	622516	0	180	l	dl	0	0	0	0	0	0	0			0	10	622527	-1	460	1	prime_left.png																																
94	3	TrialList2_10	1 ver1_main_procedure-3-1	94	TrialProc1	TrialList2																																2	3	79								prime_right.png	target_both.png	right	color_purple.png	Free	dl	comp	450	75	1	624798	0	-1	13	623299	624798	624798	0	0	0	0	624798	624798	624797	0	0	20	3	624848	-999999	624972	0	124	l	dl	0	0	0	0	0	0	0			0	15	624988	-1	460																																		
95	3	TrialList2_7	1 ver1_main_procedure-3-1	95	TrialProc1	TrialList2																																2	3	80								prime_left.png	target_both.png	left	color_orange.png	Free	dl	comp	450	25	1	627259	1	-1	13	625760	627260	627260	0	0	0	0	627259	627259	627258	0	1	20	3	627309	-1	627588	0	279	d	dl	261	11	627570	0	0	0	0			-627570	11	627600	-1	460																																		
96	3	TrialList2_9	1 ver1_main_procedure-3-1	96	TrialProc1	TrialList2																																2	3	81								prime_right.png	target_both.png	left	color_purple.png	Free	dl	incomp	450	75	1	629871	0	-1	13	628372	629871	629871	0	0	0	0	629871	629871	629870	0	0	20	3	629921	-999999	630132	0	211	l	dl	0	0	0	0	0	0	0			0	8	630141	-1	460																																		
97	3	TrialList2_6	1 ver1_main_procedure-3-1	97	TrialProc1	TrialList2																																2	3	82								prime_left.png	target_right.png	right	color_green.png	Cued	l	incomp	150	25	1	632412	0	-1	13	630913	632412	632413	0	0	0	0	632412	632412	632411	0	0	20	3	632462	-1	632805	1	343	l	l	261	11	632723	0	0	0	0			-632723	8	632813	-1	160																																		
98	3	TrialList2_11	1 ver1_main_procedure-3-1	98	TrialProc1	TrialList2																																2	3	83								prime_right.png	target_both.png	right	color_blue.png	Free	dl	neut	300	75	1	634784	0	-1	13	633285	634784	634784	0	0	0	0	634784	634784	634783	0	0	20	3	634834	-1	635149	0	315	d	dl	260	10	635094	0	0	0	0			-635094	15	635164	-1	310	2	prime_right.png																																
99	3	TrialList2_9	1 ver1_main_procedure-3-1	99	TrialProc1	TrialList2																																2	3	84								prime_right.png	target_both.png	left	color_purple.png	Free	dl	incomp	450	25	1	637285	0	-1	13	635786	637285	637285	0	0	0	0	637285	637285	637284	0	0	20	3	637335	-1	637645	0	310	l	dl	260	10	637595	1	0	0	0			-637595	10	637655	-1	461																																		
100	3	TrialList2_1	1 ver1_main_procedure-3-1	100	TrialProc1	TrialList2																																2	3	85								prime_left.png	target_left.png	left	color_orange.png	Cued	d	comp	450	75	1	639927	0	-1	13	638428	639927	639927	0	0	0	0	639927	639927	639926	0	0	20	3	639977	-999999	640109	1	132	d	d	0	0	0	0	0	0	0			0	8	640117	-1	460																																		
101	3	TrialList2_10	1 ver1_main_procedure-3-1	101	TrialProc1	TrialList2																																2	3	86								prime_right.png	target_both.png	right	color_yellow.png	Free	dl	comp	150	75	1	642388	0	-1	13	640889	642388	642388	0	0	0	0	642388	642388	642387	0	0	20	3	642438	-1	642757	0	319	d	dl	260	10	642698	1	0	0	0			-642698	11	642768	-1	161																																		
102	3	TrialList2_11	1 ver1_main_procedure-3-1	102	TrialProc1	TrialList2																																2	3	87								prime_left.png	target_both.png	right	color_blue.png	Free	dl	neut	300	25	1	644740	0	-1	13	643240	644740	644740	0	0	0	0	644740	644740	644739	0	0	20	3	644790	-1	645141	0	351	d	dl	260	10	645050	0	0	0	0			-645050	9	645150	-1	310	1	prime_left.png																																
103	3	TrialList2_10	1 ver1_main_procedure-3-1	103	TrialProc1	TrialList2																																2	3	88								prime_right.png	target_both.png	right	color_yellow.png	Free	dl	comp	300	25	1	647271	0	-1	13	645772	647271	647271	0	0	0	0	647271	647271	647270	0	0	20	3	647321	-999999	647533	0	212	d	dl	0	0	0	0	0	0	0			0	8	647541	-1	310																																		
104	3	TrialList2_9	1 ver1_main_procedure-3-1	104	TrialProc1	TrialList2																																2	3	89								prime_right.png	target_both.png	left	color_purple.png	Free	dl	incomp	450	25	0	649662	1	-1	13	648163	649663	649663	0	0	0	1	649663	649662	649662	0	1	21	3	649713	-1	650037	0	324	l	dl	260	10	649973	0	0	0	0			-649973	6	650043	-1	460																																		
105	3	TrialList2_9	1 ver1_main_procedure-3-1	105	TrialProc1	TrialList2																																2	3	90								prime_right.png	target_both.png	left	color_purple.png	Free	dl	incomp	300	75	1	652314	0	-1	13	650815	652314	652314	0	0	0	0	652314	652314	652313	0	0	20	3	652364	-1	652781	0	417	l	dl	260	10	652624	0	0	0	0			-652624	12	652794	-1	310																																		
106	3	TrialList2_7	1 ver1_main_procedure-3-1	106	TrialProc1	TrialList2																																2	3	91								prime_left.png	target_both.png	left	color_orange.png	Free	dl	comp	150	75	1	654916	0	-1	13	653416	654916	654916	0	0	0	0	654916	654916	654915	0	0	20	3	654966	-1	655277	0	311	d	dl	260	10	655226	0	0	0	0			-655226	8	655286	-1	160																																		
107	3	TrialList2_7	1 ver1_main_procedure-3-1	107	TrialProc1	TrialList2																																2	3	92								prime_left.png	target_both.png	left	color_green.png	Free	dl	comp	300	75	1	657257	0	-1	13	655758	657257	657257	0	0	0	0	657257	657257	657256	0	0	20	3	657307	-999999	657493	0	186	l	dl	0	0	0	0	0	0	0			0	14	657507	-1	310																																		
108	3	TrialList2_7	1 ver1_main_procedure-3-1	108	TrialProc1	TrialList2																																2	3	93								prime_left.png	target_both.png	left	color_orange.png	Free	dl	comp	150	75	1	659628	0	-1	13	658129	659628	659629	0	0	0	0	659628	659628	659627	0	0	20	3	659678	-1	661373	0	1695	d	dl	261	11	659939	0	0	0	0			-659939	5	661379	-1	160																																		
109	3	TrialList2_3	1 ver1_main_procedure-3-1	109	TrialProc1	TrialList2																																2	3	94								prime_right.png	target_left.png	left		Cued	d	incomp	450	25	1	663351	0	-1	13	661851	663351	663351	0	0	0	0	663351	663351	663350	0	0	20	3	663401	-999999	663621	0	220	l	d	0	0	0	0	0	0	0			0	9	663631	-1	460																																		
110	3	TrialList2_11	1 ver1_main_procedure-3-1	110	TrialProc1	TrialList2																																2	3	95								prime_right.png	target_both.png	right	color_red.png	Free	dl	neut	450	25	1	665902	0	-1	13	664403	665902	665902	0	0	0	0	665902	665902	665901	0	0	20	3	665952	-1	666429	0	477	l	dl	260	10	666212	0	0	0	0			-666212	12	666442	-1	461	2	prime_right.png																																
111	3	TrialList2_6	1 ver1_main_procedure-3-1	111	TrialProc1	TrialList2																																2	3	96								prime_left.png	target_right.png	right	color_green.png	Cued	l	incomp	450	75	1	668714	0	-1	13	667215	668714	668714	0	0	0	0	668714	668714	668713	0	0	20	3	668764	-999999	668981	1	217	l	l	0	0	0	0	0	0	0			0	12	668994	-1	460																																		
112	3	TrialList2_10	1 ver1_main_procedure-3-1	112	TrialProc1	TrialList2																																2	3	97								prime_right.png	target_both.png	right	color_purple.png	Free	dl	comp	300	75	1	671265	0	-1	13	669766	671265	671265	0	0	0	0	671265	671265	671264	0	0	20	3	671315	-1	671717	0	402	l	dl	260	10	671575	1	0	0	0			-671575	7	671725	-1	311																																		
113	3	TrialList2_3	1 ver1_main_procedure-3-1	113	TrialProc1	TrialList2																																2	3	98								prime_right.png	target_left.png	left		Cued	d	incomp	300	75	1	673847	0	-1	13	672348	673847	673847	0	0	0	0	673847	673847	673846	0	0	20	3	673897	-1	0	0	0		d	260	10	674157	0	0	0	0			1501	1	675658	-1	310																																		
114	3	TrialList2_12	1 ver1_main_procedure-3-1	114	TrialProc1	TrialList2																																2	3	99								prime_left.png	target_both.png	right	color_green.png	Free	dl	incomp	300	75	1	677779	0	-1	13	676280	677779	677779	0	0	0	0	677779	677779	677778	0	0	20	3	677829	-999999	678061	0	232	l	dl	0	0	0	0	0	0	0			0	7	678069	-1	310																																		
115	3	TrialList2_8	1 ver1_main_procedure-3-1	115	TrialProc1	TrialList2																																2	3	100								prime_left.png	target_both.png	left	color_blue.png	Free	dl	neut	300	25	0	680190	1	-1	13	678691	680191	680191	0	0	0	0	680190	680190	680190	0	1	20	3	680240	-1	680749	0	509	d	dl	261	11	680501	0	0	0	0			-680501	11	680761	-1	310	1	prime_left.png																																
116	3	TrialList2_1	1 ver1_main_procedure-3-1	116	TrialProc1	TrialList2																																2	3	101								prime_left.png	target_left.png	left		Cued	d	comp	450	75	1	682882	0	-1	13	681383	682882	682882	0	0	0	0	682882	682882	682881	0	0	20	3	682932	-1	683205	0	273	l	d	260	10	683192	0	0	0	0			-683192	6	683212	-1	460																																		
117	3	TrialList2_11	1 ver1_main_procedure-3-1	117	TrialProc1	TrialList2																																2	3	102								prime_right.png	target_both.png	right	color_red.png	Free	dl	neut	150	25	1	685484	0	-1	13	683985	685484	685484	0	0	0	0	685484	685484	685483	0	0	20	3	685534	-1	685845	0	311	l	dl	260	10	685794	0	0	0	0			-685794	8	685854	-1	160	2	prime_right.png																																
118	3	TrialList2_7	1 ver1_main_procedure-3-1	118	TrialProc1	TrialList2																																2	3	103								prime_left.png	target_both.png	left	color_orange.png	Free	dl	comp	450	75	1	687825	0	-1	13	686326	687825	687825	0	0	0	0	687825	687825	687824	0	0	20	3	687875	-1	688221	0	346	d	dl	260	10	688135	0	0	0	0			-688135	13	688235	-1	460																																		
119	3	TrialList2_11	1 ver1_main_procedure-3-1	119	TrialProc1	TrialList2																																2	3	104								prime_left.png	target_both.png	right	color_red.png	Free	dl	neut	300	25	0	690506	1	-1	13	689007	690507	690507	0	0	0	1	690507	690506	690506	0	1	20	4	690557	-999999	690773	0	216	l	dl	0	0	0	0	0	0	0			0	13	690787	-1	310	1	prime_left.png																																
120	3	TrialList2_9	1 ver1_main_procedure-3-1	120	TrialProc1	TrialList2																																2	3	105								prime_right.png	target_both.png	left	color_purple.png	Free	dl	incomp	150	25	1	692908	0	-1	13	691409	692908	692908	0	0	0	0	692908	692908	692907	0	0	20	3	692958	-999999	693205	0	247	l	dl	0	0	0	0	0	0	0			0	12	693218	-1	160																																		
121	3	TrialList2_8	1 ver1_main_procedure-3-1	121	TrialProc1	TrialList2																																2	3	106								prime_right.png	target_both.png	left	color_red.png	Free	dl	neut	450	75	1	695189	0	-1	13	693690	695189	695189	0	0	0	0	695189	695189	695188	0	0	20	3	695239	-1	695502	0	263	l	dl	260	10	695499	1	0	0	0			-695499	6	695509	-1	461	2	prime_right.png																																
122	3	TrialList2_6	1 ver1_main_procedure-3-1	122	TrialProc1	TrialList2																																2	3	107								prime_left.png	target_right.png	right	color_green.png	Cued	l	incomp	150	75	1	697781	0	-1	13	696282	697781	697781	0	0	0	0	697781	697781	697780	0	0	20	3	697831	-1	698149	1	318	l	l	260	10	698091	0	0	0	0			-698091	11	698161	-1	160																																		
123	3	TrialList2_9	1 ver1_main_procedure-3-1	123	TrialProc1	TrialList2																																2	3	108								prime_right.png	target_both.png	left	color_yellow.png	Free	dl	incomp	150	75	1	700132	0	-1	13	698633	700132	700132	0	0	0	0	700132	700132	700131	0	0	20	3	700182	-1	700517	0	335	d	dl	260	10	700442	1	0	0	0			-700442	14	700532	-1	160																																		
124	3	TrialList2_8	1 ver1_main_procedure-3-1	124	TrialProc1	TrialList2																																2	3	109								prime_left.png	target_both.png	left	color_red.png	Free	dl	neut	450	75	1	702504	0	-1	13	701004	702504	702504	0	0	0	0	702504	702504	702503	0	0	20	3	702554	-1	702925	0	371	l	dl	260	10	702814	0	0	0	0			-702814	8	702934	-1	460	1	prime_left.png																																
125	3	TrialList2_7	1 ver1_main_procedure-3-1	125	TrialProc1	TrialList2																																2	3	110								prime_left.png	target_both.png	left	color_green.png	Free	dl	comp	150	75	1	705205	0	-1	13	703706	705205	705205	0	0	0	0	705205	705205	705204	0	0	20	3	705255	-999999	705461	0	206	l	dl	0	0	0	0	0	0	0			0	13	705475	-1	160																																		
126	3	TrialList2_2	1 ver1_main_procedure-3-1	126	TrialProc1	TrialList2																																2	3	111								prime_right.png	target_left.png	left		Cued	d	neut	300	75	0	707446	1	-1	13	705947	707447	707447	0	0	0	0	707446	707446	707446	0	1	20	3	707496	-1	707789	0	293	l	d	261	11	707757	0	0	0	0			-707757	7	707797	-1	310	2	prime_right.png																																
127	3	TrialList2_11	1 ver1_main_procedure-3-1	127	TrialProc1	TrialList2																																2	3	112								prime_left.png	target_both.png	right	color_blue.png	Free	dl	neut	450	75	1	709918	0	-1	13	708419	709918	709918	0	0	0	0	709918	709918	709917	0	0	20	3	709968	-1	710341	0	373	d	dl	260	10	710228	0	0	0	0			-710228	6	710348	-1	460	1	prime_left.png																																
128	3	TrialList2_3	1 ver1_main_procedure-3-1	128	TrialProc1	TrialList2																																2	3	113								prime_right.png	target_left.png	left		Cued	d	incomp	150	25	0	712619	1	-1	13	711120	712620	712620	0	0	0	1	712620	712619	712619	0	1	20	3	712669	-1	713014	0	345	l	d	261	11	712930	0	0	0	0			-712930	6	713020	-1	160																																		
129	3	TrialList2_8	1 ver1_main_procedure-3-1	129	TrialProc1	TrialList2																																2	3	114								prime_right.png	target_both.png	left	color_blue.png	Free	dl	neut	150	75	1	714991	0	-1	13	713492	714991	714991	0	0	0	0	714991	714991	714990	0	0	20	3	715041	-1	715430	0	389	d	dl	260	10	715301	0	0	0	0			-715301	11	715441	-1	160	2	prime_right.png																																
130	3	TrialList2_7	1 ver1_main_procedure-3-1	130	TrialProc1	TrialList2																																2	3	115								prime_left.png	target_both.png	left	color_green.png	Free	dl	comp	150	75	1	717412	1	-1	13	715913	717413	717413	0	0	0	1	717413	717412	717411	0	1	20	3	717462	-1	717846	0	384	l	dl	260	10	717722	1	0	0	0			-717722	7	717853	-1	160																																		
131	3	TrialList2_11	1 ver1_main_procedure-3-1	131	TrialProc1	TrialList2																																2	3	116								prime_left.png	target_both.png	right	color_blue.png	Free	dl	neut	300	75	1	719824	0	-1	13	718324	719824	719824	0	0	0	0	719824	719824	719823	0	0	20	3	719874	-999999	720086	0	212	d	dl	0	0	0	0	0	0	0			0	8	720094	-1	310	1	prime_left.png																																
132	3	TrialList2_2	1 ver1_main_procedure-3-1	132	TrialProc1	TrialList2																																2	3	117								prime_right.png	target_left.png	left	color_blue.png	Cued	d	neut	450	75	1	722215	0	-1	13	720716	722215	722215	0	0	0	0	722215	722215	722214	0	0	20	3	722265	-999999	722302	1	37	d	d	0	0	0	0	0	0	0			0	13	722315	-1	460	2	prime_right.png																																
133	3	TrialList2_9	1 ver1_main_procedure-3-1	133	TrialProc1	TrialList2																																2	3	118								prime_right.png	target_both.png	left	color_purple.png	Free	dl	incomp	450	25	0	724586	1	-1	13	723087	724587	724587	0	0	0	1	724587	724586	724586	0	1	21	3	724637	-999999	724878	0	241	l	dl	0	0	0	0	0	0	0			0	9	724887	-1	460																																		
134	3	TrialList2_4	1 ver1_main_procedure-3-1	134	TrialProc1	TrialList2																																2	3	119								prime_right.png	target_right.png	right	color_purple.png	Cued	l	comp	450	75	1	727158	0	-1	13	725659	727158	727158	0	0	0	0	727158	727158	727157	0	0	20	3	727208	-1	727462	1	254	l	l	0	10	727468	-999999	0	0	0			0	10	727478	-1	460																																		
135	3	TrialList2_10	1 ver1_main_procedure-3-1	135	TrialProc1	TrialList2																																2	3	120								prime_right.png	target_both.png	right	color_purple.png	Free	dl	comp	300	75	1	729750	0	-1	13	728250	729750	729750	0	0	0	0	729750	729750	729749	0	0	20	3	729800	-999999	729990	0	190	l	dl	0	0	0	0	0	0	0			0	10	730000	-1	310																																		
136	3	TrialList2_12	1 ver1_main_procedure-3-1	136	TrialProc1	TrialList2																																2	3	121								prime_left.png	target_both.png	right	color_green.png	Free	dl	incomp	150	75	1	732121	0	-1	13	730622	732121	732121	0	0	0	0	732121	732121	732120	0	0	20	3	732171	-1	732438	0	267	l	dl	260	10	732431	0	0	0	0			-732431	13	732451	-1	160																																		
137	3	TrialList2_10	1 ver1_main_procedure-3-1	137	TrialProc1	TrialList2																																2	3	122								prime_right.png	target_both.png	right	color_purple.png	Free	dl	comp	150	75	1	734422	0	-1	13	732923	734422	734422	0	0	0	0	734422	734422	734421	0	0	20	3	734472	-1	734822	0	350	l	dl	260	10	734732	1	0	0	0			-734732	9	734832	-1	161																																		
138	3	TrialList2_8	1 ver1_main_procedure-3-1	138	TrialProc1	TrialList2																																2	3	123								prime_left.png	target_both.png	left	color_red.png	Free	dl	neut	150	25	1	736804	0	-1	13	735304	736804	736804	0	0	0	0	736804	736804	736803	0	0	20	3	736854	-1	737142	0	288	l	dl	260	10	737114	0	0	0	0			-737114	12	737154	-1	160	1	prime_left.png																																
139	3	TrialList2_12	1 ver1_main_procedure-3-1	139	TrialProc1	TrialList2																																2	3	124								prime_left.png	target_both.png	right	color_green.png	Free	dl	incomp	300	25	1	739125	0	-1	13	737626	739125	739125	0	0	0	0	739125	739125	739124	0	0	20	3	739175	-1	739702	0	527	l	dl	260	10	739435	0	0	0	0			-739435	12	739715	-1	311																																		
140	3	TrialList2_8	1 ver1_main_procedure-3-1	140	TrialProc1	TrialList2																																2	3	125								prime_right.png	target_both.png	left	color_red.png	Free	dl	neut	300	75	1	741837	0	-1	13	740338	741837	741837	0	0	0	0	741837	741837	741836	0	0	20	3	741887	-1	742166	0	279	l	dl	260	10	742147	0	0	0	0			-742147	10	742177	-1	310	2	prime_right.png																																
141	3	TrialList2_11	1 ver1_main_procedure-3-1	141	TrialProc1	TrialList2																																2	3	126								prime_left.png	target_both.png	right	color_red.png	Free	dl	neut	300	75	1	744298	0	-1	13	742799	744298	744298	0	0	0	0	744298	744298	744297	0	0	20	3	744348	-999999	744550	0	202	l	dl	0	0	0	0	0	0	0			0	7	744558	-1	310	1	prime_left.png																																
142	3	TrialList2_5	1 ver1_main_procedure-3-1	142	TrialProc1	TrialList2																																2	3	127								prime_right.png	target_right.png	right	color_red.png	Cued	l	neut	150	75	1	746680	0	-1	13	745180	746680	746680	0	0	0	0	746680	746680	746679	0	0	19	3	746729	-999999	746798	1	69	l	l	0	0	0	0	0	0	0			0	11	746810	-1	160	2	prime_right.png																																
143	3	TrialList2_4	1 ver1_main_procedure-3-1	143	TrialProc1	TrialList2																																2	3	128								prime_right.png	target_right.png	right	color_purple.png	Cued	l	comp	150	75	1	748781	0	-1	13	747282	748781	748781	0	0	0	0	748781	748781	748780	0	0	20	3	748831	-1	749094	1	263	l	l	260	10	749091	0	0	0	0			-749091	6	749101	-1	160																																		
144	3	TrialList2_5	1 ver1_main_procedure-3-1	144	TrialProc1	TrialList2																																2	3	129								prime_left.png	target_right.png	right	color_red.png	Cued	l	neut	450	25	1	751072	0	-1	13	749573	751072	751072	0	0	0	0	751072	751072	751071	0	0	20	3	751122	-1	751478	1	356	l	l	260	10	751382	1	0	0	0			-751382	13	751492	-1	461	1	prime_left.png																																
145	3	TrialList2_10	1 ver1_main_procedure-3-1	145	TrialProc1	TrialList2																																2	3	130								prime_right.png	target_both.png	right	color_yellow.png	Free	dl	comp	300	75	1	753764	0	-1	13	752265	753764	753764	0	0	0	0	753764	753764	753763	0	0	20	3	753814	-1	754182	0	368	d	dl	260	10	754074	0	0	0	0			-754074	11	754194	-1	310																																		
146	3	TrialList2_2	1 ver1_main_procedure-3-1	146	TrialProc1	TrialList2																																2	3	131								prime_right.png	target_left.png	left	color_blue.png	Cued	d	neut	450	25	1	756315	0	-1	13	754816	756315	756315	0	0	0	0	756315	756315	756314	0	0	20	3	756365	-1	756830	1	465	d	d	260	10	756625	0	0	0	0			-756625	14	756845	-1	461	2	prime_right.png																																
147	3	TrialList2_12	1 ver1_main_procedure-3-1	147	TrialProc1	TrialList2																																2	3	132								prime_left.png	target_both.png	right	color_orange.png	Free	dl	incomp	300	25	1	759117	0	-1	13	757618	759117	759117	0	0	0	0	759117	759117	759116	0	0	20	3	759167	-1	759478	0	311	d	dl	260	10	759427	0	0	0	0			-759427	8	759487	-1	310																																		
148	3	TrialList2_8	1 ver1_main_procedure-3-1	148	TrialProc1	TrialList2																																2	3	133								prime_left.png	target_both.png	left		Free	dl	neut	150	75	1	761608	1	-1	13	760109	761609	761609	0	0	0	0	761608	761608	761607	0	1	20	3	761658	-1	0	0	0		dl	260	10	761918	1	0	0	0			1501	1	763419	-1	160	1	prime_left.png																																
149	3	TrialList2_7	1 ver1_main_procedure-3-1	149	TrialProc1	TrialList2																																2	3	134								prime_left.png	target_both.png	left	color_green.png	Free	dl	comp	150	25	0	765390	1	-1	13	763891	765391	765391	0	0	0	1	765391	765390	765390	0	1	20	3	765440	-1	765782	0	342	l	dl	261	11	765701	0	0	0	0			-765701	8	765791	-1	160																																		
150	3	TrialList2_11	1 ver1_main_procedure-3-1	150	TrialProc1	TrialList2																																2	3	135								prime_right.png	target_both.png	right	color_red.png	Free	dl	neut	450	25	1	767762	0	-1	13	766263	767762	767762	0	0	0	0	767762	767762	767761	0	0	20	3	767812	-1	768166	0	354	l	dl	260	10	768072	0	0	0	0			-768072	5	768172	-1	460	2	prime_right.png																																
151	3	TrialList2_12	1 ver1_main_procedure-3-1	151	TrialProc1	TrialList2																																2	3	136								prime_left.png	target_both.png	right	color_orange.png	Free	dl	incomp	450	25	0	770443	1	-1	13	768944	770444	770444	0	0	0	1	770444	770443	770443	0	1	20	3	770493	-1	770758	0	265	d	dl	261	11	770754	0	0	0	0			-770754	15	770774	-1	460																																		
152	3	TrialList2_12	1 ver1_main_procedure-3-1	152	TrialProc1	TrialList2																																2	3	137								prime_left.png	target_both.png	right	color_green.png	Free	dl	incomp	150	25	1	773045	0	-1	13	771546	773045	773045	0	0	0	0	773045	773045	773044	0	0	20	3	773095	-1	774142	0	1047	l	dl	260	10	773355	0	0	0	0			-773355	13	774156	-1	160																																		
153	3	TrialList2_12	1 ver1_main_procedure-3-1	153	TrialProc1	TrialList2																																2	3	138								prime_left.png	target_both.png	right	color_green.png	Free	dl	incomp	450	75	1	776127	0	-1	13	774628	776127	776127	0	0	0	0	776127	776127	776126	0	0	20	3	776177	-1	776590	0	413	l	dl	260	10	776437	0	0	0	0			-776437	6	776597	-1	460																																		
154	3	TrialList2_7	1 ver1_main_procedure-3-1	154	TrialProc1	TrialList2																																2	3	139								prime_left.png	target_both.png	left	color_green.png	Free	dl	comp	150	75	1	778868	1	-1	13	777369	778869	778869	0	0	0	0	778868	778868	778867	0	1	20	3	778918	-1	779310	0	392	l	dl	261	11	779179	0	0	0	0			-779179	8	779319	-1	160																																		
155	3	TrialList2_10	1 ver1_main_procedure-3-1	155	TrialProc1	TrialList2																																2	3	140								prime_right.png	target_both.png	right	color_yellow.png	Free	dl	comp	450	25	1	781290	0	-1	13	779791	781290	781290	0	0	0	0	781290	781290	781289	0	0	20	3	781340	-1	781638	0	298	d	dl	260	10	781600	0	0	0	0			-781600	11	781650	-1	460																																		
156	3	TrialList2_1	1 ver1_main_procedure-3-1	156	TrialProc1	TrialList2																																2	3	141								prime_left.png	target_left.png	left		Cued	d	comp	450	25	1	783921	0	-1	13	782422	783921	783922	0	0	0	0	783921	783921	783920	0	0	20	3	783971	-1	784286	0	315	l	d	261	11	784232	0	0	0	0			-784232	15	784302	-1	460																																		
157	3	TrialList2_8	1 ver1_main_procedure-3-1	157	TrialProc1	TrialList2																																2	3	142								prime_left.png	target_both.png	left	color_red.png	Free	dl	neut	150	75	1	786573	0	-1	13	785074	786573	786573	0	0	0	0	786573	786573	786572	0	0	20	3	786623	-1	787022	0	399	l	dl	260	10	786883	0	0	0	0			-786883	10	787033	-1	160	1	prime_left.png																																
158	3	TrialList2_9	1 ver1_main_procedure-3-1	158	TrialProc1	TrialList2																																2	3	143								prime_right.png	target_both.png	left	color_purple.png	Free	dl	incomp	150	25	1	789004	0	-1	13	787505	789004	789005	0	0	0	0	789004	789004	789003	0	0	20	3	789054	-1	789671	0	617	l	dl	261	11	789315	0	0	0	0			-789315	14	789685	-1	160																																		
159	3	TrialList2_12	1 ver1_main_procedure-3-1	159	TrialProc1	TrialList2																																2	3	144								prime_left.png	target_both.png	right	color_green.png	Free	dl	incomp	150	25	1	791656	0	-1	13	790157	791656	791656	0	0	0	0	791656	791656	791655	0	0	20	3	791706	-1	792287	0	581	l	dl	260	10	791966	0	0	0	0			-791966	9	792296	-1	160																																		
160	3	Ocena_1	1 ver1_main_procedure-3-1	160	DragProc	Ocena																																2	3	3																																																											color_blue.png	color_orange.png	color_green.png	color_purple.png	color_red.png	color_yellow.png		9545	4	color_purple.png	1	color_blue.png	2	color_orange.png	5	color_red.png	3	color_green.png	6	color_yellow.png												
161	3	Ocena_2	1 ver1_main_procedure-3-1	161	EnterProc	Ocena																																2	3	4																																																																	Wartosci musza byc z przedzialu '0 - 100'.			color_purple.png		color_blue.png		color_orange.png		color_red.png		color_green.png		color_yellow.png	1	10	20	40	90	100						
162	2	BlockList_4	1 ver1_main_procedure-3-1	162	BlockProc2	BlockList																																1	3	2																																																																																					no		{SPACE}	l		
163	3	TrialList1_5	1 ver1_main_procedure-3-1	163	TrialProc1	TrialList1																																1	4	1								prime_right.png	target_right.png	right	color_yellow.png	Cued	l	neut	450	75	0	850410	1	-1	13	848911	850411	850411	0	0	0	0	850410	850410	850410	0	1	20	3	850460	-1	850743	1	283	l	l	261	11	850721	0	0	0	0			-850721	7	850751	-1	460	2	prime_right.png																																
164	3	TrialList1_2	1 ver1_main_procedure-3-1	164	TrialProc1	TrialList1																																1	4	2								prime_left.png	target_left.png	left	color_purple.png	Cued	d	neut	450	75	1	853022	0	-1	13	851523	853022	853022	0	0	0	0	853022	853022	853021	0	0	20	3	853072	-1	853367	1	295	d	d	260	10	853332	0	0	0	0			-853332	14	853382	-1	460	1	prime_left.png																																
165	3	TrialList1_1	1 ver1_main_procedure-3-1	165	TrialProc1	TrialList1																																1	4	3								prime_left.png	target_left.png	left	color_blue.png	Cued	d	comp	150	75	0	855653	1	-1	13	854154	855654	855654	0	0	0	1	855654	855653	855653	0	1	20	3	855703	-1	856023	1	320	d	d	261	11	855964	0	0	0	0			-855964	10	856034	-1	160																																		
166	3	TrialList1_8	1 ver1_main_procedure-3-1	166	TrialProc1	TrialList1																																1	4	4								prime_right.png	target_both.png	left	color_yellow.png	Free	dl	neut	150	25	1	858005	0	-1	13	856506	858005	858005	0	0	0	0	858005	858005	858004	0	0	20	3	858055	-1	858327	0	272	l	dl	260	10	858315	0	0	0	0			-858315	7	858335	-1	160	2	prime_right.png																																
167	3	TrialList1_5	1 ver1_main_procedure-3-1	167	TrialProc1	TrialList1																																1	4	5								prime_left.png	target_right.png	right	color_yellow.png	Cued	l	neut	450	25	1	860306	0	-1	13	858807	860306	860306	0	0	0	0	860306	860306	860305	0	0	20	3	860356	-1	860711	1	355	l	l	260	10	860616	1	0	0	0			-860616	15	860727	-1	460	1	prime_left.png																																
168	3	TrialList1_10	1 ver1_main_procedure-3-1	168	TrialProc1	TrialList1																																1	4	6								prime_right.png	target_both.png	right	color_orange.png	Free	dl	comp	300	25	1	862998	0	-1	13	861499	862998	862998	0	0	0	0	862998	862998	862997	0	0	20	3	863048	-1	863527	0	479	d	dl	260	10	863308	0	0	0	0			-863308	10	863538	-1	310																																		
169	3	TrialList1_5	1 ver1_main_procedure-3-1	169	TrialProc1	TrialList1																																1	4	7								prime_right.png	target_right.png	right	color_yellow.png	Cued	l	neut	300	25	1	865659	0	-1	13	864161	865659	865660	0	0	0	0	865659	865659	865658	0	0	20	3	865709	-1	865960	1	251	l	l	0	11	865970	-999999	0	0	0			0	10	865980	-1	310	2	prime_right.png																																
170	3	TrialList1_12	1 ver1_main_procedure-3-1	170	TrialProc1	TrialList1																																1	4	8								prime_left.png	target_both.png	right	color_red.png	Free	dl	incomp	300	25	1	868101	0	-1	13	866602	868101	868101	0	0	0	0	868101	868101	868100	0	0	20	3	868151	-1	868511	0	360	l	dl	260	10	868411	0	0	0	0			-868411	9	868521	-1	310																																		
171	3	TrialList1_9	1 ver1_main_procedure-3-1	171	TrialProc1	TrialList1																																1	4	9								prime_right.png	target_both.png	left	color_orange.png	Free	dl	incomp	150	75	1	870642	0	-1	13	869143	870642	870642	0	0	0	0	870642	870642	870641	0	0	20	3	870692	-1	870959	0	267	d	dl	260	10	870952	1	0	0	0			-870952	12	870972	-1	161																																		
172	3	TrialList1_5	1 ver1_main_procedure-3-1	172	TrialProc1	TrialList1																																1	4	10								prime_left.png	target_right.png	right	color_yellow.png	Cued	l	neut	150	75	1	872944	0	-1	13	871445	872944	872944	0	0	0	0	872944	872944	872943	0	0	20	3	872994	-999999	873207	1	213	l	l	0	0	0	0	0	0	0			0	16	873224	-1	160	1	prime_left.png																																
173	3	TrialList1_3	1 ver1_main_procedure-3-1	173	TrialProc1	TrialList1																																1	4	11								prime_right.png	target_left.png	left		Cued	d	incomp	450	25	1	875195	0	-1	13	873696	875195	875195	0	0	0	0	875195	875195	875194	0	0	20	3	875245	-1	875528	0	283	l	d	260	10	875505	0	0	0	0			-875505	7	875535	-1	460																																		
174	3	TrialList1_6	1 ver1_main_procedure-3-1	174	TrialProc1	TrialList1																																1	4	12								prime_left.png	target_right.png	right		Cued	l	incomp	300	25	0	877806	1	-1	13	876308	877807	877807	0	0	0	1	877807	877806	877806	0	1	20	4	877857	-999999	878088	0	231	d	l	0	0	0	0	0	0	0			0	9	878097	-1	310																																		
175	3	TrialList1_6	1 ver1_main_procedure-3-1	175	TrialProc1	TrialList1																																1	4	13								prime_left.png	target_right.png	right		Cued	l	incomp	450	25	1	880218	0	-1	13	878719	880218	880218	0	0	0	0	880218	880218	880217	0	0	20	3	880268	-999999	880512	0	244	d	l	0	0	0	0	0	0	0			0	6	880518	-1	460																																		
176	3	TrialList1_4	1 ver1_main_procedure-3-1	176	TrialProc1	TrialList1																																1	4	14								prime_right.png	target_right.png	right	color_green.png	Cued	l	comp	450	25	0	882789	1	-1	13	881290	882790	882790	0	0	0	0	882789	882789	882789	0	1	20	3	882839	-999999	883072	1	233	l	l	0	0	0	0	0	0	0			0	8	883080	-1	460																																		
177	3	TrialList1_6	1 ver1_main_procedure-3-1	177	TrialProc1	TrialList1																																1	4	15								prime_left.png	target_right.png	right		Cued	l	incomp	300	75	1	885351	0	-1	13	883852	885351	885351	0	0	0	0	885351	885351	885350	0	0	20	3	885401	-999999	885648	0	247	d	l	0	0	0	0	0	0	0			0	13	885661	-1	310																																		
178	3	TrialList1_1	1 ver1_main_procedure-3-1	178	TrialProc1	TrialList1																																1	4	16								prime_left.png	target_left.png	left		Cued	d	comp	150	75	0	887782	0	-1	13	886283	887782	887783	0	0	0	0	887782	887782	887782	0	0	20	3	887832	-999999	888048	0	216	l	d	0	0	0	0	0	0	0			0	15	888063	-1	160																																		
179	3	TrialList1_4	1 ver1_main_procedure-3-1	179	TrialProc1	TrialList1																																1	4	17								prime_right.png	target_right.png	right	color_green.png	Cued	l	comp	150	75	1	890034	0	-1	13	888535	890034	890034	0	0	0	0	890034	890034	890033	0	0	20	3	890084	-1	890512	1	428	l	l	260	10	890344	0	0	0	0			-890344	12	890524	-1	160																																		
180	3	TrialList1_2	1 ver1_main_procedure-3-1	180	TrialProc1	TrialList1																																1	4	18								prime_right.png	target_left.png	left	color_purple.png	Cued	d	neut	450	25	1	892495	0	-1	13	890996	892495	892495	0	0	0	0	892495	892495	892494	0	0	20	3	892545	-1	892832	1	287	d	d	260	10	892805	0	0	0	0			-892805	13	892845	-1	461	2	prime_right.png																																
181	3	TrialList1_5	1 ver1_main_procedure-3-1	181	TrialProc1	TrialList1																																1	4	19								prime_left.png	target_right.png	right	color_yellow.png	Cued	l	neut	150	75	1	895117	0	-1	13	893618	895117	895117	0	0	0	0	895117	895117	895116	0	0	20	3	895167	-1	895472	1	305	l	l	260	10	895427	0	0	0	0			-895427	15	895487	-1	160	1	prime_left.png																																
182	3	TrialList1_9	1 ver1_main_procedure-3-1	182	TrialProc1	TrialList1																																1	4	20								prime_right.png	target_both.png	left	color_green.png	Free	dl	incomp	150	25	1	897458	0	-1	13	895959	897458	897458	0	0	0	0	897458	897458	897457	0	0	20	3	897508	-1	897952	0	444	l	dl	260	10	897768	0	0	0	0			-897768	5	897958	-1	160																																		
183	3	TrialList1_4	1 ver1_main_procedure-3-1	183	TrialProc1	TrialList1																																1	4	21								prime_right.png	target_right.png	right	color_green.png	Cued	l	comp	150	25	0	899929	1	-1	13	898430	899930	899930	0	0	0	1	899930	899929	899929	0	1	20	4	899980	-999999	900208	1	228	l	l	0	0	0	0	0	0	0			0	11	900220	-1	160																																		
184	3	TrialList1_6	1 ver1_main_procedure-3-1	184	TrialProc1	TrialList1																																1	4	22								prime_left.png	target_right.png	right		Cued	l	incomp	150	75	1	902191	0	-1	13	900692	902191	902191	0	0	0	0	902191	902191	902190	0	0	20	3	902241	-999999	902424	0	183	d	l	0	0	0	0	0	0	0			0	6	902431	-1	160																																		
185	3	TrialList1_2	1 ver1_main_procedure-3-1	185	TrialProc1	TrialList1																																1	4	23								prime_right.png	target_left.png	left		Cued	d	neut	450	75	1	904402	0	-1	13	902903	904402	904402	0	0	0	0	904402	904402	904401	0	0	20	3	904452	-1	904760	0	308	l	d	260	10	904712	0	0	0	0			-904712	11	904772	-1	461	2	prime_right.png																																
186	3	TrialList1_8	1 ver1_main_procedure-3-1	186	TrialProc1	TrialList1																																1	4	24								prime_left.png	target_both.png	left	color_yellow.png	Free	dl	neut	150	25	1	907044	0	-1	13	905545	907044	907044	0	0	0	0	907044	907044	907043	0	0	20	3	907094	-1	907504	0	410	l	dl	260	10	907354	0	0	0	0			-907354	9	907514	-1	160	1	prime_left.png																																
187	3	TrialList1_1	1 ver1_main_procedure-3-1	187	TrialProc1	TrialList1																																1	4	25								prime_left.png	target_left.png	left	color_blue.png	Cued	d	comp	450	25	1	909485	0	-1	13	907986	909485	909485	0	0	0	0	909485	909485	909484	0	0	20	3	909535	-1	909952	1	417	d	d	260	10	909795	0	0	0	0			-909795	12	909965	-1	461																																		
188	3	TrialList1_1	1 ver1_main_procedure-3-1	188	TrialProc1	TrialList1																																1	4	26								prime_left.png	target_left.png	left	color_blue.png	Cued	d	comp	300	25	1	912237	0	-1	13	910738	912237	912237	0	0	0	0	912237	912237	912236	0	0	20	3	912287	-1	912568	1	281	d	d	260	10	912547	0	0	0	0			-912547	8	912577	-1	310																																		
189	3	TrialList1_5	1 ver1_main_procedure-3-1	189	TrialProc1	TrialList1																																1	4	27								prime_right.png	target_right.png	right	color_yellow.png	Cued	l	neut	300	75	1	914698	0	-1	13	913199	914698	914698	0	0	0	0	914698	914698	914697	0	0	20	3	914748	-1	915096	1	348	l	l	260	10	915008	0	0	0	0			-915008	11	915108	-1	311	2	prime_right.png																																
190	3	TrialList1_12	1 ver1_main_procedure-3-1	190	TrialProc1	TrialList1																																1	4	28								prime_left.png	target_both.png	right	color_red.png	Free	dl	incomp	450	25	1	917230	0	-1	13	915730	917230	917230	0	0	0	0	917230	917230	917229	0	0	20	3	917280	-999999	917512	0	232	l	dl	0	0	0	0	0	0	0			0	7	917520	-1	460																																		
191	3	TrialList1_4	1 ver1_main_procedure-3-1	191	TrialProc1	TrialList1																																1	4	29								prime_right.png	target_right.png	right	color_green.png	Cued	l	comp	450	75	1	919791	0	-1	13	918292	919791	919791	0	0	0	0	919791	919791	919790	0	0	20	3	919841	-1	920136	1	295	l	l	260	10	920101	1	0	0	0			-920101	14	920151	-1	461																																		
192	3	TrialList1_4	1 ver1_main_procedure-3-1	192	TrialProc1	TrialList1																																1	4	30								prime_right.png	target_right.png	right	color_green.png	Cued	l	comp	450	75	1	922423	0	-1	13	920924	922423	922423	0	0	0	0	922423	922423	922422	0	0	20	3	922473	-1	922768	1	295	l	l	260	10	922733	0	0	0	0			-922733	14	922783	-1	460																																		
193	3	TrialList1_11	1 ver1_main_procedure-3-1	193	TrialProc1	TrialList1																																1	4	31								prime_left.png	target_both.png	right	color_purple.png	Free	dl	neut	150	75	1	925054	0	-1	13	923555	925054	925054	0	0	0	0	925054	925054	925053	0	0	20	3	925104	-1	925408	0	304	d	dl	260	10	925364	1	0	0	0			-925364	5	925414	-1	161	1	prime_left.png																																
194	3	TrialList1_5	1 ver1_main_procedure-3-1	194	TrialProc1	TrialList1																																1	4	32								prime_right.png	target_right.png	right	color_yellow.png	Cued	l	neut	300	75	1	927386	0	-1	13	925886	927386	927386	0	0	0	0	927386	927386	927385	0	0	20	3	927436	-999999	927616	1	180	l	l	0	0	0	0	0	0	0			0	9	927626	-1	310	2	prime_right.png																																
195	3	TrialList1_6	1 ver1_main_procedure-3-1	195	TrialProc1	TrialList1																																1	4	33								prime_left.png	target_right.png	right	color_red.png	Cued	l	incomp	450	25	1	929747	0	-1	13	928248	929747	929747	0	0	0	0	929747	929747	929746	0	0	20	3	929797	-1	930096	1	299	l	l	260	10	930057	0	0	0	0			-930057	10	930107	-1	461																																		
196	3	TrialList1_10	1 ver1_main_procedure-3-1	196	TrialProc1	TrialList1																																1	4	34								prime_right.png	target_both.png	right		Free	dl	comp	150	25	1	932379	0	-1	13	930879	932379	932379	0	0	0	0	932379	932379	932378	0	0	20	3	932429	-1	0	0	0		dl	260	10	932689	0	0	0	0			1501	1	934190	-1	160																																		
197	3	TrialList1_3	1 ver1_main_procedure-3-1	197	TrialProc1	TrialList1																																1	4	35								prime_right.png	target_left.png	left		Cued	d	incomp	150	75	1	936161	0	-1	13	934662	936161	936161	0	0	0	0	936161	936161	936160	0	0	20	3	936211	-999999	936392	0	181	l	d	0	0	0	0	0	0	0			0	8	936401	-1	160																																		
198	3	TrialList1_2	1 ver1_main_procedure-3-1	198	TrialProc1	TrialList1																																1	4	36								prime_left.png	target_left.png	left	color_purple.png	Cued	d	neut	300	75	1	938372	0	-1	13	936873	938372	938372	0	0	0	0	938372	938372	938371	0	0	20	3	938422	-1	938904	1	482	d	d	260	10	938682	0	0	0	0			-938682	7	938912	-1	311	1	prime_left.png																																
199	3	TrialList1_4	1 ver1_main_procedure-3-1	199	TrialProc1	TrialList1																																1	4	37								prime_right.png	target_right.png	right	color_green.png	Cued	l	comp	450	75	1	941034	0	-1	13	939534	941034	941034	0	0	0	0	941034	941034	941033	0	0	20	3	941084	-1	941384	1	300	l	l	260	10	941344	0	0	0	0			-941344	9	941394	-1	460																																		
200	3	TrialList1_3	1 ver1_main_procedure-3-1	200	TrialProc1	TrialList1																																1	4	38								prime_right.png	target_left.png	left	color_orange.png	Cued	d	incomp	300	75	1	943665	0	-1	13	942166	943665	943665	0	0	0	0	943665	943665	943664	0	0	20	3	943715	-1	944024	1	309	d	d	260	10	943975	0	0	0	0			-943975	10	944035	-1	311																																		
201	3	TrialList1_7	1 ver1_main_procedure-3-1	201	TrialProc1	TrialList1																																1	4	39								prime_left.png	target_both.png	left	color_red.png	Free	dl	comp	450	75	1	946157	0	-1	13	944657	946157	946157	0	0	0	0	946157	946157	946156	0	0	20	3	946207	-1	946512	0	305	l	dl	260	10	946467	0	0	0	0			-946467	14	946527	-1	460																																		
202	3	TrialList1_3	1 ver1_main_procedure-3-1	202	TrialProc1	TrialList1																																1	4	40								prime_right.png	target_left.png	left	color_orange.png	Cued	d	incomp	450	25	1	948798	0	-1	13	947299	948798	948798	0	0	0	0	948798	948798	948797	0	0	20	3	948848	-1	949201	1	353	d	d	260	10	949108	1	0	0	0			-949108	7	949208	-1	461																																		
203	3	TrialList1_1	1 ver1_main_procedure-3-1	203	TrialProc1	TrialList1																																1	4	41								prime_left.png	target_left.png	left	color_blue.png	Cued	d	comp	450	25	1	951480	0	-1	13	949981	951480	951480	0	0	0	0	951480	951480	951479	0	0	20	3	951530	-1	951809	1	279	d	d	260	10	951790	0	0	0	0			-951790	11	951820	-1	460																																		
204	3	TrialList1_4	1 ver1_main_procedure-3-1	204	TrialProc1	TrialList1																																1	4	42								prime_right.png	target_right.png	right	color_green.png	Cued	l	comp	450	25	1	954091	0	-1	13	952592	954091	954091	0	0	0	0	954091	954091	954090	0	0	20	3	954141	-1	954457	1	316	l	l	260	10	954401	1	0	0	0			-954401	15	954472	-1	460																																		
205	3	TrialList1_6	1 ver1_main_procedure-3-1	205	TrialProc1	TrialList1																																1	4	43								prime_left.png	target_right.png	right		Cued	l	incomp	300	25	1	956743	0	-1	13	955244	956743	956743	0	0	0	0	956743	956743	956742	0	0	20	3	956793	-999999	957033	0	240	d	l	0	0	0	0	0	0	0			0	10	957043	-1	310																																		
206	3	TrialList1_5	1 ver1_main_procedure-3-1	206	TrialProc1	TrialList1																																1	4	44								prime_right.png	target_right.png	right	color_yellow.png	Cued	l	neut	450	25	1	959164	0	-1	13	957665	959164	959164	0	0	0	0	959164	959164	959163	0	0	20	3	959214	-1	959657	1	443	l	l	260	10	959474	1	0	0	0			-959474	8	959665	-1	460	2	prime_right.png																																
207	3	TrialList1_1	1 ver1_main_procedure-3-1	207	TrialProc1	TrialList1																																1	4	45								prime_left.png	target_left.png	left	color_blue.png	Cued	d	comp	300	25	1	961936	0	-1	13	960437	961936	961936	0	0	0	0	961936	961936	961935	0	0	20	3	961986	-1	962353	1	367	d	d	260	10	962246	0	0	0	0			-962246	13	962366	-1	310																																		
208	3	TrialList1_3	1 ver1_main_procedure-3-1	208	TrialProc1	TrialList1																																1	4	46								prime_right.png	target_left.png	left		Cued	d	incomp	150	25	0	964487	1	-1	13	962988	964488	964488	0	0	0	0	964487	964487	964487	0	1	20	3	964537	-999999	964769	0	232	l	d	0	0	0	0	0	0	0			0	9	964778	-1	160																																		
209	3	TrialList1_3	1 ver1_main_procedure-3-1	209	TrialProc1	TrialList1																																1	4	47								prime_right.png	target_left.png	left	color_orange.png	Cued	d	incomp	150	75	1	966749	0	-1	13	965250	966749	966749	0	0	0	0	966749	966749	966748	0	0	20	3	966799	-1	967161	1	362	d	d	260	10	967059	0	0	0	0			-967059	8	967169	-1	160																																		
210	3	TrialList1_3	1 ver1_main_procedure-3-1	210	TrialProc1	TrialList1																																1	4	48								prime_right.png	target_left.png	left		Cued	d	incomp	450	25	1	969140	0	-1	13	967641	969140	969140	0	0	0	0	969140	969140	969139	0	0	20	3	969190	-1	0	0	0		d	260	10	969450	1	0	0	0			1501	1	970951	-1	460																																		
211	3	TrialList1_6	1 ver1_main_procedure-3-1	211	TrialProc1	TrialList1																																1	4	49								prime_left.png	target_right.png	right	color_red.png	Cued	l	incomp	300	25	1	973223	0	-1	13	971723	973223	973223	0	0	0	0	973223	973223	973222	0	0	20	3	973273	-1	973569	1	296	l	l	260	10	973533	0	0	0	0			-973533	14	973583	-1	310																																		
212	3	TrialList1_2	1 ver1_main_procedure-3-1	212	TrialProc1	TrialList1																																1	4	50								prime_left.png	target_left.png	left	color_purple.png	Cued	d	neut	450	25	1	975704	0	-1	13	974205	975704	975704	0	0	0	0	975704	975704	975703	0	0	20	3	975754	-1	976041	1	287	d	d	260	10	976014	0	0	0	0			-976014	13	976054	-1	460	1	prime_left.png																																
213	3	TrialList1_7	1 ver1_main_procedure-3-1	213	TrialProc1	TrialList1																																1	4	51								prime_left.png	target_both.png	left		Free	dl	comp	300	75	1	978326	0	-1	13	976826	978326	978326	0	0	0	0	978326	978326	978325	0	0	20	3	978376	-1	0	0	0		dl	260	10	978636	0	0	0	0			1501	1	980137	-1	310																																		
214	3	TrialList1_5	1 ver1_main_procedure-3-1	214	TrialProc1	TrialList1																																1	4	52								prime_right.png	target_right.png	right		Cued	l	neut	150	75	1	982258	0	-1	13	980759	982258	982258	0	0	0	0	982258	982258	982257	0	0	20	3	982308	-1	0	0	0		l	260	10	982568	0	0	0	0			1501	1	984069	-1	160	2	prime_right.png																																
215	3	TrialList1_11	1 ver1_main_procedure-3-1	215	TrialProc1	TrialList1																																1	4	53								prime_left.png	target_both.png	right	color_yellow.png	Free	dl	neut	450	75	1	986040	0	-1	13	984541	986040	986040	0	0	0	0	986040	986040	986039	0	0	20	3	986090	-1	986537	0	447	l	dl	260	10	986350	0	0	0	0			-986350	12	986550	-1	461	1	prime_left.png																																
216	3	TrialList1_1	1 ver1_main_procedure-3-1	216	TrialProc1	TrialList1																																1	4	54								prime_left.png	target_left.png	left	color_blue.png	Cued	d	comp	450	25	1	988822	0	-1	13	987322	988822	988822	0	0	0	0	988822	988822	988821	0	0	20	3	988872	-1	989185	1	313	d	d	260	10	989132	0	0	0	0			-989132	6	989192	-1	460																																		
217	3	TrialList1_3	1 ver1_main_procedure-3-1	217	TrialProc1	TrialList1																																1	4	55								prime_right.png	target_left.png	left	color_orange.png	Cued	d	incomp	450	25	1	991463	0	-1	13	989964	991463	991463	0	0	0	0	991463	991463	991462	0	0	20	3	991513	-1	991889	1	376	d	d	260	10	991773	1	0	0	0			-991773	13	991903	-1	461																																		
218	3	TrialList1_1	1 ver1_main_procedure-3-1	218	TrialProc1	TrialList1																																1	4	56								prime_left.png	target_left.png	left		Cued	d	comp	150	25	1	994175	0	-1	13	992676	994175	994175	0	0	0	0	994175	994175	994174	0	0	20	3	994225	-1	0	0	0		d	260	10	994485	0	0	0	0			1501	1	995986	-1	160																																		
219	3	TrialList1_6	1 ver1_main_procedure-3-1	219	TrialProc1	TrialList1																																1	4	57								prime_left.png	target_right.png	right	color_red.png	Cued	l	incomp	450	75	1	997957	0	-1	13	996458	997957	997957	0	0	0	0	997957	997957	997956	0	0	20	3	998007	-999999	998233	1	226	l	l	0	0	0	0	0	0	0			0	13	998247	-1	461																																		
220	3	TrialList1_2	1 ver1_main_procedure-3-1	220	TrialProc1	TrialList1																																1	4	58								prime_right.png	target_left.png	left		Cued	d	neut	300	75	1	1000519	0	-1	13	999019	1000519	1000519	0	0	0	0	1000519	1000519	1000518	0	0	20	3	1000569	-1	1000873	0	304	l	d	260	10	1000829	0	0	0	0			-1000829	5	1000879	-1	310	2	prime_right.png																																
221	3	TrialList1_2	1 ver1_main_procedure-3-1	221	TrialProc1	TrialList1																																1	4	59								prime_left.png	target_left.png	left	color_purple.png	Cued	d	neut	150	25	1	1003000	0	-1	13	1001501	1003000	1003000	0	0	0	0	1003000	1003000	1002999	0	0	20	3	1003050	-1	1003377	1	327	d	d	260	10	1003310	0	0	0	0			-1003310	12	1003390	-1	160	1	prime_left.png																																
222	3	TrialList1_10	1 ver1_main_procedure-3-1	222	TrialProc1	TrialList1																																1	4	60								prime_right.png	target_both.png	right		Free	dl	comp	150	75	0	1005361	1	-1	13	1003862	1005362	1005362	0	0	0	0	1005361	1005361	1005361	0	1	20	3	1005411	-1	0	0	0		dl	261	11	1005672	0	0	0	0			1500	0	1007172	-1	161																																		
223	3	TrialList1_7	1 ver1_main_procedure-3-1	223	TrialProc1	TrialList1																																1	4	61								prime_left.png	target_both.png	left	color_red.png	Free	dl	comp	300	25	1	1009144	0	-1	13	1007645	1009144	1009144	0	0	0	0	1009144	1009144	1009143	0	0	20	3	1009194	-999999	1009425	0	231	l	dl	0	0	0	0	0	0	0			0	8	1009434	-1	310																																		
224	3	TrialList1_9	1 ver1_main_procedure-3-1	224	TrialProc1	TrialList1																																1	4	62								prime_right.png	target_both.png	left		Free	dl	incomp	150	75	1	1011555	0	-1	13	1010056	1011555	1011555	0	0	0	0	1011555	1011555	1011554	0	0	20	3	1011605	-1	0	0	0		dl	260	10	1011865	0	0	0	0			1501	1	1013366	-1	160																																		
225	3	TrialList1_11	1 ver1_main_procedure-3-1	225	TrialProc1	TrialList1																																1	4	63								prime_right.png	target_both.png	right	color_yellow.png	Free	dl	neut	150	75	1	1015337	0	-1	13	1013838	1015337	1015337	0	0	0	0	1015337	1015337	1015336	0	0	20	3	1015387	-1	1015777	0	390	l	dl	260	10	1015647	1	0	0	0			-1015647	10	1015788	-1	160	2	prime_right.png																																
226	3	TrialList1_12	1 ver1_main_procedure-3-1	226	TrialProc1	TrialList1																																1	4	64								prime_left.png	target_both.png	right		Free	dl	incomp	150	25	1	1017759	0	-1	13	1016260	1017759	1017759	0	0	0	0	1017759	1017759	1017758	0	0	20	3	1017809	-1	0	0	0		dl	260	10	1018069	0	0	0	0			1501	1	1019570	-1	160																																		
227	3	TrialList1_2	1 ver1_main_procedure-3-1	227	TrialProc1	TrialList1																																1	4	65								prime_left.png	target_left.png	left	color_purple.png	Cued	d	neut	300	75	1	1021541	0	-1	13	1020042	1021541	1021541	0	0	0	0	1021541	1021541	1021540	0	0	20	3	1021591	-1	1022009	1	418	d	d	260	10	1021851	0	0	0	0			-1021851	11	1022021	-1	310	1	prime_left.png																																
228	3	TrialList1_8	1 ver1_main_procedure-3-1	228	TrialProc1	TrialList1																																1	4	66								prime_right.png	target_both.png	left	color_yellow.png	Free	dl	neut	450	75	0	1024142	1	-1	13	1022643	1024143	1024143	0	0	0	1	1024143	1024142	1024142	0	1	21	2	1024192	-1	1024529	0	337	l	dl	261	11	1024453	0	0	0	0			-1024453	13	1024543	-1	460	2	prime_right.png																																
229	3	TrialList1_3	1 ver1_main_procedure-3-1	229	TrialProc1	TrialList1																																1	4	67								prime_right.png	target_left.png	left	color_orange.png	Cued	d	incomp	150	25	1	1026814	0	-1	13	1025315	1026814	1026814	0	0	0	0	1026814	1026814	1026813	0	0	20	3	1026864	-1	1027201	1	337	d	d	260	10	1027124	0	0	0	0			-1027124	12	1027214	-1	160																																		
230	3	TrialList1_4	1 ver1_main_procedure-3-1	230	TrialProc1	TrialList1																																1	4	68								prime_right.png	target_right.png	right	color_green.png	Cued	l	comp	300	25	0	1029185	1	-1	13	1027686	1029186	1029186	0	0	0	0	1029185	1029185	1029185	0	1	20	3	1029235	-1	1029537	1	302	l	l	261	11	1029496	0	0	0	0			-1029496	8	1029546	-1	310																																		
231	3	TrialList1_1	1 ver1_main_procedure-3-1	231	TrialProc1	TrialList1																																1	4	69								prime_left.png	target_left.png	left	color_blue.png	Cued	d	comp	150	25	1	1031667	0	-1	13	1030168	1031667	1031667	0	0	0	0	1031667	1031667	1031666	0	0	20	3	1031717	-1	1032041	1	324	d	d	260	10	1031977	0	0	0	0			-1031977	5	1032047	-1	160																																		
232	3	TrialList1_4	1 ver1_main_procedure-3-1	232	TrialProc1	TrialList1																																1	4	70								prime_right.png	target_right.png	right	color_green.png	Cued	l	comp	450	25	1	1034018	0	-1	13	1032519	1034018	1034018	0	0	0	0	1034018	1034018	1034017	0	0	20	3	1034068	-1	1034370	1	302	l	l	261	11	1034329	0	0	0	0			-1034329	8	1034378	-1	461																																		
233	3	TrialList1_2	1 ver1_main_procedure-3-1	233	TrialProc1	TrialList1																																1	4	71								prime_left.png	target_left.png	left	color_purple.png	Cued	d	neut	150	25	1	1036650	0	-1	13	1035151	1036650	1036650	0	0	0	0	1036650	1036650	1036649	0	0	20	3	1036700	-1	1037010	1	310	d	d	260	10	1036960	0	0	0	0			-1036960	10	1037020	-1	160	1	prime_left.png																																
234	3	TrialList1_6	1 ver1_main_procedure-3-1	234	TrialProc1	TrialList1																																1	4	72								prime_left.png	target_right.png	right	color_red.png	Cued	l	incomp	450	75	1	1038991	0	-1	13	1037492	1038991	1038991	0	0	0	0	1038991	1038991	1038990	0	0	20	3	1039041	-1	1039346	1	305	l	l	260	10	1039301	0	0	0	0			-1039301	5	1039351	-1	461																																		
235	3	Ocena_1	1 ver1_main_procedure-3-1	235	DragProc	Ocena																																3	4	5																																																											color_purple.png	color_blue.png	color_red.png	color_orange.png	color_yellow.png	color_green.png		11992	3	color_red.png	1	color_purple.png	2	color_blue.png	4	color_orange.png	6	color_green.png	5	color_yellow.png												
236	3	Ocena_2	1 ver1_main_procedure-3-1	236	EnterProc	Ocena																																3	4	6																																																																				color_red.png		color_purple.png		color_blue.png		color_orange.png		color_green.png		color_yellow.png	10	20	30	40	80	100						
237	2	BlockList_3	1 ver1_main_procedure-3-1	237	BlockProc1	BlockList																																1	4	3																																																																																					no		{SPACE}	d		
238	3	TrialList1_4	1 ver1_main_procedure-3-1	238	TrialProc1	TrialList1																																2	5	73								prime_right.png	target_right.png	right	color_red.png	Cued	l	comp	150	75	0	1081986	1	-1	13	1080487	1081987	1081987	0	0	0	0	1081986	1081986	1081986	0	1	20	3	1082036	-1	1082322	1	286	l	l	261	11	1082297	0	0	0	0			-1082297	14	1082337	-1	160																																		
239	3	TrialList1_6	1 ver1_main_procedure-3-1	239	TrialProc1	TrialList1																																2	5	74								prime_left.png	target_right.png	right		Cued	l	incomp	300	75	1	1084308	0	-1	13	1082809	1084308	1084308	0	0	0	0	1084308	1084308	1084307	0	0	20	3	1084358	-1	1084610	0	252	d	l	0	10	1084618	-999999	0	0	0			0	10	1084628	-1	310																																		
240	3	TrialList1_5	1 ver1_main_procedure-3-1	240	TrialProc1	TrialList1																																2	5	75								prime_right.png	target_right.png	right	color_orange.png	Cued	l	neut	450	25	1	1086749	0	-1	13	1085250	1086749	1086749	0	0	0	0	1086749	1086749	1086748	0	0	20	3	1086799	-1	1087098	1	299	l	l	260	10	1087059	1	0	0	0			-1087059	10	1087109	-1	461	2	prime_right.png																																
241	3	TrialList1_2	1 ver1_main_procedure-3-1	241	TrialProc1	TrialList1																																2	5	76								prime_left.png	target_left.png	left	color_green.png	Cued	d	neut	150	25	1	1089381	0	-1	13	1087881	1089381	1089381	0	0	0	0	1089381	1089381	1089380	0	0	20	3	1089431	-1	1089714	1	283	d	d	260	10	1089691	0	0	0	0			-1089691	6	1089721	-1	160	1	prime_left.png																																
242	3	TrialList1_1	1 ver1_main_procedure-3-1	242	TrialProc1	TrialList1																																2	5	77								prime_left.png	target_left.png	left		Cued	d	comp	300	75	1	1091692	0	-1	13	1090193	1091692	1091692	0	0	0	0	1091692	1091692	1091691	0	0	20	3	1091742	-1	1092042	0	300	l	d	260	10	1092002	0	0	0	0			-1092002	9	1092052	-1	311																																		
243	3	TrialList1_2	1 ver1_main_procedure-3-1	243	TrialProc1	TrialList1																																2	5	78								prime_right.png	target_left.png	left		Cued	d	neut	150	25	1	1094174	0	-1	13	1092675	1094174	1094174	0	0	0	0	1094174	1094174	1094173	0	0	20	3	1094224	-999999	1094458	0	234	l	d	0	0	0	0	0	0	0			0	15	1094474	-1	160	2	prime_right.png																																
244	3	TrialList1_10	1 ver1_main_procedure-3-1	244	TrialProc1	TrialList1																																2	5	79								prime_right.png	target_both.png	right	color_red.png	Free	dl	comp	450	75	1	1096445	0	-1	13	1094946	1096445	1096445	0	0	0	0	1096445	1096445	1096444	0	0	20	3	1096495	-1	1096810	0	315	l	dl	260	10	1096755	0	0	0	0			-1096755	14	1096825	-1	460																																		
245	3	TrialList1_3	1 ver1_main_procedure-3-1	245	TrialProc1	TrialList1																																2	5	80								prime_right.png	target_left.png	left		Cued	d	incomp	450	25	1	1099097	0	-1	13	1097597	1099097	1099097	0	0	0	0	1099097	1099097	1099096	0	0	19	3	1099146	-1	1099402	0	256	l	d	0	11	1099407	-999999	0	0	0			0	10	1099417	-1	460																																		
246	3	TrialList1_11	1 ver1_main_procedure-3-1	246	TrialProc1	TrialList1																																2	5	81								prime_left.png	target_both.png	right	color_orange.png	Free	dl	neut	150	75	1	1101688	0	-1	13	1100189	1101688	1101688	0	0	0	0	1101688	1101688	1101687	0	0	20	3	1101738	-1	1102034	0	296	l	dl	260	10	1101998	0	0	0	0			-1101998	13	1102048	-1	160	1	prime_left.png																																
247	3	TrialList1_5	1 ver1_main_procedure-3-1	247	TrialProc1	TrialList1																																2	5	82								prime_right.png	target_right.png	right	color_orange.png	Cued	l	neut	150	25	1	1104019	1	-1	13	1102520	1104020	1104020	0	0	0	0	1104019	1104019	1104018	0	1	20	3	1104069	-1	1104338	1	269	l	l	261	11	1104330	0	0	0	0			-1104330	11	1104350	-1	160	2	prime_right.png																																
248	3	TrialList1_1	1 ver1_main_procedure-3-1	248	TrialProc1	TrialList1																																2	5	83								prime_left.png	target_left.png	left		Cued	d	comp	300	25	1	1106321	0	-1	13	1104821	1106321	1106321	0	0	0	0	1106321	1106321	1106320	0	0	20	3	1106371	-1	1106754	0	383	l	d	260	10	1106631	0	0	0	0			-1106631	6	1106761	-1	310																																		
249	3	TrialList1_2	1 ver1_main_procedure-3-1	249	TrialProc1	TrialList1																																2	5	84								prime_left.png	target_left.png	left	color_green.png	Cued	d	neut	450	75	1	1108882	0	-1	13	1107383	1108882	1108883	0	0	0	0	1108882	1108882	1108881	0	0	20	3	1108932	-1	1109243	1	311	d	d	260	10	1109192	1	0	0	0			-1109192	9	1109252	-1	461	1	prime_left.png																																
250	3	TrialList1_2	1 ver1_main_procedure-3-1	250	TrialProc1	TrialList1																																2	5	85								prime_right.png	target_left.png	left		Cued	d	neut	150	25	1	1111524	0	-1	13	1110025	1111524	1111524	0	0	0	0	1111524	1111524	1111523	0	0	20	3	1111574	-999999	1111811	0	237	l	d	0	0	0	0	0	0	0			0	13	1111824	-1	160	2	prime_right.png																																
251	3	TrialList1_2	1 ver1_main_procedure-3-1	251	TrialProc1	TrialList1																																2	5	86								prime_left.png	target_left.png	left	color_green.png	Cued	d	neut	450	75	1	1113795	0	-1	13	1112296	1113795	1113795	0	0	0	0	1113795	1113795	1113794	0	0	20	3	1113845	-1	1114259	1	414	d	d	260	10	1114105	0	0	0	0			-1114105	6	1114265	-1	461	1	prime_left.png																																
252	3	TrialList1_10	1 ver1_main_procedure-3-1	252	TrialProc1	TrialList1																																2	5	87								prime_right.png	target_both.png	right	color_red.png	Free	dl	comp	300	75	1	1116537	0	-1	13	1115038	1116537	1116537	0	0	0	0	1116537	1116537	1116536	0	0	20	3	1116587	-1	1116851	0	264	l	dl	260	10	1116847	0	0	0	0			-1116847	6	1116857	-1	310																																		
253	3	TrialList1_9	1 ver1_main_procedure-3-1	253	TrialProc1	TrialList1																																2	5	88								prime_right.png	target_both.png	left	color_red.png	Free	dl	incomp	150	75	1	1118978	0	-1	13	1117479	1118978	1118978	0	0	0	0	1118978	1118978	1118977	0	0	20	3	1119028	-1	1119323	0	295	l	dl	260	10	1119288	1	0	0	0			-1119288	5	1119328	-1	160																																		
254	3	TrialList1_3	1 ver1_main_procedure-3-1	254	TrialProc1	TrialList1																																2	5	89								prime_right.png	target_left.png	left	color_blue.png	Cued	d	incomp	450	75	1	1121300	0	-1	13	1119800	1121300	1121300	0	0	0	0	1121300	1121300	1121299	0	0	20	3	1121350	-1	1121731	1	381	d	d	260	10	1121610	0	0	0	0			-1121610	9	1121740	-1	460																																		
255	3	TrialList1_3	1 ver1_main_procedure-3-1	255	TrialProc1	TrialList1																																2	5	90								prime_right.png	target_left.png	left	color_blue.png	Cued	d	incomp	450	75	1	1124011	0	-1	13	1122512	1124011	1124011	0	0	0	0	1124011	1124011	1124010	0	0	20	3	1124061	-1	1124411	1	350	d	d	260	10	1124321	1	0	0	0			-1124321	10	1124421	-1	461																																		
256	3	TrialList1_7	1 ver1_main_procedure-3-1	256	TrialProc1	TrialList1																																2	5	91								prime_left.png	target_both.png	left	color_purple.png	Free	dl	comp	450	75	1	1126693	0	-1	13	1125194	1126693	1126693	0	0	0	0	1126693	1126693	1126692	0	0	20	3	1126743	-1	1127027	0	284	d	dl	260	10	1127003	0	0	0	0			-1127003	6	1127033	-1	460																																		
257	3	TrialList1_6	1 ver1_main_procedure-3-1	257	TrialProc1	TrialList1																																2	5	92								prime_left.png	target_right.png	right	color_yellow.png	Cued	l	incomp	300	25	1	1129304	0	-1	13	1127805	1129304	1129304	0	0	0	0	1129304	1129304	1129303	0	0	20	3	1129354	-1	1129683	1	329	l	l	260	10	1129614	1	0	0	0			-1129614	11	1129694	-1	311																																		
258	3	TrialList1_7	1 ver1_main_procedure-3-1	258	TrialProc1	TrialList1																																2	5	93								prime_left.png	target_both.png	left	color_purple.png	Free	dl	comp	450	25	1	1131816	0	-1	13	1130316	1131816	1131816	0	0	0	0	1131816	1131816	1131815	0	0	20	3	1131866	-1	1132147	0	281	d	dl	260	10	1132126	0	0	0	0			-1132126	8	1132156	-1	460																																		
259	3	TrialList1_1	1 ver1_main_procedure-3-1	259	TrialProc1	TrialList1																																2	5	94								prime_left.png	target_left.png	left	color_purple.png	Cued	d	comp	450	75	1	1134427	0	-1	13	1132928	1134427	1134427	0	0	0	0	1134427	1134427	1134426	0	0	20	3	1134477	-1	1134859	1	382	d	d	260	10	1134737	1	0	0	0			-1134737	8	1134867	-1	461																																		
260	3	TrialList1_3	1 ver1_main_procedure-3-1	260	TrialProc1	TrialList1																																2	5	95								prime_right.png	target_left.png	left	color_blue.png	Cued	d	incomp	450	75	1	1137139	0	-1	13	1135640	1137139	1137139	0	0	0	0	1137139	1137139	1137138	0	0	20	3	1137189	-1	1137531	1	342	d	d	260	10	1137449	0	0	0	0			-1137449	8	1137539	-1	460																																		
261	3	TrialList1_6	1 ver1_main_procedure-3-1	261	TrialProc1	TrialList1																																2	5	96								prime_left.png	target_right.png	right	color_yellow.png	Cued	l	incomp	450	75	1	1139810	1	-1	13	1138311	1139811	1139811	0	0	0	0	1139810	1139810	1139809	0	1	20	3	1139860	-1	1140195	1	335	l	l	261	11	1140121	0	0	0	0			-1140121	5	1140201	-1	460																																		
262	3	TrialList1_4	1 ver1_main_procedure-3-1	262	TrialProc1	TrialList1																																2	5	97								prime_right.png	target_right.png	right	color_red.png	Cued	l	comp	300	25	1	1142472	0	-1	13	1140973	1142472	1142472	0	0	0	0	1142472	1142472	1142471	0	0	20	3	1142522	-1	1142771	1	249	l	l	0	0	0	-999999	0	0	0			0	10	1142782	-1	310																																		
263	3	TrialList1_6	1 ver1_main_procedure-3-1	263	TrialProc1	TrialList1																																2	5	98								prime_left.png	target_right.png	right	color_yellow.png	Cued	l	incomp	450	25	0	1144903	1	-1	13	1143404	1144904	1144904	0	0	0	0	1144903	1144903	1144903	0	1	20	3	1144953	-1	1145219	1	266	l	l	261	11	1145214	0	0	0	0			-1145214	14	1145234	-1	460																																		
264	3	TrialList1_12	1 ver1_main_procedure-3-1	264	TrialProc1	TrialList1																																2	5	99								prime_left.png	target_both.png	right	color_purple.png	Free	dl	incomp	300	25	1	1147505	0	-1	13	1146006	1147505	1147505	0	0	0	0	1147505	1147505	1147504	0	0	20	3	1147555	-1	1147859	0	304	d	dl	260	10	1147815	0	0	0	0			-1147815	5	1147865	-1	310																																		
265	3	TrialList1_9	1 ver1_main_procedure-3-1	265	TrialProc1	TrialList1																																2	5	100								prime_right.png	target_both.png	left	color_red.png	Free	dl	incomp	150	75	1	1149986	1	-1	13	1148487	1149987	1149987	0	0	0	0	1149986	1149986	1149985	0	1	20	3	1150036	-1	1150347	0	311	l	dl	261	11	1150297	0	0	0	0			-1150297	9	1150357	-1	160																																		
266	3	TrialList1_9	1 ver1_main_procedure-3-1	266	TrialProc1	TrialList1																																2	5	101								prime_right.png	target_both.png	left	color_red.png	Free	dl	incomp	450	25	1	1152328	0	-1	13	1150829	1152328	1152328	0	0	0	0	1152328	1152328	1152327	0	0	20	3	1152378	-1	1152667	0	289	l	dl	260	10	1152638	0	0	0	0			-1152638	10	1152678	-1	460																																		
