ExperimentName	Subject	Session	Age	Clock.Information	DataFile.Basename	Display.RefreshRate	ExperimentVersion	Group	Name	RandomSeed	Recznosc	ResearcherID	RuntimeVersion	SessionDate	SessionStartDateTimeUtc	SessionTime	Sex	StudioVersion	Block	BlockList	BlockList.Cycle	BlockList.Sample	BlockNumber	GoodBye.RESP	GoodBye2.RESP	GoodByeList	GoodByeList.Cycle	GoodByeList.Sample	InstrList	InstrList.Cycle	InstrList.Sample	Instructions3.RESP	Instructions4.RESP	Instructions5.RESP	kobieta_S1	kobieta_S2	kobieta_S3	kobieta_S4	kobieta_S5	mezczyzna_S1	mezczyzna_S2	mezczyzna_S3	mezczyzna_S4	mezczyzna_S5	NextBlock.RESP	NextBlock0.RESP	planowanie	PracticeMode	Procedure[Block]	proszenie	Running[Block]	TrainingList	TrainingList.Cycle	TrainingList.Sample	WordList	WordList1	wykonanie	zauwazenie	zrozumienie	Trial	ChoiceType	CorrectRespon	Effect	ErrorText	Fixation2.DurationError	Fixation2.OnsetDelay	Fixation2.OnsetTime	Fixation2.OnsetToOnsetTime	GoalRespInd1	GoalRespInd2	GoalRespInd3	GoalRespInd4	GoalRespInd5	GoalRespInd6	GoalRespName1	GoalRespName2	GoalRespName3	GoalRespName4	GoalRespName5	GoalRespName6	kol1	kol2	kol3	kol4	kol5	kol6	NeutralPrimeList1	Ocena	Ocena.Cycle	Ocena.Sample	OverallRT	Posit	Prime	Prime.ActionDelay	Prime.ActionTime	Prime.CustomOffsetTime	Prime.CustomOnsetTime	Prime.Duration	Prime.DurationError	Prime.FinishTime	Prime.OffsetDelay	Prime.OffsetTime	Prime.OnsetDelay	Prime.OnsetTime	Prime.OnsetToOnsetTime	Prime.PendingInputMasks	Prime.PreRelease	Prime.StartTime	Prime.TargetOffsetTime	Prime.TargetOnsetTime	Prime.TimingMode	PrimeChoice	Procedure[Trial]	Resp	RespWin.ACC	RespWin.CRESP	RespWin.DurationError	RespWin.OnsetDelay	RespWin.OnsetTime	RespWin.OnsetToOnsetTime	RespWin.RESP	RespWin.RT	RespWin.RTTime	Running[Trial]	Target	TargetSlide.ACC	TargetSlide.CRESP	TargetSlide.DurationError	TargetSlide.OnsetDelay	TargetSlide.OnsetTime	TargetSlide.OnsetToOnsetTime	TargetSlide.RESP	TargetSlide.RT	TargetSlide.RTTime	TargetTraining	TBox1	TBox2	TBox3	TBox4	TBox5	TBox6	TrainingList1	TrainingList1.Cycle	TrainingList1.Sample	TrCorrectResp	TrialList1	TrialList1.Cycle	TrialList1.Sample	TrialList2	TrialList2.Cycle	TrialList2.Sample	TrialType	TrPosit	TrWaitTime	WaitTime
1 ver1_main_procedure	11	1	22	<?xml version="1.0"?>\n<Clock xmlns:dt="urn:schemas-microsoft-com:datatypes"><Description dt:dt="string">E-Prime Primary Realtime Clock</Description><StartTime><Timestamp dt:dt="int">0</Timestamp><DateUtc dt:dt="string">2015-08-11T10:01:59Z</DateUtc></StartTime><FrequencyChanges><FrequencyChange><Frequency dt:dt="r8">2612324</Frequency><Timestamp dt:dt="r8">29461749879</Timestamp><Current dt:dt="r8">0</Current><DateUtc dt:dt="string">2015-08-11T10:01:59Z</DateUtc></FrequencyChange></FrequencyChanges></Clock>\n	1 ver1_main_procedure-11-1	99.939	1.0.0.880	1	jł	-602518061	prawa	1	2.0.10.182	08-11-2015	2015-08-11 10:01:59	12:01:59	mezczyzna	2.0.10.92	1										1	1	1	{SPACE}	{SPACE}	l	poproszona	planowała	zrozumiałaś	wykonała		poproszony	planował	zrozumiałeś	wykonał				planował		InstrProc	poproszony	InstrList				1		wykonał		zrozumiałeś																																																																																																
1 ver1_main_procedure	11	1	22	<?xml version="1.0"?>\n<Clock xmlns:dt="urn:schemas-microsoft-com:datatypes"><Description dt:dt="string">E-Prime Primary Realtime Clock</Description><StartTime><Timestamp dt:dt="int">0</Timestamp><DateUtc dt:dt="string">2015-08-11T10:01:59Z</DateUtc></StartTime><FrequencyChanges><FrequencyChange><Frequency dt:dt="r8">2612324</Frequency><Timestamp dt:dt="r8">29461749879</Timestamp><Current dt:dt="r8">0</Current><DateUtc dt:dt="string">2015-08-11T10:01:59Z</DateUtc></FrequencyChange></FrequencyChanges></Clock>\n	1 ver1_main_procedure-11-1	99.939	1.0.0.880	1	jł	-602518061	prawa	1	2.0.10.182	08-11-2015	2015-08-11 10:01:59	12:01:59	mezczyzna	2.0.10.92	2																														TrainingProc1		TrainingList	1	1	1						1																																																					TrainProc											TrainingList1											target_left.png							1	1	1	d								25	150	
1 ver1_main_procedure	11	1	22	<?xml version="1.0"?>\n<Clock xmlns:dt="urn:schemas-microsoft-com:datatypes"><Description dt:dt="string">E-Prime Primary Realtime Clock</Description><StartTime><Timestamp dt:dt="int">0</Timestamp><DateUtc dt:dt="string">2015-08-11T10:01:59Z</DateUtc></StartTime><FrequencyChanges><FrequencyChange><Frequency dt:dt="r8">2612324</Frequency><Timestamp dt:dt="r8">29461749879</Timestamp><Current dt:dt="r8">0</Current><DateUtc dt:dt="string">2015-08-11T10:01:59Z</DateUtc></FrequencyChange></FrequencyChanges></Clock>\n	1 ver1_main_procedure-11-1	99.939	1.0.0.880	1	jł	-602518061	prawa	1	2.0.10.182	08-11-2015	2015-08-11 10:01:59	12:01:59	mezczyzna	2.0.10.92	2																														TrainingProc1		TrainingList	1	1	1						2																																																					TrainProc											TrainingList1											target_both.png							3	1	2	dl								25	150	
1 ver1_main_procedure	11	1	22	<?xml version="1.0"?>\n<Clock xmlns:dt="urn:schemas-microsoft-com:datatypes"><Description dt:dt="string">E-Prime Primary Realtime Clock</Description><StartTime><Timestamp dt:dt="int">0</Timestamp><DateUtc dt:dt="string">2015-08-11T10:01:59Z</DateUtc></StartTime><FrequencyChanges><FrequencyChange><Frequency dt:dt="r8">2612324</Frequency><Timestamp dt:dt="r8">29461749879</Timestamp><Current dt:dt="r8">0</Current><DateUtc dt:dt="string">2015-08-11T10:01:59Z</DateUtc></FrequencyChange></FrequencyChanges></Clock>\n	1 ver1_main_procedure-11-1	99.939	1.0.0.880	1	jł	-602518061	prawa	1	2.0.10.182	08-11-2015	2015-08-11 10:01:59	12:01:59	mezczyzna	2.0.10.92	2																														TrainingProc1		TrainingList	1	1	1						3																																																					TrainProc											TrainingList1											target_right.png							2	1	3	l								25	450	
1 ver1_main_procedure	11	1	22	<?xml version="1.0"?>\n<Clock xmlns:dt="urn:schemas-microsoft-com:datatypes"><Description dt:dt="string">E-Prime Primary Realtime Clock</Description><StartTime><Timestamp dt:dt="int">0</Timestamp><DateUtc dt:dt="string">2015-08-11T10:01:59Z</DateUtc></StartTime><FrequencyChanges><FrequencyChange><Frequency dt:dt="r8">2612324</Frequency><Timestamp dt:dt="r8">29461749879</Timestamp><Current dt:dt="r8">0</Current><DateUtc dt:dt="string">2015-08-11T10:01:59Z</DateUtc></FrequencyChange></FrequencyChanges></Clock>\n	1 ver1_main_procedure-11-1	99.939	1.0.0.880	1	jł	-602518061	prawa	1	2.0.10.182	08-11-2015	2015-08-11 10:01:59	12:01:59	mezczyzna	2.0.10.92	2																														TrainingProc1		TrainingList	1	1	1						4																																																					TrainProc											TrainingList1											target_right.png							2	1	4	l								25	150	
1 ver1_main_procedure	11	1	22	<?xml version="1.0"?>\n<Clock xmlns:dt="urn:schemas-microsoft-com:datatypes"><Description dt:dt="string">E-Prime Primary Realtime Clock</Description><StartTime><Timestamp dt:dt="int">0</Timestamp><DateUtc dt:dt="string">2015-08-11T10:01:59Z</DateUtc></StartTime><FrequencyChanges><FrequencyChange><Frequency dt:dt="r8">2612324</Frequency><Timestamp dt:dt="r8">29461749879</Timestamp><Current dt:dt="r8">0</Current><DateUtc dt:dt="string">2015-08-11T10:01:59Z</DateUtc></FrequencyChange></FrequencyChanges></Clock>\n	1 ver1_main_procedure-11-1	99.939	1.0.0.880	1	jł	-602518061	prawa	1	2.0.10.182	08-11-2015	2015-08-11 10:01:59	12:01:59	mezczyzna	2.0.10.92	2																														TrainingProc1		TrainingList	1	1	1						5																																																					TrainProc											TrainingList1											target_both.png							3	1	5	dl								75	450	
1 ver1_main_procedure	11	1	22	<?xml version="1.0"?>\n<Clock xmlns:dt="urn:schemas-microsoft-com:datatypes"><Description dt:dt="string">E-Prime Primary Realtime Clock</Description><StartTime><Timestamp dt:dt="int">0</Timestamp><DateUtc dt:dt="string">2015-08-11T10:01:59Z</DateUtc></StartTime><FrequencyChanges><FrequencyChange><Frequency dt:dt="r8">2612324</Frequency><Timestamp dt:dt="r8">29461749879</Timestamp><Current dt:dt="r8">0</Current><DateUtc dt:dt="string">2015-08-11T10:01:59Z</DateUtc></FrequencyChange></FrequencyChanges></Clock>\n	1 ver1_main_procedure-11-1	99.939	1.0.0.880	1	jł	-602518061	prawa	1	2.0.10.182	08-11-2015	2015-08-11 10:01:59	12:01:59	mezczyzna	2.0.10.92	2																														TrainingProc1		TrainingList	1	1	1						6																																																					TrainProc											TrainingList1											target_left.png							1	1	6	d								25	150	
1 ver1_main_procedure	11	1	22	<?xml version="1.0"?>\n<Clock xmlns:dt="urn:schemas-microsoft-com:datatypes"><Description dt:dt="string">E-Prime Primary Realtime Clock</Description><StartTime><Timestamp dt:dt="int">0</Timestamp><DateUtc dt:dt="string">2015-08-11T10:01:59Z</DateUtc></StartTime><FrequencyChanges><FrequencyChange><Frequency dt:dt="r8">2612324</Frequency><Timestamp dt:dt="r8">29461749879</Timestamp><Current dt:dt="r8">0</Current><DateUtc dt:dt="string">2015-08-11T10:01:59Z</DateUtc></FrequencyChange></FrequencyChanges></Clock>\n	1 ver1_main_procedure-11-1	99.939	1.0.0.880	1	jł	-602518061	prawa	1	2.0.10.182	08-11-2015	2015-08-11 10:01:59	12:01:59	mezczyzna	2.0.10.92	2																														TrainingProc1		TrainingList	1	1	1						7																																																					TrainProc											TrainingList1											target_both.png							3	1	7	dl								25	450	
1 ver1_main_procedure	11	1	22	<?xml version="1.0"?>\n<Clock xmlns:dt="urn:schemas-microsoft-com:datatypes"><Description dt:dt="string">E-Prime Primary Realtime Clock</Description><StartTime><Timestamp dt:dt="int">0</Timestamp><DateUtc dt:dt="string">2015-08-11T10:01:59Z</DateUtc></StartTime><FrequencyChanges><FrequencyChange><Frequency dt:dt="r8">2612324</Frequency><Timestamp dt:dt="r8">29461749879</Timestamp><Current dt:dt="r8">0</Current><DateUtc dt:dt="string">2015-08-11T10:01:59Z</DateUtc></FrequencyChange></FrequencyChanges></Clock>\n	1 ver1_main_procedure-11-1	99.939	1.0.0.880	1	jł	-602518061	prawa	1	2.0.10.182	08-11-2015	2015-08-11 10:01:59	12:01:59	mezczyzna	2.0.10.92	2																														TrainingProc1		TrainingList	1	1	1						8																																																					TrainProc											TrainingList1											target_left.png							1	1	8	d								25	150	
1 ver1_main_procedure	11	1	22	<?xml version="1.0"?>\n<Clock xmlns:dt="urn:schemas-microsoft-com:datatypes"><Description dt:dt="string">E-Prime Primary Realtime Clock</Description><StartTime><Timestamp dt:dt="int">0</Timestamp><DateUtc dt:dt="string">2015-08-11T10:01:59Z</DateUtc></StartTime><FrequencyChanges><FrequencyChange><Frequency dt:dt="r8">2612324</Frequency><Timestamp dt:dt="r8">29461749879</Timestamp><Current dt:dt="r8">0</Current><DateUtc dt:dt="string">2015-08-11T10:01:59Z</DateUtc></FrequencyChange></FrequencyChanges></Clock>\n	1 ver1_main_procedure-11-1	99.939	1.0.0.880	1	jł	-602518061	prawa	1	2.0.10.182	08-11-2015	2015-08-11 10:01:59	12:01:59	mezczyzna	2.0.10.92	2																														TrainingProc1		TrainingList	1	1	1						9																																																					TrainProc											TrainingList1											target_right.png							2	1	9	l								25	300	
1 ver1_main_procedure	11	1	22	<?xml version="1.0"?>\n<Clock xmlns:dt="urn:schemas-microsoft-com:datatypes"><Description dt:dt="string">E-Prime Primary Realtime Clock</Description><StartTime><Timestamp dt:dt="int">0</Timestamp><DateUtc dt:dt="string">2015-08-11T10:01:59Z</DateUtc></StartTime><FrequencyChanges><FrequencyChange><Frequency dt:dt="r8">2612324</Frequency><Timestamp dt:dt="r8">29461749879</Timestamp><Current dt:dt="r8">0</Current><DateUtc dt:dt="string">2015-08-11T10:01:59Z</DateUtc></FrequencyChange></FrequencyChanges></Clock>\n	1 ver1_main_procedure-11-1	99.939	1.0.0.880	1	jł	-602518061	prawa	1	2.0.10.182	08-11-2015	2015-08-11 10:01:59	12:01:59	mezczyzna	2.0.10.92	3	3	1	1																							l	{SPACE}		no	BlockProc1		BlockList									1	Cued	l	color_yellow.png		-1	6	315188	461																								75	prime_right.png	0	314288	0	0	13	0	314288	0	314288	1	314288	20	0	-1	312789	314288	314287	0		TrialProc1	right	0		0	20	314608	-314608		0	0	TrialList1	target_right.png	1	l	-1	3	314338	270	l	842	315180												4	1	1				comp			450
1 ver1_main_procedure	11	1	22	<?xml version="1.0"?>\n<Clock xmlns:dt="urn:schemas-microsoft-com:datatypes"><Description dt:dt="string">E-Prime Primary Realtime Clock</Description><StartTime><Timestamp dt:dt="int">0</Timestamp><DateUtc dt:dt="string">2015-08-11T10:01:59Z</DateUtc></StartTime><FrequencyChanges><FrequencyChange><Frequency dt:dt="r8">2612324</Frequency><Timestamp dt:dt="r8">29461749879</Timestamp><Current dt:dt="r8">0</Current><DateUtc dt:dt="string">2015-08-11T10:01:59Z</DateUtc></FrequencyChange></FrequencyChanges></Clock>\n	1 ver1_main_procedure-11-1	99.939	1.0.0.880	1	jł	-602518061	prawa	1	2.0.10.182	08-11-2015	2015-08-11 10:01:59	12:01:59	mezczyzna	2.0.10.92	3	3	1	1																							l	{SPACE}		no	BlockProc1		BlockList									2	Cued	l	color_yellow.png		-1	7	317940	460																								75	prime_right.png	0	317460	0	0	13	0	317460	0	317460	1	317460	20	0	-1	315961	317460	317459	0		TrialProc1	right	0		0	10	317770	-317770		0	0	TrialList1	target_right.png	1	l	-1	3	317510	260	l	422	317932												4	1	2				comp			450
1 ver1_main_procedure	11	1	22	<?xml version="1.0"?>\n<Clock xmlns:dt="urn:schemas-microsoft-com:datatypes"><Description dt:dt="string">E-Prime Primary Realtime Clock</Description><StartTime><Timestamp dt:dt="int">0</Timestamp><DateUtc dt:dt="string">2015-08-11T10:01:59Z</DateUtc></StartTime><FrequencyChanges><FrequencyChange><Frequency dt:dt="r8">2612324</Frequency><Timestamp dt:dt="r8">29461749879</Timestamp><Current dt:dt="r8">0</Current><DateUtc dt:dt="string">2015-08-11T10:01:59Z</DateUtc></FrequencyChange></FrequencyChanges></Clock>\n	1 ver1_main_procedure-11-1	99.939	1.0.0.880	1	jł	-602518061	prawa	1	2.0.10.182	08-11-2015	2015-08-11 10:01:59	12:01:59	mezczyzna	2.0.10.92	3	3	1	1																							l	{SPACE}		no	BlockProc1		BlockList									3	Cued	l	color_orange.png		-1	9	320622	460																								75	prime_left.png	0	320211	0	0	13	1	320212	1	320212	1	320211	20	0	-1	318712	320211	320210	0		TrialProc1	right	0		0	11	320522	-320522		0	0	TrialList1	target_right.png	1	l	-1	3	320261	261	l	351	320612												6	1	3				incomp			450
1 ver1_main_procedure	11	1	22	<?xml version="1.0"?>\n<Clock xmlns:dt="urn:schemas-microsoft-com:datatypes"><Description dt:dt="string">E-Prime Primary Realtime Clock</Description><StartTime><Timestamp dt:dt="int">0</Timestamp><DateUtc dt:dt="string">2015-08-11T10:01:59Z</DateUtc></StartTime><FrequencyChanges><FrequencyChange><Frequency dt:dt="r8">2612324</Frequency><Timestamp dt:dt="r8">29461749879</Timestamp><Current dt:dt="r8">0</Current><DateUtc dt:dt="string">2015-08-11T10:01:59Z</DateUtc></FrequencyChange></FrequencyChanges></Clock>\n	1 ver1_main_procedure-11-1	99.939	1.0.0.880	1	jł	-602518061	prawa	1	2.0.10.182	08-11-2015	2015-08-11 10:01:59	12:01:59	mezczyzna	2.0.10.92	3	3	1	1																							l	{SPACE}		no	BlockProc1		BlockList									4	Cued	d	color_blue.png		-1	6	323323	160																			2					25	prime_right.png	0	322893	0	0	13	0	322893	0	322893	1	322893	20	0	-1	321394	322893	322892	0	prime_right.png	TrialProc1	left	0		0	10	323203	-323203		0	0	TrialList1	target_left.png	1	d	-1	3	322943	260	d	373	323316												2	1	4				neut			150
1 ver1_main_procedure	11	1	22	<?xml version="1.0"?>\n<Clock xmlns:dt="urn:schemas-microsoft-com:datatypes"><Description dt:dt="string">E-Prime Primary Realtime Clock</Description><StartTime><Timestamp dt:dt="int">0</Timestamp><DateUtc dt:dt="string">2015-08-11T10:01:59Z</DateUtc></StartTime><FrequencyChanges><FrequencyChange><Frequency dt:dt="r8">2612324</Frequency><Timestamp dt:dt="r8">29461749879</Timestamp><Current dt:dt="r8">0</Current><DateUtc dt:dt="string">2015-08-11T10:01:59Z</DateUtc></FrequencyChange></FrequencyChanges></Clock>\n	1 ver1_main_procedure-11-1	99.939	1.0.0.880	1	jł	-602518061	prawa	1	2.0.10.182	08-11-2015	2015-08-11 10:01:59	12:01:59	mezczyzna	2.0.10.92	3	3	1	1																							l	{SPACE}		no	BlockProc1		BlockList									5	Free	dl	color_yellow.png		-1	6	326035	160																								25	prime_right.png	0	325294	0	0	13	0	325295	0	325294	1	325294	20	0	-1	323795	325294	325293	0		TrialProc1	right	0		0	11	325605	-325605		0	0	TrialList1	target_both.png	0	dl	-1	3	325344	261	l	684	326028												10	1	5				comp			150
1 ver1_main_procedure	11	1	22	<?xml version="1.0"?>\n<Clock xmlns:dt="urn:schemas-microsoft-com:datatypes"><Description dt:dt="string">E-Prime Primary Realtime Clock</Description><StartTime><Timestamp dt:dt="int">0</Timestamp><DateUtc dt:dt="string">2015-08-11T10:01:59Z</DateUtc></StartTime><FrequencyChanges><FrequencyChange><Frequency dt:dt="r8">2612324</Frequency><Timestamp dt:dt="r8">29461749879</Timestamp><Current dt:dt="r8">0</Current><DateUtc dt:dt="string">2015-08-11T10:01:59Z</DateUtc></FrequencyChange></FrequencyChanges></Clock>\n	1 ver1_main_procedure-11-1	99.939	1.0.0.880	1	jł	-602518061	prawa	1	2.0.10.182	08-11-2015	2015-08-11 10:01:59	12:01:59	mezczyzna	2.0.10.92	3	3	1	1																							l	{SPACE}		no	BlockProc1		BlockList									6	Cued	l	color_yellow.png		-1	5	328506	310																								25	prime_right.png	0	328006	0	0	13	0	328006	0	328006	1	328006	20	0	-1	326507	328006	328005	0		TrialProc1	right	0		0	10	328316	-328316		0	0	TrialList1	target_right.png	1	l	-1	3	328056	260	l	444	328500												4	1	6				comp			300
1 ver1_main_procedure	11	1	22	<?xml version="1.0"?>\n<Clock xmlns:dt="urn:schemas-microsoft-com:datatypes"><Description dt:dt="string">E-Prime Primary Realtime Clock</Description><StartTime><Timestamp dt:dt="int">0</Timestamp><DateUtc dt:dt="string">2015-08-11T10:01:59Z</DateUtc></StartTime><FrequencyChanges><FrequencyChange><Frequency dt:dt="r8">2612324</Frequency><Timestamp dt:dt="r8">29461749879</Timestamp><Current dt:dt="r8">0</Current><DateUtc dt:dt="string">2015-08-11T10:01:59Z</DateUtc></FrequencyChange></FrequencyChanges></Clock>\n	1 ver1_main_procedure-11-1	99.939	1.0.0.880	1	jł	-602518061	prawa	1	2.0.10.182	08-11-2015	2015-08-11 10:01:59	12:01:59	mezczyzna	2.0.10.92	3	3	1	1																							l	{SPACE}		no	BlockProc1		BlockList									7	Cued	l	color_orange.png		-1	13	331178	160																								25	prime_left.png	1	330628	0	0	13	1	330628	1	330628	0	330627	20	0	-1	329128	330627	330627	0		TrialProc1	right	0		0	10	330938	-330938		0	0	TrialList1	target_right.png	1	l	-1	4	330678	260	l	486	331164												6	1	7				incomp			150
1 ver1_main_procedure	11	1	22	<?xml version="1.0"?>\n<Clock xmlns:dt="urn:schemas-microsoft-com:datatypes"><Description dt:dt="string">E-Prime Primary Realtime Clock</Description><StartTime><Timestamp dt:dt="int">0</Timestamp><DateUtc dt:dt="string">2015-08-11T10:01:59Z</DateUtc></StartTime><FrequencyChanges><FrequencyChange><Frequency dt:dt="r8">2612324</Frequency><Timestamp dt:dt="r8">29461749879</Timestamp><Current dt:dt="r8">0</Current><DateUtc dt:dt="string">2015-08-11T10:01:59Z</DateUtc></FrequencyChange></FrequencyChanges></Clock>\n	1 ver1_main_procedure-11-1	99.939	1.0.0.880	1	jł	-602518061	prawa	1	2.0.10.182	08-11-2015	2015-08-11 10:01:59	12:01:59	mezczyzna	2.0.10.92	3	3	1	1																							l	{SPACE}		no	BlockProc1		BlockList									8	Cued	l	color_yellow.png		-1	12	333569	461																								25	prime_right.png	0	333149	0	0	13	0	333149	0	333149	1	333149	20	0	-1	331650	333149	333148	0		TrialProc1	right	0		0	10	333459	-333459		0	0	TrialList1	target_right.png	1	l	-1	3	333199	260	l	357	333556												4	1	8				comp			450
1 ver1_main_procedure	11	1	22	<?xml version="1.0"?>\n<Clock xmlns:dt="urn:schemas-microsoft-com:datatypes"><Description dt:dt="string">E-Prime Primary Realtime Clock</Description><StartTime><Timestamp dt:dt="int">0</Timestamp><DateUtc dt:dt="string">2015-08-11T10:01:59Z</DateUtc></StartTime><FrequencyChanges><FrequencyChange><Frequency dt:dt="r8">2612324</Frequency><Timestamp dt:dt="r8">29461749879</Timestamp><Current dt:dt="r8">0</Current><DateUtc dt:dt="string">2015-08-11T10:01:59Z</DateUtc></FrequencyChange></FrequencyChanges></Clock>\n	1 ver1_main_procedure-11-1	99.939	1.0.0.880	1	jł	-602518061	prawa	1	2.0.10.182	08-11-2015	2015-08-11 10:01:59	12:01:59	mezczyzna	2.0.10.92	3	3	1	1																							l	{SPACE}		no	BlockProc1		BlockList									9	Cued	d	color_red.png		-1	12	336241	160																								25	prime_left.png	0	335841	0	0	13	0	335841	0	335841	1	335841	20	0	-1	334341	335841	335840	0		TrialProc1	left	0		0	10	336151	-336151		0	0	TrialList1	target_left.png	1	d	-1	3	335891	260	d	337	336228												1	1	9				comp			150
1 ver1_main_procedure	11	1	22	<?xml version="1.0"?>\n<Clock xmlns:dt="urn:schemas-microsoft-com:datatypes"><Description dt:dt="string">E-Prime Primary Realtime Clock</Description><StartTime><Timestamp dt:dt="int">0</Timestamp><DateUtc dt:dt="string">2015-08-11T10:01:59Z</DateUtc></StartTime><FrequencyChanges><FrequencyChange><Frequency dt:dt="r8">2612324</Frequency><Timestamp dt:dt="r8">29461749879</Timestamp><Current dt:dt="r8">0</Current><DateUtc dt:dt="string">2015-08-11T10:01:59Z</DateUtc></FrequencyChange></FrequencyChanges></Clock>\n	1 ver1_main_procedure-11-1	99.939	1.0.0.880	1	jł	-602518061	prawa	1	2.0.10.182	08-11-2015	2015-08-11 10:01:59	12:01:59	mezczyzna	2.0.10.92	3	3	1	1																							l	{SPACE}		no	BlockProc1		BlockList									10	Free	dl	color_blue.png		-1	5	339122	161																			1					25	prime_left.png	0	338212	0	0	13	0	338212	0	338212	1	338212	20	0	-1	336713	338212	338211	0	prime_left.png	TrialProc1	left	0		0	10	338522	-338522		0	0	TrialList1	target_both.png	0	dl	-1	3	338262	260	d	854	339116												8	1	10				neut			150
1 ver1_main_procedure	11	1	22	<?xml version="1.0"?>\n<Clock xmlns:dt="urn:schemas-microsoft-com:datatypes"><Description dt:dt="string">E-Prime Primary Realtime Clock</Description><StartTime><Timestamp dt:dt="int">0</Timestamp><DateUtc dt:dt="string">2015-08-11T10:01:59Z</DateUtc></StartTime><FrequencyChanges><FrequencyChange><Frequency dt:dt="r8">2612324</Frequency><Timestamp dt:dt="r8">29461749879</Timestamp><Current dt:dt="r8">0</Current><DateUtc dt:dt="string">2015-08-11T10:01:59Z</DateUtc></FrequencyChange></FrequencyChanges></Clock>\n	1 ver1_main_procedure-11-1	99.939	1.0.0.880	1	jł	-602518061	prawa	1	2.0.10.182	08-11-2015	2015-08-11 10:01:59	12:01:59	mezczyzna	2.0.10.92	3	3	1	1																							l	{SPACE}		no	BlockProc1		BlockList									11	Cued	l	color_green.png		-1	13	341514	310																			2					75	prime_right.png	0	341094	0	0	13	0	341094	0	341094	1	341094	20	0	-1	339594	341094	341093	0	prime_right.png	TrialProc1	right	0		0	10	341404	-341404		0	0	TrialList1	target_right.png	1	l	-1	3	341144	260	l	356	341500												5	1	11				neut			300
1 ver1_main_procedure	11	1	22	<?xml version="1.0"?>\n<Clock xmlns:dt="urn:schemas-microsoft-com:datatypes"><Description dt:dt="string">E-Prime Primary Realtime Clock</Description><StartTime><Timestamp dt:dt="int">0</Timestamp><DateUtc dt:dt="string">2015-08-11T10:01:59Z</DateUtc></StartTime><FrequencyChanges><FrequencyChange><Frequency dt:dt="r8">2612324</Frequency><Timestamp dt:dt="r8">29461749879</Timestamp><Current dt:dt="r8">0</Current><DateUtc dt:dt="string">2015-08-11T10:01:59Z</DateUtc></FrequencyChange></FrequencyChanges></Clock>\n	1 ver1_main_procedure-11-1	99.939	1.0.0.880	1	jł	-602518061	prawa	1	2.0.10.182	08-11-2015	2015-08-11 10:01:59	12:01:59	mezczyzna	2.0.10.92	3	3	1	1																							l	{SPACE}		no	BlockProc1		BlockList									12	Cued	d	color_purple.png		-1	8	344085	461																								75	prime_right.png	0	343635	0	0	13	0	343635	0	343635	1	343635	20	0	-1	342136	343635	343634	0		TrialProc1	left	0		0	10	343945	-343945		0	0	TrialList1	target_left.png	1	d	-1	3	343685	260	d	391	344076												3	1	12				incomp			450
1 ver1_main_procedure	11	1	22	<?xml version="1.0"?>\n<Clock xmlns:dt="urn:schemas-microsoft-com:datatypes"><Description dt:dt="string">E-Prime Primary Realtime Clock</Description><StartTime><Timestamp dt:dt="int">0</Timestamp><DateUtc dt:dt="string">2015-08-11T10:01:59Z</DateUtc></StartTime><FrequencyChanges><FrequencyChange><Frequency dt:dt="r8">2612324</Frequency><Timestamp dt:dt="r8">29461749879</Timestamp><Current dt:dt="r8">0</Current><DateUtc dt:dt="string">2015-08-11T10:01:59Z</DateUtc></FrequencyChange></FrequencyChanges></Clock>\n	1 ver1_main_procedure-11-1	99.939	1.0.0.880	1	jł	-602518061	prawa	1	2.0.10.182	08-11-2015	2015-08-11 10:01:59	12:01:59	mezczyzna	2.0.10.92	3	3	1	1																							l	{SPACE}		no	BlockProc1		BlockList									13	Free	dl	color_yellow.png		-1	6	346867	160																								25	prime_right.png	0	346357	0	0	13	0	346357	0	346357	1	346357	20	0	-1	344857	346357	346356	0		TrialProc1	left	0		0	10	346667	-346667		0	0	TrialList1	target_both.png	0	dl	-1	3	346407	260	l	453	346860												9	1	13				incomp			150
1 ver1_main_procedure	11	1	22	<?xml version="1.0"?>\n<Clock xmlns:dt="urn:schemas-microsoft-com:datatypes"><Description dt:dt="string">E-Prime Primary Realtime Clock</Description><StartTime><Timestamp dt:dt="int">0</Timestamp><DateUtc dt:dt="string">2015-08-11T10:01:59Z</DateUtc></StartTime><FrequencyChanges><FrequencyChange><Frequency dt:dt="r8">2612324</Frequency><Timestamp dt:dt="r8">29461749879</Timestamp><Current dt:dt="r8">0</Current><DateUtc dt:dt="string">2015-08-11T10:01:59Z</DateUtc></FrequencyChange></FrequencyChanges></Clock>\n	1 ver1_main_procedure-11-1	99.939	1.0.0.880	1	jł	-602518061	prawa	1	2.0.10.182	08-11-2015	2015-08-11 10:01:59	12:01:59	mezczyzna	2.0.10.92	3	3	1	1																							l	{SPACE}		no	BlockProc1		BlockList									14	Cued	l	color_green.png		-1	12	349489	460																			1					25	prime_left.png	0	348838	0	0	13	0	348838	0	348838	1	348838	20	0	-1	347339	348838	348837	0	prime_left.png	TrialProc1	right	0		1	10	349148	-349148		0	0	TrialList1	target_right.png	1	l	-1	3	348888	260	l	588	349476												5	1	14				neut			450
1 ver1_main_procedure	11	1	22	<?xml version="1.0"?>\n<Clock xmlns:dt="urn:schemas-microsoft-com:datatypes"><Description dt:dt="string">E-Prime Primary Realtime Clock</Description><StartTime><Timestamp dt:dt="int">0</Timestamp><DateUtc dt:dt="string">2015-08-11T10:01:59Z</DateUtc></StartTime><FrequencyChanges><FrequencyChange><Frequency dt:dt="r8">2612324</Frequency><Timestamp dt:dt="r8">29461749879</Timestamp><Current dt:dt="r8">0</Current><DateUtc dt:dt="string">2015-08-11T10:01:59Z</DateUtc></FrequencyChange></FrequencyChanges></Clock>\n	1 ver1_main_procedure-11-1	99.939	1.0.0.880	1	jł	-602518061	prawa	1	2.0.10.182	08-11-2015	2015-08-11 10:01:59	12:01:59	mezczyzna	2.0.10.92	3	3	1	1																							l	{SPACE}		no	BlockProc1		BlockList									15	Cued	d	color_red.png		-1	9	352150	310																								75	prime_left.png	0	351760	0	0	13	0	351760	0	351760	1	351760	20	0	-1	350261	351760	351759	0		TrialProc1	left	0		0	10	352070	-352070		0	0	TrialList1	target_left.png	1	d	-1	3	351810	260	d	330	352140												1	1	15				comp			300
1 ver1_main_procedure	11	1	22	<?xml version="1.0"?>\n<Clock xmlns:dt="urn:schemas-microsoft-com:datatypes"><Description dt:dt="string">E-Prime Primary Realtime Clock</Description><StartTime><Timestamp dt:dt="int">0</Timestamp><DateUtc dt:dt="string">2015-08-11T10:01:59Z</DateUtc></StartTime><FrequencyChanges><FrequencyChange><Frequency dt:dt="r8">2612324</Frequency><Timestamp dt:dt="r8">29461749879</Timestamp><Current dt:dt="r8">0</Current><DateUtc dt:dt="string">2015-08-11T10:01:59Z</DateUtc></FrequencyChange></FrequencyChanges></Clock>\n	1 ver1_main_procedure-11-1	99.939	1.0.0.880	1	jł	-602518061	prawa	1	2.0.10.182	08-11-2015	2015-08-11 10:01:59	12:01:59	mezczyzna	2.0.10.92	3	3	1	1																							l	{SPACE}		no	BlockProc1		BlockList									16	Cued	d	color_red.png		-1	15	354692	160																								25	prime_left.png	0	354271	0	0	13	1	354272	1	354272	1	354271	20	0	-1	352772	354271	354270	0		TrialProc1	left	0		0	11	354582	-354582		0	0	TrialList1	target_left.png	1	d	-1	3	354321	261	d	355	354676												1	1	16				comp			150
1 ver1_main_procedure	11	1	22	<?xml version="1.0"?>\n<Clock xmlns:dt="urn:schemas-microsoft-com:datatypes"><Description dt:dt="string">E-Prime Primary Realtime Clock</Description><StartTime><Timestamp dt:dt="int">0</Timestamp><DateUtc dt:dt="string">2015-08-11T10:01:59Z</DateUtc></StartTime><FrequencyChanges><FrequencyChange><Frequency dt:dt="r8">2612324</Frequency><Timestamp dt:dt="r8">29461749879</Timestamp><Current dt:dt="r8">0</Current><DateUtc dt:dt="string">2015-08-11T10:01:59Z</DateUtc></FrequencyChange></FrequencyChanges></Clock>\n	1 ver1_main_procedure-11-1	99.939	1.0.0.880	1	jł	-602518061	prawa	1	2.0.10.182	08-11-2015	2015-08-11 10:01:59	12:01:59	mezczyzna	2.0.10.92	3	3	1	1																							l	{SPACE}		no	BlockProc1		BlockList									17	Cued	d	color_blue.png		-1	10	357063	310																			2					75	prime_right.png	0	356663	0	0	13	0	356663	0	356663	1	356663	20	0	-1	355164	356663	356662	0	prime_right.png	TrialProc1	left	0		0	10	356973	-356973		0	0	TrialList1	target_left.png	1	d	-1	3	356713	260	d	340	357053												2	1	17				neut			300
1 ver1_main_procedure	11	1	22	<?xml version="1.0"?>\n<Clock xmlns:dt="urn:schemas-microsoft-com:datatypes"><Description dt:dt="string">E-Prime Primary Realtime Clock</Description><StartTime><Timestamp dt:dt="int">0</Timestamp><DateUtc dt:dt="string">2015-08-11T10:01:59Z</DateUtc></StartTime><FrequencyChanges><FrequencyChange><Frequency dt:dt="r8">2612324</Frequency><Timestamp dt:dt="r8">29461749879</Timestamp><Current dt:dt="r8">0</Current><DateUtc dt:dt="string">2015-08-11T10:01:59Z</DateUtc></FrequencyChange></FrequencyChanges></Clock>\n	1 ver1_main_procedure-11-1	99.939	1.0.0.880	1	jł	-602518061	prawa	1	2.0.10.182	08-11-2015	2015-08-11 10:01:59	12:01:59	mezczyzna	2.0.10.92	3	3	1	1																							l	{SPACE}		no	BlockProc1		BlockList									18	Cued	d	color_red.png		-1	13	359594	311																								25	prime_left.png	0	359184	0	0	13	0	359184	0	359184	1	359184	20	0	-1	357685	359184	359183	0		TrialProc1	left	0		1	10	359494	-359494		0	0	TrialList1	target_left.png	1	d	-1	3	359234	260	d	347	359581												1	1	18				comp			300
1 ver1_main_procedure	11	1	22	<?xml version="1.0"?>\n<Clock xmlns:dt="urn:schemas-microsoft-com:datatypes"><Description dt:dt="string">E-Prime Primary Realtime Clock</Description><StartTime><Timestamp dt:dt="int">0</Timestamp><DateUtc dt:dt="string">2015-08-11T10:01:59Z</DateUtc></StartTime><FrequencyChanges><FrequencyChange><Frequency dt:dt="r8">2612324</Frequency><Timestamp dt:dt="r8">29461749879</Timestamp><Current dt:dt="r8">0</Current><DateUtc dt:dt="string">2015-08-11T10:01:59Z</DateUtc></FrequencyChange></FrequencyChanges></Clock>\n	1 ver1_main_procedure-11-1	99.939	1.0.0.880	1	jł	-602518061	prawa	1	2.0.10.182	08-11-2015	2015-08-11 10:01:59	12:01:59	mezczyzna	2.0.10.92	3	3	1	1																							l	{SPACE}		no	BlockProc1		BlockList									19	Cued	l	color_green.png		-1	9	362166	160																			1					75	prime_left.png	0	361716	0	0	13	0	361716	0	361716	1	361716	20	0	-1	360216	361716	361715	0	prime_left.png	TrialProc1	right	0		0	10	362026	-362026		0	0	TrialList1	target_right.png	1	l	-1	3	361766	260	l	391	362157												5	1	19				neut			150
1 ver1_main_procedure	11	1	22	<?xml version="1.0"?>\n<Clock xmlns:dt="urn:schemas-microsoft-com:datatypes"><Description dt:dt="string">E-Prime Primary Realtime Clock</Description><StartTime><Timestamp dt:dt="int">0</Timestamp><DateUtc dt:dt="string">2015-08-11T10:01:59Z</DateUtc></StartTime><FrequencyChanges><FrequencyChange><Frequency dt:dt="r8">2612324</Frequency><Timestamp dt:dt="r8">29461749879</Timestamp><Current dt:dt="r8">0</Current><DateUtc dt:dt="string">2015-08-11T10:01:59Z</DateUtc></FrequencyChange></FrequencyChanges></Clock>\n	1 ver1_main_procedure-11-1	99.939	1.0.0.880	1	jł	-602518061	prawa	1	2.0.10.182	08-11-2015	2015-08-11 10:01:59	12:01:59	mezczyzna	2.0.10.92	3	3	1	1																							l	{SPACE}		no	BlockProc1		BlockList									20	Cued	d	color_red.png		-1	10	364527	461																								75	prime_left.png	0	364137	0	0	13	0	364137	0	364137	1	364137	20	0	-1	362638	364137	364136	0		TrialProc1	left	0		1	10	364447	-364447		0	0	TrialList1	target_left.png	1	d	-1	3	364187	260	d	330	364517												1	1	20				comp			450
1 ver1_main_procedure	11	1	22	<?xml version="1.0"?>\n<Clock xmlns:dt="urn:schemas-microsoft-com:datatypes"><Description dt:dt="string">E-Prime Primary Realtime Clock</Description><StartTime><Timestamp dt:dt="int">0</Timestamp><DateUtc dt:dt="string">2015-08-11T10:01:59Z</DateUtc></StartTime><FrequencyChanges><FrequencyChange><Frequency dt:dt="r8">2612324</Frequency><Timestamp dt:dt="r8">29461749879</Timestamp><Current dt:dt="r8">0</Current><DateUtc dt:dt="string">2015-08-11T10:01:59Z</DateUtc></FrequencyChange></FrequencyChanges></Clock>\n	1 ver1_main_procedure-11-1	99.939	1.0.0.880	1	jł	-602518061	prawa	1	2.0.10.182	08-11-2015	2015-08-11 10:01:59	12:01:59	mezczyzna	2.0.10.92	3	3	1	1																							l	{SPACE}		no	BlockProc1		BlockList									21	Free	dl	color_yellow.png		-1	14	367419	460																								25	prime_right.png	0	366799	0	0	13	0	366799	0	366799	1	366799	20	0	-1	365299	366799	366798	0		TrialProc1	left	0		0	10	367109	-367109		0	0	TrialList1	target_both.png	0	dl	-1	3	366849	260	l	556	367405												9	1	21				incomp			450
1 ver1_main_procedure	11	1	22	<?xml version="1.0"?>\n<Clock xmlns:dt="urn:schemas-microsoft-com:datatypes"><Description dt:dt="string">E-Prime Primary Realtime Clock</Description><StartTime><Timestamp dt:dt="int">0</Timestamp><DateUtc dt:dt="string">2015-08-11T10:01:59Z</DateUtc></StartTime><FrequencyChanges><FrequencyChange><Frequency dt:dt="r8">2612324</Frequency><Timestamp dt:dt="r8">29461749879</Timestamp><Current dt:dt="r8">0</Current><DateUtc dt:dt="string">2015-08-11T10:01:59Z</DateUtc></FrequencyChange></FrequencyChanges></Clock>\n	1 ver1_main_procedure-11-1	99.939	1.0.0.880	1	jł	-602518061	prawa	1	2.0.10.182	08-11-2015	2015-08-11 10:01:59	12:01:59	mezczyzna	2.0.10.92	3	3	1	1																							l	{SPACE}		no	BlockProc1		BlockList									22	Cued	d	color_purple.png		-1	12	370121	310																								75	prime_right.png	1	369691	0	0	13	1	369691	1	369691	0	369690	20	0	-1	368191	369690	369690	0		TrialProc1	left	0		0	11	370001	-370001		0	0	TrialList1	target_left.png	1	d	-1	3	369740	261	d	369	370109												3	1	22				incomp			300
1 ver1_main_procedure	11	1	22	<?xml version="1.0"?>\n<Clock xmlns:dt="urn:schemas-microsoft-com:datatypes"><Description dt:dt="string">E-Prime Primary Realtime Clock</Description><StartTime><Timestamp dt:dt="int">0</Timestamp><DateUtc dt:dt="string">2015-08-11T10:01:59Z</DateUtc></StartTime><FrequencyChanges><FrequencyChange><Frequency dt:dt="r8">2612324</Frequency><Timestamp dt:dt="r8">29461749879</Timestamp><Current dt:dt="r8">0</Current><DateUtc dt:dt="string">2015-08-11T10:01:59Z</DateUtc></FrequencyChange></FrequencyChanges></Clock>\n	1 ver1_main_procedure-11-1	99.939	1.0.0.880	1	jł	-602518061	prawa	1	2.0.10.182	08-11-2015	2015-08-11 10:01:59	12:01:59	mezczyzna	2.0.10.92	3	3	1	1																							l	{SPACE}		no	BlockProc1		BlockList									23	Free	dl	color_red.png		-1	9	372822	311																								75	prime_left.png	0	372242	0	0	13	0	372242	0	372242	1	372242	20	0	-1	370743	372242	372241	0		TrialProc1	right	0		0	10	372552	-372552		0	0	TrialList1	target_both.png	0	dl	-1	3	372292	260	d	521	372813												12	1	23				incomp			300
1 ver1_main_procedure	11	1	22	<?xml version="1.0"?>\n<Clock xmlns:dt="urn:schemas-microsoft-com:datatypes"><Description dt:dt="string">E-Prime Primary Realtime Clock</Description><StartTime><Timestamp dt:dt="int">0</Timestamp><DateUtc dt:dt="string">2015-08-11T10:01:59Z</DateUtc></StartTime><FrequencyChanges><FrequencyChange><Frequency dt:dt="r8">2612324</Frequency><Timestamp dt:dt="r8">29461749879</Timestamp><Current dt:dt="r8">0</Current><DateUtc dt:dt="string">2015-08-11T10:01:59Z</DateUtc></FrequencyChange></FrequencyChanges></Clock>\n	1 ver1_main_procedure-11-1	99.939	1.0.0.880	1	jł	-602518061	prawa	1	2.0.10.182	08-11-2015	2015-08-11 10:01:59	12:01:59	mezczyzna	2.0.10.92	3	3	1	1																							l	{SPACE}		no	BlockProc1		BlockList									24	Free	dl	color_green.png		-1	7	375564	160																			2					75	prime_right.png	0	374944	0	0	13	0	374944	0	374944	1	374944	20	0	-1	373444	374944	374943	0	prime_right.png	TrialProc1	right	0		0	10	375254	-375254		0	0	TrialList1	target_both.png	0	dl	-1	3	374994	260	l	563	375557												11	1	24				neut			150
1 ver1_main_procedure	11	1	22	<?xml version="1.0"?>\n<Clock xmlns:dt="urn:schemas-microsoft-com:datatypes"><Description dt:dt="string">E-Prime Primary Realtime Clock</Description><StartTime><Timestamp dt:dt="int">0</Timestamp><DateUtc dt:dt="string">2015-08-11T10:01:59Z</DateUtc></StartTime><FrequencyChanges><FrequencyChange><Frequency dt:dt="r8">2612324</Frequency><Timestamp dt:dt="r8">29461749879</Timestamp><Current dt:dt="r8">0</Current><DateUtc dt:dt="string">2015-08-11T10:01:59Z</DateUtc></FrequencyChange></FrequencyChanges></Clock>\n	1 ver1_main_procedure-11-1	99.939	1.0.0.880	1	jł	-602518061	prawa	1	2.0.10.182	08-11-2015	2015-08-11 10:01:59	12:01:59	mezczyzna	2.0.10.92	3	3	1	1																							l	{SPACE}		no	BlockProc1		BlockList									25	Cued	d	color_blue.png		-1	12	377905	160																			1					25	prime_left.png	0	377535	0	0	13	0	377535	0	377535	1	377535	20	0	-1	376036	377535	377534	0	prime_left.png	TrialProc1	left	0		0	10	377845	-377845		0	0	TrialList1	target_left.png	1	d	-1	3	377585	260	d	308	377893												2	1	25				neut			150
1 ver1_main_procedure	11	1	22	<?xml version="1.0"?>\n<Clock xmlns:dt="urn:schemas-microsoft-com:datatypes"><Description dt:dt="string">E-Prime Primary Realtime Clock</Description><StartTime><Timestamp dt:dt="int">0</Timestamp><DateUtc dt:dt="string">2015-08-11T10:01:59Z</DateUtc></StartTime><FrequencyChanges><FrequencyChange><Frequency dt:dt="r8">2612324</Frequency><Timestamp dt:dt="r8">29461749879</Timestamp><Current dt:dt="r8">0</Current><DateUtc dt:dt="string">2015-08-11T10:01:59Z</DateUtc></FrequencyChange></FrequencyChanges></Clock>\n	1 ver1_main_procedure-11-1	99.939	1.0.0.880	1	jł	-602518061	prawa	1	2.0.10.182	08-11-2015	2015-08-11 10:01:59	12:01:59	mezczyzna	2.0.10.92	3	3	1	1																							l	{SPACE}		no	BlockProc1		BlockList									26	Cued	d	color_blue.png		-1	12	380337	460																			2					75	prime_right.png	1	379877	0	0	13	1	379877	1	379877	0	379876	20	0	-1	378377	379876	379876	0	prime_right.png	TrialProc1	left	0		0	11	380187	-380187		0	0	TrialList1	target_left.png	1	d	-1	3	379926	261	d	399	380325												2	1	26				neut			450
1 ver1_main_procedure	11	1	22	<?xml version="1.0"?>\n<Clock xmlns:dt="urn:schemas-microsoft-com:datatypes"><Description dt:dt="string">E-Prime Primary Realtime Clock</Description><StartTime><Timestamp dt:dt="int">0</Timestamp><DateUtc dt:dt="string">2015-08-11T10:01:59Z</DateUtc></StartTime><FrequencyChanges><FrequencyChange><Frequency dt:dt="r8">2612324</Frequency><Timestamp dt:dt="r8">29461749879</Timestamp><Current dt:dt="r8">0</Current><DateUtc dt:dt="string">2015-08-11T10:01:59Z</DateUtc></FrequencyChange></FrequencyChanges></Clock>\n	1 ver1_main_procedure-11-1	99.939	1.0.0.880	1	jł	-602518061	prawa	1	2.0.10.182	08-11-2015	2015-08-11 10:01:59	12:01:59	mezczyzna	2.0.10.92	3	3	1	1																							l	{SPACE}		no	BlockProc1		BlockList									27	Cued	l	color_green.png		-1	8	382998	461																			1					75	prime_left.png	0	382608	0	0	13	0	382608	0	382608	1	382608	20	0	-1	381109	382608	382607	0	prime_left.png	TrialProc1	right	0		0	10	382918	-382918		0	0	TrialList1	target_right.png	1	l	-1	3	382658	260	l	331	382989												5	1	27				neut			450
1 ver1_main_procedure	11	1	22	<?xml version="1.0"?>\n<Clock xmlns:dt="urn:schemas-microsoft-com:datatypes"><Description dt:dt="string">E-Prime Primary Realtime Clock</Description><StartTime><Timestamp dt:dt="int">0</Timestamp><DateUtc dt:dt="string">2015-08-11T10:01:59Z</DateUtc></StartTime><FrequencyChanges><FrequencyChange><Frequency dt:dt="r8">2612324</Frequency><Timestamp dt:dt="r8">29461749879</Timestamp><Current dt:dt="r8">0</Current><DateUtc dt:dt="string">2015-08-11T10:01:59Z</DateUtc></FrequencyChange></FrequencyChanges></Clock>\n	1 ver1_main_procedure-11-1	99.939	1.0.0.880	1	jł	-602518061	prawa	1	2.0.10.182	08-11-2015	2015-08-11 10:01:59	12:01:59	mezczyzna	2.0.10.92	3	3	1	1																							l	{SPACE}		no	BlockProc1		BlockList									28	Free	dl	color_red.png		-1	12	385850	460																								75	prime_left.png	0	385270	0	0	13	0	385270	0	385270	1	385270	20	0	-1	383770	385270	385269	0		TrialProc1	right	0		0	10	385580	-385580		0	0	TrialList1	target_both.png	0	dl	-1	3	385320	260	d	517	385837												12	1	28				incomp			450
1 ver1_main_procedure	11	1	22	<?xml version="1.0"?>\n<Clock xmlns:dt="urn:schemas-microsoft-com:datatypes"><Description dt:dt="string">E-Prime Primary Realtime Clock</Description><StartTime><Timestamp dt:dt="int">0</Timestamp><DateUtc dt:dt="string">2015-08-11T10:01:59Z</DateUtc></StartTime><FrequencyChanges><FrequencyChange><Frequency dt:dt="r8">2612324</Frequency><Timestamp dt:dt="r8">29461749879</Timestamp><Current dt:dt="r8">0</Current><DateUtc dt:dt="string">2015-08-11T10:01:59Z</DateUtc></FrequencyChange></FrequencyChanges></Clock>\n	1 ver1_main_procedure-11-1	99.939	1.0.0.880	1	jł	-602518061	prawa	1	2.0.10.182	08-11-2015	2015-08-11 10:01:59	12:01:59	mezczyzna	2.0.10.92	3	3	1	1																							l	{SPACE}		no	BlockProc1		BlockList									29	Cued	d	color_blue.png		-1	6	388572	160																			2					25	prime_right.png	0	388121	0	0	13	0	388121	0	388121	1	388121	20	0	-1	386622	388121	388120	0	prime_right.png	TrialProc1	left	0		1	10	388431	-388431		0	0	TrialList1	target_left.png	1	d	-1	3	388171	260	d	394	388565												2	1	29				neut			150
1 ver1_main_procedure	11	1	22	<?xml version="1.0"?>\n<Clock xmlns:dt="urn:schemas-microsoft-com:datatypes"><Description dt:dt="string">E-Prime Primary Realtime Clock</Description><StartTime><Timestamp dt:dt="int">0</Timestamp><DateUtc dt:dt="string">2015-08-11T10:01:59Z</DateUtc></StartTime><FrequencyChanges><FrequencyChange><Frequency dt:dt="r8">2612324</Frequency><Timestamp dt:dt="r8">29461749879</Timestamp><Current dt:dt="r8">0</Current><DateUtc dt:dt="string">2015-08-11T10:01:59Z</DateUtc></FrequencyChange></FrequencyChanges></Clock>\n	1 ver1_main_procedure-11-1	99.939	1.0.0.880	1	jł	-602518061	prawa	1	2.0.10.182	08-11-2015	2015-08-11 10:01:59	12:01:59	mezczyzna	2.0.10.92	3	3	1	1																							l	{SPACE}		no	BlockProc1		BlockList									30	Cued	l	color_orange.png		-1	5	391003	460																								25	prime_left.png	0	390543	0	0	13	0	390543	0	390543	1	390543	20	0	-1	389044	390543	390542	0		TrialProc1	right	0		0	10	390853	-390853		0	0	TrialList1	target_right.png	1	l	-1	3	390593	260	l	404	390997												6	1	30				incomp			450
1 ver1_main_procedure	11	1	22	<?xml version="1.0"?>\n<Clock xmlns:dt="urn:schemas-microsoft-com:datatypes"><Description dt:dt="string">E-Prime Primary Realtime Clock</Description><StartTime><Timestamp dt:dt="int">0</Timestamp><DateUtc dt:dt="string">2015-08-11T10:01:59Z</DateUtc></StartTime><FrequencyChanges><FrequencyChange><Frequency dt:dt="r8">2612324</Frequency><Timestamp dt:dt="r8">29461749879</Timestamp><Current dt:dt="r8">0</Current><DateUtc dt:dt="string">2015-08-11T10:01:59Z</DateUtc></FrequencyChange></FrequencyChanges></Clock>\n	1 ver1_main_procedure-11-1	99.939	1.0.0.880	1	jł	-602518061	prawa	1	2.0.10.182	08-11-2015	2015-08-11 10:01:59	12:01:59	mezczyzna	2.0.10.92	3	3	1	1																							l	{SPACE}		no	BlockProc1		BlockList									31	Cued	d	color_blue.png		-1	10	393664	461																			1					25	prime_left.png	0	393274	0	0	13	0	393274	0	393274	1	393274	20	0	-1	391775	393274	393273	0	prime_left.png	TrialProc1	left	0		0	11	393585	-393585		0	0	TrialList1	target_left.png	1	d	-1	3	393324	261	d	329	393653												2	1	31				neut			450
1 ver1_main_procedure	11	1	22	<?xml version="1.0"?>\n<Clock xmlns:dt="urn:schemas-microsoft-com:datatypes"><Description dt:dt="string">E-Prime Primary Realtime Clock</Description><StartTime><Timestamp dt:dt="int">0</Timestamp><DateUtc dt:dt="string">2015-08-11T10:01:59Z</DateUtc></StartTime><FrequencyChanges><FrequencyChange><Frequency dt:dt="r8">2612324</Frequency><Timestamp dt:dt="r8">29461749879</Timestamp><Current dt:dt="r8">0</Current><DateUtc dt:dt="string">2015-08-11T10:01:59Z</DateUtc></FrequencyChange></FrequencyChanges></Clock>\n	1 ver1_main_procedure-11-1	99.939	1.0.0.880	1	jł	-602518061	prawa	1	2.0.10.182	08-11-2015	2015-08-11 10:01:59	12:01:59	mezczyzna	2.0.10.92	3	3	1	1																							l	{SPACE}		no	BlockProc1		BlockList									32	Cued	l	color_green.png		-1	12	396306	160																			2					75	prime_right.png	0	395936	0	0	13	0	395936	0	395936	1	395936	20	0	-1	394437	395936	395935	0	prime_right.png	TrialProc1	right	0		0	10	396246	-396246		0	0	TrialList1	target_right.png	1	l	-1	3	395986	260	l	307	396293												5	1	32				neut			150
1 ver1_main_procedure	11	1	22	<?xml version="1.0"?>\n<Clock xmlns:dt="urn:schemas-microsoft-com:datatypes"><Description dt:dt="string">E-Prime Primary Realtime Clock</Description><StartTime><Timestamp dt:dt="int">0</Timestamp><DateUtc dt:dt="string">2015-08-11T10:01:59Z</DateUtc></StartTime><FrequencyChanges><FrequencyChange><Frequency dt:dt="r8">2612324</Frequency><Timestamp dt:dt="r8">29461749879</Timestamp><Current dt:dt="r8">0</Current><DateUtc dt:dt="string">2015-08-11T10:01:59Z</DateUtc></FrequencyChange></FrequencyChanges></Clock>\n	1 ver1_main_procedure-11-1	99.939	1.0.0.880	1	jł	-602518061	prawa	1	2.0.10.182	08-11-2015	2015-08-11 10:01:59	12:01:59	mezczyzna	2.0.10.92	3	3	1	1																							l	{SPACE}		no	BlockProc1		BlockList									33	Cued	l	color_yellow.png		-1	5	398627	161																								75	prime_right.png	0	398277	0	0	13	0	398277	0	398277	1	398277	20	0	-1	396778	398277	398276	0		TrialProc1	right	0		1	10	398587	-398587		0	0	TrialList1	target_right.png	1	l	-1	3	398327	260	l	294	398621												4	1	33				comp			150
1 ver1_main_procedure	11	1	22	<?xml version="1.0"?>\n<Clock xmlns:dt="urn:schemas-microsoft-com:datatypes"><Description dt:dt="string">E-Prime Primary Realtime Clock</Description><StartTime><Timestamp dt:dt="int">0</Timestamp><DateUtc dt:dt="string">2015-08-11T10:01:59Z</DateUtc></StartTime><FrequencyChanges><FrequencyChange><Frequency dt:dt="r8">2612324</Frequency><Timestamp dt:dt="r8">29461749879</Timestamp><Current dt:dt="r8">0</Current><DateUtc dt:dt="string">2015-08-11T10:01:59Z</DateUtc></FrequencyChange></FrequencyChanges></Clock>\n	1 ver1_main_procedure-11-1	99.939	1.0.0.880	1	jł	-602518061	prawa	1	2.0.10.182	08-11-2015	2015-08-11 10:01:59	12:01:59	mezczyzna	2.0.10.92	3	3	1	1																							l	{SPACE}		no	BlockProc1		BlockList									34	Cued	d	color_purple.png		-1	11	400969	160																								25	prime_right.png	0	400599	0	0	13	0	400599	0	400599	1	400599	20	0	-1	399099	400599	400598	0		TrialProc1	left	0		0	10	400909	-400909		0	0	TrialList1	target_left.png	1	d	-1	3	400649	260	d	308	400957												3	1	34				incomp			150
1 ver1_main_procedure	11	1	22	<?xml version="1.0"?>\n<Clock xmlns:dt="urn:schemas-microsoft-com:datatypes"><Description dt:dt="string">E-Prime Primary Realtime Clock</Description><StartTime><Timestamp dt:dt="int">0</Timestamp><DateUtc dt:dt="string">2015-08-11T10:01:59Z</DateUtc></StartTime><FrequencyChanges><FrequencyChange><Frequency dt:dt="r8">2612324</Frequency><Timestamp dt:dt="r8">29461749879</Timestamp><Current dt:dt="r8">0</Current><DateUtc dt:dt="string">2015-08-11T10:01:59Z</DateUtc></FrequencyChange></FrequencyChanges></Clock>\n	1 ver1_main_procedure-11-1	99.939	1.0.0.880	1	jł	-602518061	prawa	1	2.0.10.182	08-11-2015	2015-08-11 10:01:59	12:01:59	mezczyzna	2.0.10.92	3	3	1	1																							l	{SPACE}		no	BlockProc1		BlockList									35	Cued	l	color_orange.png		-1	12	403370	160																								25	prime_left.png	0	402940	0	0	13	0	402940	0	402940	1	402940	20	0	-1	401441	402940	402939	0		TrialProc1	right	0		0	10	403250	-403250		0	0	TrialList1	target_right.png	1	l	-1	3	402990	260	l	367	403357												6	1	35				incomp			150
1 ver1_main_procedure	11	1	22	<?xml version="1.0"?>\n<Clock xmlns:dt="urn:schemas-microsoft-com:datatypes"><Description dt:dt="string">E-Prime Primary Realtime Clock</Description><StartTime><Timestamp dt:dt="int">0</Timestamp><DateUtc dt:dt="string">2015-08-11T10:01:59Z</DateUtc></StartTime><FrequencyChanges><FrequencyChange><Frequency dt:dt="r8">2612324</Frequency><Timestamp dt:dt="r8">29461749879</Timestamp><Current dt:dt="r8">0</Current><DateUtc dt:dt="string">2015-08-11T10:01:59Z</DateUtc></FrequencyChange></FrequencyChanges></Clock>\n	1 ver1_main_procedure-11-1	99.939	1.0.0.880	1	jł	-602518061	prawa	1	2.0.10.182	08-11-2015	2015-08-11 10:01:59	12:01:59	mezczyzna	2.0.10.92	3	3	1	1																							l	{SPACE}		no	BlockProc1		BlockList									36	Cued	l	color_yellow.png		-1	14	405772	160																								75	prime_right.png	0	405341	0	0	13	1	405342	1	405342	1	405341	20	0	-1	403842	405341	405340	0		TrialProc1	right	0		0	11	405652	-405652		0	0	TrialList1	target_right.png	1	l	-1	3	405391	261	l	366	405757												4	1	36				comp			150
1 ver1_main_procedure	11	1	22	<?xml version="1.0"?>\n<Clock xmlns:dt="urn:schemas-microsoft-com:datatypes"><Description dt:dt="string">E-Prime Primary Realtime Clock</Description><StartTime><Timestamp dt:dt="int">0</Timestamp><DateUtc dt:dt="string">2015-08-11T10:01:59Z</DateUtc></StartTime><FrequencyChanges><FrequencyChange><Frequency dt:dt="r8">2612324</Frequency><Timestamp dt:dt="r8">29461749879</Timestamp><Current dt:dt="r8">0</Current><DateUtc dt:dt="string">2015-08-11T10:01:59Z</DateUtc></FrequencyChange></FrequencyChanges></Clock>\n	1 ver1_main_procedure-11-1	99.939	1.0.0.880	1	jł	-602518061	prawa	1	2.0.10.182	08-11-2015	2015-08-11 10:01:59	12:01:59	mezczyzna	2.0.10.92	3	3	1	1																							l	{SPACE}		no	BlockProc1		BlockList									37	Cued	d	color_purple.png		-1	5	408163	460																								75	prime_right.png	0	407743	0	0	13	0	407743	0	407743	1	407743	20	0	-1	406244	407743	407742	0		TrialProc1	left	0		0	10	408053	-408053		0	0	TrialList1	target_left.png	1	d	-1	3	407793	260	d	364	408157												3	1	37				incomp			450
1 ver1_main_procedure	11	1	22	<?xml version="1.0"?>\n<Clock xmlns:dt="urn:schemas-microsoft-com:datatypes"><Description dt:dt="string">E-Prime Primary Realtime Clock</Description><StartTime><Timestamp dt:dt="int">0</Timestamp><DateUtc dt:dt="string">2015-08-11T10:01:59Z</DateUtc></StartTime><FrequencyChanges><FrequencyChange><Frequency dt:dt="r8">2612324</Frequency><Timestamp dt:dt="r8">29461749879</Timestamp><Current dt:dt="r8">0</Current><DateUtc dt:dt="string">2015-08-11T10:01:59Z</DateUtc></FrequencyChange></FrequencyChanges></Clock>\n	1 ver1_main_procedure-11-1	99.939	1.0.0.880	1	jł	-602518061	prawa	1	2.0.10.182	08-11-2015	2015-08-11 10:01:59	12:01:59	mezczyzna	2.0.10.92	3	3	1	1																							l	{SPACE}		no	BlockProc1		BlockList									38	Free	dl	color_orange.png		-1	13	411035	310																								25	prime_left.png	0	410434	0	0	13	0	410435	0	410434	0	410434	20	0	-1	408935	410434	410434	0		TrialProc1	left	0		0	11	410745	-410745		0	0	TrialList1	target_both.png	0	dl	-1	3	410484	261	l	537	411021												7	1	38				comp			300
1 ver1_main_procedure	11	1	22	<?xml version="1.0"?>\n<Clock xmlns:dt="urn:schemas-microsoft-com:datatypes"><Description dt:dt="string">E-Prime Primary Realtime Clock</Description><StartTime><Timestamp dt:dt="int">0</Timestamp><DateUtc dt:dt="string">2015-08-11T10:01:59Z</DateUtc></StartTime><FrequencyChanges><FrequencyChange><Frequency dt:dt="r8">2612324</Frequency><Timestamp dt:dt="r8">29461749879</Timestamp><Current dt:dt="r8">0</Current><DateUtc dt:dt="string">2015-08-11T10:01:59Z</DateUtc></FrequencyChange></FrequencyChanges></Clock>\n	1 ver1_main_procedure-11-1	99.939	1.0.0.880	1	jł	-602518061	prawa	1	2.0.10.182	08-11-2015	2015-08-11 10:01:59	12:01:59	mezczyzna	2.0.10.92	3	3	1	1																							l	{SPACE}		no	BlockProc1		BlockList									39	Cued	l	color_orange.png		-1	8	413526	460																								25	prime_left.png	0	413156	0	0	13	0	413156	0	413156	1	413156	20	0	-1	411657	413156	413155	0		TrialProc1	right	0		0	10	413466	-413466		0	0	TrialList1	target_right.png	1	l	-1	3	413206	260	l	311	413517												6	1	39				incomp			450
1 ver1_main_procedure	11	1	22	<?xml version="1.0"?>\n<Clock xmlns:dt="urn:schemas-microsoft-com:datatypes"><Description dt:dt="string">E-Prime Primary Realtime Clock</Description><StartTime><Timestamp dt:dt="int">0</Timestamp><DateUtc dt:dt="string">2015-08-11T10:01:59Z</DateUtc></StartTime><FrequencyChanges><FrequencyChange><Frequency dt:dt="r8">2612324</Frequency><Timestamp dt:dt="r8">29461749879</Timestamp><Current dt:dt="r8">0</Current><DateUtc dt:dt="string">2015-08-11T10:01:59Z</DateUtc></FrequencyChange></FrequencyChanges></Clock>\n	1 ver1_main_procedure-11-1	99.939	1.0.0.880	1	jł	-602518061	prawa	1	2.0.10.182	08-11-2015	2015-08-11 10:01:59	12:01:59	mezczyzna	2.0.10.92	3	3	1	1																							l	{SPACE}		no	BlockProc1		BlockList									40	Cued	d	color_purple.png		-1	6	416228	310																								25	prime_right.png	0	415798	0	0	13	0	415798	0	415798	1	415798	20	0	-1	414298	415798	415797	0		TrialProc1	left	0		0	10	416108	-416108		0	0	TrialList1	target_left.png	1	d	-1	3	415848	260	d	373	416221												3	1	40				incomp			300
1 ver1_main_procedure	11	1	22	<?xml version="1.0"?>\n<Clock xmlns:dt="urn:schemas-microsoft-com:datatypes"><Description dt:dt="string">E-Prime Primary Realtime Clock</Description><StartTime><Timestamp dt:dt="int">0</Timestamp><DateUtc dt:dt="string">2015-08-11T10:01:59Z</DateUtc></StartTime><FrequencyChanges><FrequencyChange><Frequency dt:dt="r8">2612324</Frequency><Timestamp dt:dt="r8">29461749879</Timestamp><Current dt:dt="r8">0</Current><DateUtc dt:dt="string">2015-08-11T10:01:59Z</DateUtc></FrequencyChange></FrequencyChanges></Clock>\n	1 ver1_main_procedure-11-1	99.939	1.0.0.880	1	jł	-602518061	prawa	1	2.0.10.182	08-11-2015	2015-08-11 10:01:59	12:01:59	mezczyzna	2.0.10.92	3	3	1	1																							l	{SPACE}		no	BlockProc1		BlockList									41	Cued	d	color_purple.png		-1	13	418819	461																								25	prime_right.png	0	418349	0	0	13	0	418349	0	418349	1	418349	20	0	-1	416850	418349	418348	0		TrialProc1	left	0		0	10	418659	-418659		0	0	TrialList1	target_left.png	1	d	-1	3	418399	260	d	406	418805												3	1	41				incomp			450
1 ver1_main_procedure	11	1	22	<?xml version="1.0"?>\n<Clock xmlns:dt="urn:schemas-microsoft-com:datatypes"><Description dt:dt="string">E-Prime Primary Realtime Clock</Description><StartTime><Timestamp dt:dt="int">0</Timestamp><DateUtc dt:dt="string">2015-08-11T10:01:59Z</DateUtc></StartTime><FrequencyChanges><FrequencyChange><Frequency dt:dt="r8">2612324</Frequency><Timestamp dt:dt="r8">29461749879</Timestamp><Current dt:dt="r8">0</Current><DateUtc dt:dt="string">2015-08-11T10:01:59Z</DateUtc></FrequencyChange></FrequencyChanges></Clock>\n	1 ver1_main_procedure-11-1	99.939	1.0.0.880	1	jł	-602518061	prawa	1	2.0.10.182	08-11-2015	2015-08-11 10:01:59	12:01:59	mezczyzna	2.0.10.92	3	3	1	1																							l	{SPACE}		no	BlockProc1		BlockList									42	Free	dl	color_green.png		-1	11	421641	460																			1					25	prime_left.png	0	421091	0	0	13	0	421091	0	421091	1	421091	20	0	-1	419591	421091	421090	0	prime_left.png	TrialProc1	left	0		0	10	421401	-421401		0	0	TrialList1	target_both.png	0	dl	-1	3	421141	260	l	488	421629												8	1	42				neut			450
1 ver1_main_procedure	11	1	22	<?xml version="1.0"?>\n<Clock xmlns:dt="urn:schemas-microsoft-com:datatypes"><Description dt:dt="string">E-Prime Primary Realtime Clock</Description><StartTime><Timestamp dt:dt="int">0</Timestamp><DateUtc dt:dt="string">2015-08-11T10:01:59Z</DateUtc></StartTime><FrequencyChanges><FrequencyChange><Frequency dt:dt="r8">2612324</Frequency><Timestamp dt:dt="r8">29461749879</Timestamp><Current dt:dt="r8">0</Current><DateUtc dt:dt="string">2015-08-11T10:01:59Z</DateUtc></FrequencyChange></FrequencyChanges></Clock>\n	1 ver1_main_procedure-11-1	99.939	1.0.0.880	1	jł	-602518061	prawa	1	2.0.10.182	08-11-2015	2015-08-11 10:01:59	12:01:59	mezczyzna	2.0.10.92	3	3	1	1																							l	{SPACE}		no	BlockProc1		BlockList									43	Free	dl	color_green.png		-1	15	424613	460																			2					25	prime_right.png	0	423912	0	0	13	1	423913	1	423913	1	423912	20	0	-1	422413	423912	423911	0	prime_right.png	TrialProc1	left	0		0	11	424223	-424223		0	0	TrialList1	target_both.png	0	dl	-1	3	423962	261	l	635	424597												8	1	43				neut			450
1 ver1_main_procedure	11	1	22	<?xml version="1.0"?>\n<Clock xmlns:dt="urn:schemas-microsoft-com:datatypes"><Description dt:dt="string">E-Prime Primary Realtime Clock</Description><StartTime><Timestamp dt:dt="int">0</Timestamp><DateUtc dt:dt="string">2015-08-11T10:01:59Z</DateUtc></StartTime><FrequencyChanges><FrequencyChange><Frequency dt:dt="r8">2612324</Frequency><Timestamp dt:dt="r8">29461749879</Timestamp><Current dt:dt="r8">0</Current><DateUtc dt:dt="string">2015-08-11T10:01:59Z</DateUtc></FrequencyChange></FrequencyChanges></Clock>\n	1 ver1_main_procedure-11-1	99.939	1.0.0.880	1	jł	-602518061	prawa	1	2.0.10.182	08-11-2015	2015-08-11 10:01:59	12:01:59	mezczyzna	2.0.10.92	3	3	1	1																							l	{SPACE}		no	BlockProc1		BlockList									44	Cued	l	color_green.png		-1	8	427374	160																			1					25	prime_left.png	0	426884	0	0	13	0	426884	0	426884	1	426884	20	0	-1	425385	426884	426883	0	prime_left.png	TrialProc1	right	0		0	10	427194	-427194		0	0	TrialList1	target_right.png	1	l	-1	3	426934	260	l	431	427365												5	1	44				neut			150
1 ver1_main_procedure	11	1	22	<?xml version="1.0"?>\n<Clock xmlns:dt="urn:schemas-microsoft-com:datatypes"><Description dt:dt="string">E-Prime Primary Realtime Clock</Description><StartTime><Timestamp dt:dt="int">0</Timestamp><DateUtc dt:dt="string">2015-08-11T10:01:59Z</DateUtc></StartTime><FrequencyChanges><FrequencyChange><Frequency dt:dt="r8">2612324</Frequency><Timestamp dt:dt="r8">29461749879</Timestamp><Current dt:dt="r8">0</Current><DateUtc dt:dt="string">2015-08-11T10:01:59Z</DateUtc></FrequencyChange></FrequencyChanges></Clock>\n	1 ver1_main_procedure-11-1	99.939	1.0.0.880	1	jł	-602518061	prawa	1	2.0.10.182	08-11-2015	2015-08-11 10:01:59	12:01:59	mezczyzna	2.0.10.92	3	3	1	1																							l	{SPACE}		no	BlockProc1		BlockList									45	Cued	l	color_yellow.png		-1	14	429756	160																								75	prime_right.png	1	429346	0	0	13	1	429346	1	429346	0	429345	20	0	-1	427846	429345	429345	0		TrialProc1	right	0		0	11	429656	-429656		0	0	TrialList1	target_right.png	1	l	-1	3	429395	261	l	346	429741												4	1	45				comp			150
1 ver1_main_procedure	11	1	22	<?xml version="1.0"?>\n<Clock xmlns:dt="urn:schemas-microsoft-com:datatypes"><Description dt:dt="string">E-Prime Primary Realtime Clock</Description><StartTime><Timestamp dt:dt="int">0</Timestamp><DateUtc dt:dt="string">2015-08-11T10:01:59Z</DateUtc></StartTime><FrequencyChanges><FrequencyChange><Frequency dt:dt="r8">2612324</Frequency><Timestamp dt:dt="r8">29461749879</Timestamp><Current dt:dt="r8">0</Current><DateUtc dt:dt="string">2015-08-11T10:01:59Z</DateUtc></FrequencyChange></FrequencyChanges></Clock>\n	1 ver1_main_procedure-11-1	99.939	1.0.0.880	1	jł	-602518061	prawa	1	2.0.10.182	08-11-2015	2015-08-11 10:01:59	12:01:59	mezczyzna	2.0.10.92	3	3	1	1																							l	{SPACE}		no	BlockProc1		BlockList									46	Cued	d	color_red.png		-1	13	432067	460																								25	prime_left.png	0	431727	0	0	13	0	431727	0	431727	1	431727	20	0	-1	430228	431727	431726	0		TrialProc1	left	0		0	10	432037	-432037		0	0	TrialList1	target_left.png	1	d	-1	3	431777	260	d	276	432053												1	1	46				comp			450
1 ver1_main_procedure	11	1	22	<?xml version="1.0"?>\n<Clock xmlns:dt="urn:schemas-microsoft-com:datatypes"><Description dt:dt="string">E-Prime Primary Realtime Clock</Description><StartTime><Timestamp dt:dt="int">0</Timestamp><DateUtc dt:dt="string">2015-08-11T10:01:59Z</DateUtc></StartTime><FrequencyChanges><FrequencyChange><Frequency dt:dt="r8">2612324</Frequency><Timestamp dt:dt="r8">29461749879</Timestamp><Current dt:dt="r8">0</Current><DateUtc dt:dt="string">2015-08-11T10:01:59Z</DateUtc></FrequencyChange></FrequencyChanges></Clock>\n	1 ver1_main_procedure-11-1	99.939	1.0.0.880	1	jł	-602518061	prawa	1	2.0.10.182	08-11-2015	2015-08-11 10:01:59	12:01:59	mezczyzna	2.0.10.92	3	3	1	1																							l	{SPACE}		no	BlockProc1		BlockList									47	Free	dl	color_red.png		-1	7	434909	460																								75	prime_left.png	0	434338	0	0	13	1	434339	1	434339	0	434338	20	0	-1	432839	434338	434338	0		TrialProc1	left	0		0	11	434649	-434649		0	0	TrialList1	target_both.png	0	dl	-1	3	434388	261	d	513	434901												7	1	47				comp			450
1 ver1_main_procedure	11	1	22	<?xml version="1.0"?>\n<Clock xmlns:dt="urn:schemas-microsoft-com:datatypes"><Description dt:dt="string">E-Prime Primary Realtime Clock</Description><StartTime><Timestamp dt:dt="int">0</Timestamp><DateUtc dt:dt="string">2015-08-11T10:01:59Z</DateUtc></StartTime><FrequencyChanges><FrequencyChange><Frequency dt:dt="r8">2612324</Frequency><Timestamp dt:dt="r8">29461749879</Timestamp><Current dt:dt="r8">0</Current><DateUtc dt:dt="string">2015-08-11T10:01:59Z</DateUtc></FrequencyChange></FrequencyChanges></Clock>\n	1 ver1_main_procedure-11-1	99.939	1.0.0.880	1	jł	-602518061	prawa	1	2.0.10.182	08-11-2015	2015-08-11 10:01:59	12:01:59	mezczyzna	2.0.10.92	3	3	1	1																							l	{SPACE}		no	BlockProc1		BlockList									48	Cued	d	color_blue.png		-1	10	437640	461																			2					25	prime_right.png	0	437180	0	0	13	0	437180	0	437180	1	437180	20	0	-1	435681	437180	437179	0	prime_right.png	TrialProc1	left	0		0	10	437490	-437490		0	0	TrialList1	target_left.png	1	d	-1	3	437230	260	d	400	437630												2	1	48				neut			450
1 ver1_main_procedure	11	1	22	<?xml version="1.0"?>\n<Clock xmlns:dt="urn:schemas-microsoft-com:datatypes"><Description dt:dt="string">E-Prime Primary Realtime Clock</Description><StartTime><Timestamp dt:dt="int">0</Timestamp><DateUtc dt:dt="string">2015-08-11T10:01:59Z</DateUtc></StartTime><FrequencyChanges><FrequencyChange><Frequency dt:dt="r8">2612324</Frequency><Timestamp dt:dt="r8">29461749879</Timestamp><Current dt:dt="r8">0</Current><DateUtc dt:dt="string">2015-08-11T10:01:59Z</DateUtc></FrequencyChange></FrequencyChanges></Clock>\n	1 ver1_main_procedure-11-1	99.939	1.0.0.880	1	jł	-602518061	prawa	1	2.0.10.182	08-11-2015	2015-08-11 10:01:59	12:01:59	mezczyzna	2.0.10.92	3	3	1	1																							l	{SPACE}		no	BlockProc1		BlockList									49	Cued	l	color_green.png		-1	12	440362	460																			1					25	prime_left.png	0	439912	0	0	13	0	439912	0	439912	1	439912	20	0	-1	438412	439912	439911	0	prime_left.png	TrialProc1	right	0		0	10	440222	-440222		0	0	TrialList1	target_right.png	1	l	-1	3	439962	260	l	388	440350												5	1	49				neut			450
1 ver1_main_procedure	11	1	22	<?xml version="1.0"?>\n<Clock xmlns:dt="urn:schemas-microsoft-com:datatypes"><Description dt:dt="string">E-Prime Primary Realtime Clock</Description><StartTime><Timestamp dt:dt="int">0</Timestamp><DateUtc dt:dt="string">2015-08-11T10:01:59Z</DateUtc></StartTime><FrequencyChanges><FrequencyChange><Frequency dt:dt="r8">2612324</Frequency><Timestamp dt:dt="r8">29461749879</Timestamp><Current dt:dt="r8">0</Current><DateUtc dt:dt="string">2015-08-11T10:01:59Z</DateUtc></FrequencyChange></FrequencyChanges></Clock>\n	1 ver1_main_procedure-11-1	99.939	1.0.0.880	1	jł	-602518061	prawa	1	2.0.10.182	08-11-2015	2015-08-11 10:01:59	12:01:59	mezczyzna	2.0.10.92	3	3	1	1																							l	{SPACE}		no	BlockProc1		BlockList									50	Cued	d	color_purple.png		-1	6	443124	310																								25	prime_right.png	0	442633	0	0	13	0	442633	0	442633	1	442633	20	0	-1	441134	442633	442632	0		TrialProc1	left	0		1	10	442943	-442943		0	0	TrialList1	target_left.png	1	d	-1	3	442683	260	d	435	443118												3	1	50				incomp			300
1 ver1_main_procedure	11	1	22	<?xml version="1.0"?>\n<Clock xmlns:dt="urn:schemas-microsoft-com:datatypes"><Description dt:dt="string">E-Prime Primary Realtime Clock</Description><StartTime><Timestamp dt:dt="int">0</Timestamp><DateUtc dt:dt="string">2015-08-11T10:01:59Z</DateUtc></StartTime><FrequencyChanges><FrequencyChange><Frequency dt:dt="r8">2612324</Frequency><Timestamp dt:dt="r8">29461749879</Timestamp><Current dt:dt="r8">0</Current><DateUtc dt:dt="string">2015-08-11T10:01:59Z</DateUtc></FrequencyChange></FrequencyChanges></Clock>\n	1 ver1_main_procedure-11-1	99.939	1.0.0.880	1	jł	-602518061	prawa	1	2.0.10.182	08-11-2015	2015-08-11 10:01:59	12:01:59	mezczyzna	2.0.10.92	3	3	1	1																							l	{SPACE}		no	BlockProc1		BlockList									51	Cued	d	color_purple.png		-1	7	445725	310																								25	prime_right.png	0	445245	0	0	13	0	445245	0	445245	1	445245	20	0	-1	443746	445245	445244	0		TrialProc1	left	0		0	10	445555	-445555		0	0	TrialList1	target_left.png	1	d	-1	3	445295	260	d	423	445718												3	1	51				incomp			300
1 ver1_main_procedure	11	1	22	<?xml version="1.0"?>\n<Clock xmlns:dt="urn:schemas-microsoft-com:datatypes"><Description dt:dt="string">E-Prime Primary Realtime Clock</Description><StartTime><Timestamp dt:dt="int">0</Timestamp><DateUtc dt:dt="string">2015-08-11T10:01:59Z</DateUtc></StartTime><FrequencyChanges><FrequencyChange><Frequency dt:dt="r8">2612324</Frequency><Timestamp dt:dt="r8">29461749879</Timestamp><Current dt:dt="r8">0</Current><DateUtc dt:dt="string">2015-08-11T10:01:59Z</DateUtc></FrequencyChange></FrequencyChanges></Clock>\n	1 ver1_main_procedure-11-1	99.939	1.0.0.880	1	jł	-602518061	prawa	1	2.0.10.182	08-11-2015	2015-08-11 10:01:59	12:01:59	mezczyzna	2.0.10.92	3	3	1	1																							l	{SPACE}		no	BlockProc1		BlockList									52	Cued	l	color_green.png		-1	9	448247	160																			2					75	prime_right.png	1	447847	0	0	13	1	447847	1	447847	1	447846	20	0	-1	446347	447846	447845	0	prime_right.png	TrialProc1	right	0		0	11	448157	-448157		0	0	TrialList1	target_right.png	1	l	-1	3	447896	261	l	342	448238												5	1	52				neut			150
1 ver1_main_procedure	11	1	22	<?xml version="1.0"?>\n<Clock xmlns:dt="urn:schemas-microsoft-com:datatypes"><Description dt:dt="string">E-Prime Primary Realtime Clock</Description><StartTime><Timestamp dt:dt="int">0</Timestamp><DateUtc dt:dt="string">2015-08-11T10:01:59Z</DateUtc></StartTime><FrequencyChanges><FrequencyChange><Frequency dt:dt="r8">2612324</Frequency><Timestamp dt:dt="r8">29461749879</Timestamp><Current dt:dt="r8">0</Current><DateUtc dt:dt="string">2015-08-11T10:01:59Z</DateUtc></FrequencyChange></FrequencyChanges></Clock>\n	1 ver1_main_procedure-11-1	99.939	1.0.0.880	1	jł	-602518061	prawa	1	2.0.10.182	08-11-2015	2015-08-11 10:01:59	12:01:59	mezczyzna	2.0.10.92	3	3	1	1																							l	{SPACE}		no	BlockProc1		BlockList									53	Cued	l	color_yellow.png		-1	10	450608	160																								25	prime_right.png	0	450218	0	0	13	0	450218	0	450218	1	450218	20	0	-1	448719	450218	450217	0		TrialProc1	right	0		0	10	450528	-450528		0	0	TrialList1	target_right.png	1	l	-1	3	450268	260	l	330	450598												4	1	53				comp			150
1 ver1_main_procedure	11	1	22	<?xml version="1.0"?>\n<Clock xmlns:dt="urn:schemas-microsoft-com:datatypes"><Description dt:dt="string">E-Prime Primary Realtime Clock</Description><StartTime><Timestamp dt:dt="int">0</Timestamp><DateUtc dt:dt="string">2015-08-11T10:01:59Z</DateUtc></StartTime><FrequencyChanges><FrequencyChange><Frequency dt:dt="r8">2612324</Frequency><Timestamp dt:dt="r8">29461749879</Timestamp><Current dt:dt="r8">0</Current><DateUtc dt:dt="string">2015-08-11T10:01:59Z</DateUtc></FrequencyChange></FrequencyChanges></Clock>\n	1 ver1_main_procedure-11-1	99.939	1.0.0.880	1	jł	-602518061	prawa	1	2.0.10.182	08-11-2015	2015-08-11 10:01:59	12:01:59	mezczyzna	2.0.10.92	3	3	1	1																							l	{SPACE}		no	BlockProc1		BlockList									54	Cued	d	color_blue.png		-1	5	452939	160																			1					75	prime_left.png	0	452579	0	0	13	0	452579	0	452579	1	452579	20	0	-1	451080	452579	452578	0	prime_left.png	TrialProc1	left	0		0	10	452889	-452889		0	0	TrialList1	target_left.png	1	d	-1	3	452629	260	d	305	452934												2	1	54				neut			150
1 ver1_main_procedure	11	1	22	<?xml version="1.0"?>\n<Clock xmlns:dt="urn:schemas-microsoft-com:datatypes"><Description dt:dt="string">E-Prime Primary Realtime Clock</Description><StartTime><Timestamp dt:dt="int">0</Timestamp><DateUtc dt:dt="string">2015-08-11T10:01:59Z</DateUtc></StartTime><FrequencyChanges><FrequencyChange><Frequency dt:dt="r8">2612324</Frequency><Timestamp dt:dt="r8">29461749879</Timestamp><Current dt:dt="r8">0</Current><DateUtc dt:dt="string">2015-08-11T10:01:59Z</DateUtc></FrequencyChange></FrequencyChanges></Clock>\n	1 ver1_main_procedure-11-1	99.939	1.0.0.880	1	jł	-602518061	prawa	1	2.0.10.182	08-11-2015	2015-08-11 10:01:59	12:01:59	mezczyzna	2.0.10.92	3	3	1	1																							l	{SPACE}		no	BlockProc1		BlockList									55	Free	dl	color_green.png		-1	9	455271	310																			2					25	prime_right.png	1	454911	0	0	13	1	454911	1	454911	0	454910	20	0	-1	453411	454910	454910	0	prime_right.png	TrialProc1	right	0		0	11	455221	-455221		0	0	TrialList1	target_both.png	0	dl	-1	3	454960	261	l	302	455262												11	1	55				neut			300
1 ver1_main_procedure	11	1	22	<?xml version="1.0"?>\n<Clock xmlns:dt="urn:schemas-microsoft-com:datatypes"><Description dt:dt="string">E-Prime Primary Realtime Clock</Description><StartTime><Timestamp dt:dt="int">0</Timestamp><DateUtc dt:dt="string">2015-08-11T10:01:59Z</DateUtc></StartTime><FrequencyChanges><FrequencyChange><Frequency dt:dt="r8">2612324</Frequency><Timestamp dt:dt="r8">29461749879</Timestamp><Current dt:dt="r8">0</Current><DateUtc dt:dt="string">2015-08-11T10:01:59Z</DateUtc></FrequencyChange></FrequencyChanges></Clock>\n	1 ver1_main_procedure-11-1	99.939	1.0.0.880	1	jł	-602518061	prawa	1	2.0.10.182	08-11-2015	2015-08-11 10:01:59	12:01:59	mezczyzna	2.0.10.92	3	3	1	1																							l	{SPACE}		no	BlockProc1		BlockList									56	Cued	l	color_orange.png		-1	6	457892	160																								25	prime_left.png	0	457392	0	0	13	0	457392	0	457392	1	457392	20	0	-1	455893	457392	457391	0		TrialProc1	right	0		0	10	457702	-457702		0	0	TrialList1	target_right.png	1	l	-1	3	457442	260	l	444	457886												6	1	56				incomp			150
1 ver1_main_procedure	11	1	22	<?xml version="1.0"?>\n<Clock xmlns:dt="urn:schemas-microsoft-com:datatypes"><Description dt:dt="string">E-Prime Primary Realtime Clock</Description><StartTime><Timestamp dt:dt="int">0</Timestamp><DateUtc dt:dt="string">2015-08-11T10:01:59Z</DateUtc></StartTime><FrequencyChanges><FrequencyChange><Frequency dt:dt="r8">2612324</Frequency><Timestamp dt:dt="r8">29461749879</Timestamp><Current dt:dt="r8">0</Current><DateUtc dt:dt="string">2015-08-11T10:01:59Z</DateUtc></FrequencyChange></FrequencyChanges></Clock>\n	1 ver1_main_procedure-11-1	99.939	1.0.0.880	1	jł	-602518061	prawa	1	2.0.10.182	08-11-2015	2015-08-11 10:01:59	12:01:59	mezczyzna	2.0.10.92	3	3	1	1																							l	{SPACE}		no	BlockProc1		BlockList									57	Cued	d	color_red.png		-1	6	460204	310																								25	prime_left.png	0	459863	0	0	13	1	459864	1	459864	0	459863	20	0	-1	458364	459863	459863	0		TrialProc1	left	0		0	11	460174	-460174		0	0	TrialList1	target_left.png	1	d	-1	3	459913	261	d	285	460198												1	1	57				comp			300
1 ver1_main_procedure	11	1	22	<?xml version="1.0"?>\n<Clock xmlns:dt="urn:schemas-microsoft-com:datatypes"><Description dt:dt="string">E-Prime Primary Realtime Clock</Description><StartTime><Timestamp dt:dt="int">0</Timestamp><DateUtc dt:dt="string">2015-08-11T10:01:59Z</DateUtc></StartTime><FrequencyChanges><FrequencyChange><Frequency dt:dt="r8">2612324</Frequency><Timestamp dt:dt="r8">29461749879</Timestamp><Current dt:dt="r8">0</Current><DateUtc dt:dt="string">2015-08-11T10:01:59Z</DateUtc></FrequencyChange></FrequencyChanges></Clock>\n	1 ver1_main_procedure-11-1	99.939	1.0.0.880	1	jł	-602518061	prawa	1	2.0.10.182	08-11-2015	2015-08-11 10:01:59	12:01:59	mezczyzna	2.0.10.92	3	3	1	1																							l	{SPACE}		no	BlockProc1		BlockList									58	Free	dl	color_yellow.png		-1	9	462895	460																								75	prime_right.png	0	462325	0	0	13	0	462325	0	462325	1	462325	20	0	-1	460826	462325	462324	0		TrialProc1	right	0		0	10	462635	-462635		0	0	TrialList1	target_both.png	0	dl	-1	3	462375	260	l	511	462886												10	1	58				comp			450
1 ver1_main_procedure	11	1	22	<?xml version="1.0"?>\n<Clock xmlns:dt="urn:schemas-microsoft-com:datatypes"><Description dt:dt="string">E-Prime Primary Realtime Clock</Description><StartTime><Timestamp dt:dt="int">0</Timestamp><DateUtc dt:dt="string">2015-08-11T10:01:59Z</DateUtc></StartTime><FrequencyChanges><FrequencyChange><Frequency dt:dt="r8">2612324</Frequency><Timestamp dt:dt="r8">29461749879</Timestamp><Current dt:dt="r8">0</Current><DateUtc dt:dt="string">2015-08-11T10:01:59Z</DateUtc></FrequencyChange></FrequencyChanges></Clock>\n	1 ver1_main_procedure-11-1	99.939	1.0.0.880	1	jł	-602518061	prawa	1	2.0.10.182	08-11-2015	2015-08-11 10:01:59	12:01:59	mezczyzna	2.0.10.92	3	3	1	1																							l	{SPACE}		no	BlockProc1		BlockList									59	Cued	l	color_green.png		-1	14	465597	160																			1					25	prime_left.png	0	465167	0	0	13	0	465167	0	465167	1	465167	20	0	-1	463667	465167	465166	0	prime_left.png	TrialProc1	right	0		0	10	465477	-465477		0	0	TrialList1	target_right.png	1	l	-1	3	465217	260	l	365	465582												5	1	59				neut			150
1 ver1_main_procedure	11	1	22	<?xml version="1.0"?>\n<Clock xmlns:dt="urn:schemas-microsoft-com:datatypes"><Description dt:dt="string">E-Prime Primary Realtime Clock</Description><StartTime><Timestamp dt:dt="int">0</Timestamp><DateUtc dt:dt="string">2015-08-11T10:01:59Z</DateUtc></StartTime><FrequencyChanges><FrequencyChange><Frequency dt:dt="r8">2612324</Frequency><Timestamp dt:dt="r8">29461749879</Timestamp><Current dt:dt="r8">0</Current><DateUtc dt:dt="string">2015-08-11T10:01:59Z</DateUtc></FrequencyChange></FrequencyChanges></Clock>\n	1 ver1_main_procedure-11-1	99.939	1.0.0.880	1	jł	-602518061	prawa	1	2.0.10.182	08-11-2015	2015-08-11 10:01:59	12:01:59	mezczyzna	2.0.10.92	3	3	1	1																							l	{SPACE}		no	BlockProc1		BlockList									60	Free	dl	color_blue.png		-1	5	468188	310																			2					25	prime_right.png	0	467568	0	0	13	0	467568	0	467568	1	467568	20	0	-1	466069	467568	467567	0	prime_right.png	TrialProc1	right	0		0	10	467878	-467878		0	0	TrialList1	target_both.png	0	dl	-1	3	467618	260	d	564	468182												11	1	60				neut			300
1 ver1_main_procedure	11	1	22	<?xml version="1.0"?>\n<Clock xmlns:dt="urn:schemas-microsoft-com:datatypes"><Description dt:dt="string">E-Prime Primary Realtime Clock</Description><StartTime><Timestamp dt:dt="int">0</Timestamp><DateUtc dt:dt="string">2015-08-11T10:01:59Z</DateUtc></StartTime><FrequencyChanges><FrequencyChange><Frequency dt:dt="r8">2612324</Frequency><Timestamp dt:dt="r8">29461749879</Timestamp><Current dt:dt="r8">0</Current><DateUtc dt:dt="string">2015-08-11T10:01:59Z</DateUtc></FrequencyChange></FrequencyChanges></Clock>\n	1 ver1_main_procedure-11-1	99.939	1.0.0.880	1	jł	-602518061	prawa	1	2.0.10.182	08-11-2015	2015-08-11 10:01:59	12:01:59	mezczyzna	2.0.10.92	3	3	1	1																							l	{SPACE}		no	BlockProc1		BlockList									61	Cued	l	color_orange.png		-1	11	470770	160																								75	prime_left.png	0	470310	0	0	13	0	470310	0	470310	1	470310	20	0	-1	468810	470310	470309	0		TrialProc1	right	0		0	10	470620	-470620		0	0	TrialList1	target_right.png	1	l	-1	3	470360	260	l	398	470758												6	1	61				incomp			150
1 ver1_main_procedure	11	1	22	<?xml version="1.0"?>\n<Clock xmlns:dt="urn:schemas-microsoft-com:datatypes"><Description dt:dt="string">E-Prime Primary Realtime Clock</Description><StartTime><Timestamp dt:dt="int">0</Timestamp><DateUtc dt:dt="string">2015-08-11T10:01:59Z</DateUtc></StartTime><FrequencyChanges><FrequencyChange><Frequency dt:dt="r8">2612324</Frequency><Timestamp dt:dt="r8">29461749879</Timestamp><Current dt:dt="r8">0</Current><DateUtc dt:dt="string">2015-08-11T10:01:59Z</DateUtc></FrequencyChange></FrequencyChanges></Clock>\n	1 ver1_main_procedure-11-1	99.939	1.0.0.880	1	jł	-602518061	prawa	1	2.0.10.182	08-11-2015	2015-08-11 10:01:59	12:01:59	mezczyzna	2.0.10.92	3	3	1	1																							l	{SPACE}		no	BlockProc1		BlockList									62	Free	dl	color_purple.png		-1	8	473191	160																								25	prime_right.png	0	472741	0	0	13	0	472741	0	472741	1	472741	20	0	-1	471242	472741	472740	0		TrialProc1	right	0		0	10	473051	-473051		0	0	TrialList1	target_both.png	0	dl	-1	3	472791	260	d	391	473182												10	1	62				comp			150
1 ver1_main_procedure	11	1	22	<?xml version="1.0"?>\n<Clock xmlns:dt="urn:schemas-microsoft-com:datatypes"><Description dt:dt="string">E-Prime Primary Realtime Clock</Description><StartTime><Timestamp dt:dt="int">0</Timestamp><DateUtc dt:dt="string">2015-08-11T10:01:59Z</DateUtc></StartTime><FrequencyChanges><FrequencyChange><Frequency dt:dt="r8">2612324</Frequency><Timestamp dt:dt="r8">29461749879</Timestamp><Current dt:dt="r8">0</Current><DateUtc dt:dt="string">2015-08-11T10:01:59Z</DateUtc></FrequencyChange></FrequencyChanges></Clock>\n	1 ver1_main_procedure-11-1	99.939	1.0.0.880	1	jł	-602518061	prawa	1	2.0.10.182	08-11-2015	2015-08-11 10:01:59	12:01:59	mezczyzna	2.0.10.92	3	3	1	1																							l	{SPACE}		no	BlockProc1		BlockList									63	Free	dl	color_orange.png		-1	8	475783	160																								75	prime_left.png	0	475162	0	0	13	1	475163	1	475163	0	475162	20	0	-1	473663	475162	475162	0		TrialProc1	right	0		0	11	475473	-475473		0	0	TrialList1	target_both.png	0	dl	-1	3	475212	261	l	562	475774												12	1	63				incomp			150
1 ver1_main_procedure	11	1	22	<?xml version="1.0"?>\n<Clock xmlns:dt="urn:schemas-microsoft-com:datatypes"><Description dt:dt="string">E-Prime Primary Realtime Clock</Description><StartTime><Timestamp dt:dt="int">0</Timestamp><DateUtc dt:dt="string">2015-08-11T10:01:59Z</DateUtc></StartTime><FrequencyChanges><FrequencyChange><Frequency dt:dt="r8">2612324</Frequency><Timestamp dt:dt="r8">29461749879</Timestamp><Current dt:dt="r8">0</Current><DateUtc dt:dt="string">2015-08-11T10:01:59Z</DateUtc></FrequencyChange></FrequencyChanges></Clock>\n	1 ver1_main_procedure-11-1	99.939	1.0.0.880	1	jł	-602518061	prawa	1	2.0.10.182	08-11-2015	2015-08-11 10:01:59	12:01:59	mezczyzna	2.0.10.92	3	3	1	1																							l	{SPACE}		no	BlockProc1		BlockList									64	Free	dl	color_red.png		-1	7	478254	160																								25	prime_left.png	0	477754	0	0	13	0	477754	0	477754	1	477754	20	0	-1	476255	477754	477753	0		TrialProc1	left	0		0	10	478064	-478064		0	0	TrialList1	target_both.png	0	dl	-1	3	477804	260	d	442	478246												7	1	64				comp			150
1 ver1_main_procedure	11	1	22	<?xml version="1.0"?>\n<Clock xmlns:dt="urn:schemas-microsoft-com:datatypes"><Description dt:dt="string">E-Prime Primary Realtime Clock</Description><StartTime><Timestamp dt:dt="int">0</Timestamp><DateUtc dt:dt="string">2015-08-11T10:01:59Z</DateUtc></StartTime><FrequencyChanges><FrequencyChange><Frequency dt:dt="r8">2612324</Frequency><Timestamp dt:dt="r8">29461749879</Timestamp><Current dt:dt="r8">0</Current><DateUtc dt:dt="string">2015-08-11T10:01:59Z</DateUtc></FrequencyChange></FrequencyChanges></Clock>\n	1 ver1_main_procedure-11-1	99.939	1.0.0.880	1	jł	-602518061	prawa	1	2.0.10.182	08-11-2015	2015-08-11 10:01:59	12:01:59	mezczyzna	2.0.10.92	3	3	1	1																							l	{SPACE}		no	BlockProc1		BlockList									65	Cued	d	color_purple.png		-1	13	480716	310																								25	prime_right.png	0	480225	0	0	13	0	480226	0	480225	1	480225	20	0	-1	478726	480225	480224	0		TrialProc1	left	0		0	11	480536	-480536		0	0	TrialList1	target_left.png	1	d	-1	3	480275	261	d	427	480702												3	1	65				incomp			300
1 ver1_main_procedure	11	1	22	<?xml version="1.0"?>\n<Clock xmlns:dt="urn:schemas-microsoft-com:datatypes"><Description dt:dt="string">E-Prime Primary Realtime Clock</Description><StartTime><Timestamp dt:dt="int">0</Timestamp><DateUtc dt:dt="string">2015-08-11T10:01:59Z</DateUtc></StartTime><FrequencyChanges><FrequencyChange><Frequency dt:dt="r8">2612324</Frequency><Timestamp dt:dt="r8">29461749879</Timestamp><Current dt:dt="r8">0</Current><DateUtc dt:dt="string">2015-08-11T10:01:59Z</DateUtc></FrequencyChange></FrequencyChanges></Clock>\n	1 ver1_main_procedure-11-1	99.939	1.0.0.880	1	jł	-602518061	prawa	1	2.0.10.182	08-11-2015	2015-08-11 10:01:59	12:01:59	mezczyzna	2.0.10.92	3	3	1	1																							l	{SPACE}		no	BlockProc1		BlockList									66	Cued	d	color_blue.png		-1	10	483257	160																			1					75	prime_left.png	0	482837	0	0	13	0	482837	0	482837	1	482837	20	0	-1	481338	482837	482836	0	prime_left.png	TrialProc1	left	0		0	10	483147	-483147		0	0	TrialList1	target_left.png	1	d	-1	3	482887	260	d	359	483246												2	1	66				neut			150
1 ver1_main_procedure	11	1	22	<?xml version="1.0"?>\n<Clock xmlns:dt="urn:schemas-microsoft-com:datatypes"><Description dt:dt="string">E-Prime Primary Realtime Clock</Description><StartTime><Timestamp dt:dt="int">0</Timestamp><DateUtc dt:dt="string">2015-08-11T10:01:59Z</DateUtc></StartTime><FrequencyChanges><FrequencyChange><Frequency dt:dt="r8">2612324</Frequency><Timestamp dt:dt="r8">29461749879</Timestamp><Current dt:dt="r8">0</Current><DateUtc dt:dt="string">2015-08-11T10:01:59Z</DateUtc></FrequencyChange></FrequencyChanges></Clock>\n	1 ver1_main_procedure-11-1	99.939	1.0.0.880	1	jł	-602518061	prawa	1	2.0.10.182	08-11-2015	2015-08-11 10:01:59	12:01:59	mezczyzna	2.0.10.92	3	3	1	1																							l	{SPACE}		no	BlockProc1		BlockList									67	Cued	l	color_yellow.png		-1	8	485679	310																								25	prime_right.png	0	485228	0	0	13	0	485228	0	485228	1	485228	20	0	-1	483729	485228	485227	0		TrialProc1	right	0		1	10	485538	-485538		0	0	TrialList1	target_right.png	1	l	-1	3	485278	260	l	392	485670												4	1	67				comp			300
1 ver1_main_procedure	11	1	22	<?xml version="1.0"?>\n<Clock xmlns:dt="urn:schemas-microsoft-com:datatypes"><Description dt:dt="string">E-Prime Primary Realtime Clock</Description><StartTime><Timestamp dt:dt="int">0</Timestamp><DateUtc dt:dt="string">2015-08-11T10:01:59Z</DateUtc></StartTime><FrequencyChanges><FrequencyChange><Frequency dt:dt="r8">2612324</Frequency><Timestamp dt:dt="r8">29461749879</Timestamp><Current dt:dt="r8">0</Current><DateUtc dt:dt="string">2015-08-11T10:01:59Z</DateUtc></FrequencyChange></FrequencyChanges></Clock>\n	1 ver1_main_procedure-11-1	99.939	1.0.0.880	1	jł	-602518061	prawa	1	2.0.10.182	08-11-2015	2015-08-11 10:01:59	12:01:59	mezczyzna	2.0.10.92	3	3	1	1																							l	{SPACE}		no	BlockProc1		BlockList									68	Cued	d	color_red.png		-1	13	488180	460																								25	prime_left.png	0	487800	0	0	13	0	487800	0	487800	1	487800	20	0	-1	486301	487800	487799	0		TrialProc1	left	0		0	10	488110	-488110		0	0	TrialList1	target_left.png	1	d	-1	3	487850	260	d	316	488166												1	1	68				comp			450
1 ver1_main_procedure	11	1	22	<?xml version="1.0"?>\n<Clock xmlns:dt="urn:schemas-microsoft-com:datatypes"><Description dt:dt="string">E-Prime Primary Realtime Clock</Description><StartTime><Timestamp dt:dt="int">0</Timestamp><DateUtc dt:dt="string">2015-08-11T10:01:59Z</DateUtc></StartTime><FrequencyChanges><FrequencyChange><Frequency dt:dt="r8">2612324</Frequency><Timestamp dt:dt="r8">29461749879</Timestamp><Current dt:dt="r8">0</Current><DateUtc dt:dt="string">2015-08-11T10:01:59Z</DateUtc></FrequencyChange></FrequencyChanges></Clock>\n	1 ver1_main_procedure-11-1	99.939	1.0.0.880	1	jł	-602518061	prawa	1	2.0.10.182	08-11-2015	2015-08-11 10:01:59	12:01:59	mezczyzna	2.0.10.92	3	3	1	1																							l	{SPACE}		no	BlockProc1		BlockList									69	Cued	l	color_orange.png		-1	9	490872	310																								25	prime_left.png	0	490451	0	0	13	0	490452	0	490451	1	490451	20	0	-1	488952	490451	490450	0		TrialProc1	right	0		0	11	490762	-490762		0	0	TrialList1	target_right.png	1	l	-1	3	490501	261	l	361	490862												6	1	69				incomp			300
1 ver1_main_procedure	11	1	22	<?xml version="1.0"?>\n<Clock xmlns:dt="urn:schemas-microsoft-com:datatypes"><Description dt:dt="string">E-Prime Primary Realtime Clock</Description><StartTime><Timestamp dt:dt="int">0</Timestamp><DateUtc dt:dt="string">2015-08-11T10:01:59Z</DateUtc></StartTime><FrequencyChanges><FrequencyChange><Frequency dt:dt="r8">2612324</Frequency><Timestamp dt:dt="r8">29461749879</Timestamp><Current dt:dt="r8">0</Current><DateUtc dt:dt="string">2015-08-11T10:01:59Z</DateUtc></FrequencyChange></FrequencyChanges></Clock>\n	1 ver1_main_procedure-11-1	99.939	1.0.0.880	1	jł	-602518061	prawa	1	2.0.10.182	08-11-2015	2015-08-11 10:01:59	12:01:59	mezczyzna	2.0.10.92	3	3	1	1																							l	{SPACE}		no	BlockProc1		BlockList									70	Free	dl	color_purple.png		-1	14	493493	310																								25	prime_right.png	0	492993	0	0	13	0	492993	0	492993	1	492993	20	0	-1	491494	492993	492992	0		TrialProc1	left	0		0	10	493303	-493303		0	0	TrialList1	target_both.png	0	dl	-1	3	493043	260	d	435	493478												9	1	70				incomp			300
1 ver1_main_procedure	11	1	22	<?xml version="1.0"?>\n<Clock xmlns:dt="urn:schemas-microsoft-com:datatypes"><Description dt:dt="string">E-Prime Primary Realtime Clock</Description><StartTime><Timestamp dt:dt="int">0</Timestamp><DateUtc dt:dt="string">2015-08-11T10:01:59Z</DateUtc></StartTime><FrequencyChanges><FrequencyChange><Frequency dt:dt="r8">2612324</Frequency><Timestamp dt:dt="r8">29461749879</Timestamp><Current dt:dt="r8">0</Current><DateUtc dt:dt="string">2015-08-11T10:01:59Z</DateUtc></FrequencyChange></FrequencyChanges></Clock>\n	1 ver1_main_procedure-11-1	99.939	1.0.0.880	1	jł	-602518061	prawa	1	2.0.10.182	08-11-2015	2015-08-11 10:01:59	12:01:59	mezczyzna	2.0.10.92	3	3	1	1																							l	{SPACE}		no	BlockProc1		BlockList									71	Cued	l	color_orange.png		-1	10	496065	460																								25	prime_left.png	0	495614	0	0	13	1	495615	1	495615	1	495614	20	0	-1	494115	495614	495613	0		TrialProc1	right	0		0	11	495925	-495925		0	0	TrialList1	target_right.png	1	l	-1	3	495664	261	l	390	496054												6	1	71				incomp			450
1 ver1_main_procedure	11	1	22	<?xml version="1.0"?>\n<Clock xmlns:dt="urn:schemas-microsoft-com:datatypes"><Description dt:dt="string">E-Prime Primary Realtime Clock</Description><StartTime><Timestamp dt:dt="int">0</Timestamp><DateUtc dt:dt="string">2015-08-11T10:01:59Z</DateUtc></StartTime><FrequencyChanges><FrequencyChange><Frequency dt:dt="r8">2612324</Frequency><Timestamp dt:dt="r8">29461749879</Timestamp><Current dt:dt="r8">0</Current><DateUtc dt:dt="string">2015-08-11T10:01:59Z</DateUtc></FrequencyChange></FrequencyChanges></Clock>\n	1 ver1_main_procedure-11-1	99.939	1.0.0.880	1	jł	-602518061	prawa	1	2.0.10.182	08-11-2015	2015-08-11 10:01:59	12:01:59	mezczyzna	2.0.10.92	3	3	1	1																							l	{SPACE}		no	BlockProc1		BlockList									72	Cued	d	color_red.png		-1	7	498686	460																								25	prime_left.png	0	498336	0	0	13	0	498336	0	498336	1	498336	20	0	-1	496837	498336	498335	0		TrialProc1	left	0		0	10	498646	-498646		0	0	TrialList1	target_left.png	1	d	-1	3	498386	260	d	292	498678												1	1	72				comp			450
1 ver1_main_procedure	11	1	22	<?xml version="1.0"?>\n<Clock xmlns:dt="urn:schemas-microsoft-com:datatypes"><Description dt:dt="string">E-Prime Primary Realtime Clock</Description><StartTime><Timestamp dt:dt="int">0</Timestamp><DateUtc dt:dt="string">2015-08-11T10:01:59Z</DateUtc></StartTime><FrequencyChanges><FrequencyChange><Frequency dt:dt="r8">2612324</Frequency><Timestamp dt:dt="r8">29461749879</Timestamp><Current dt:dt="r8">0</Current><DateUtc dt:dt="string">2015-08-11T10:01:59Z</DateUtc></FrequencyChange></FrequencyChanges></Clock>\n	1 ver1_main_procedure-11-1	99.939	1.0.0.880	1	jł	-602518061	prawa	1	2.0.10.182	08-11-2015	2015-08-11 10:01:59	12:01:59	mezczyzna	2.0.10.92	3	3	1	1																							l	{SPACE}		no	BlockProc1		BlockList									73									4	1	2	5	6	3	color_red.png	color_purple.png	color_green.png	color_yellow.png	color_blue.png	color_orange.png	color_purple.png	color_green.png	color_orange.png	color_red.png	color_yellow.png	color_blue.png		1	1	1	40487																						DragProc											Ocena																															
1 ver1_main_procedure	11	1	22	<?xml version="1.0"?>\n<Clock xmlns:dt="urn:schemas-microsoft-com:datatypes"><Description dt:dt="string">E-Prime Primary Realtime Clock</Description><StartTime><Timestamp dt:dt="int">0</Timestamp><DateUtc dt:dt="string">2015-08-11T10:01:59Z</DateUtc></StartTime><FrequencyChanges><FrequencyChange><Frequency dt:dt="r8">2612324</Frequency><Timestamp dt:dt="r8">29461749879</Timestamp><Current dt:dt="r8">0</Current><DateUtc dt:dt="string">2015-08-11T10:01:59Z</DateUtc></FrequencyChange></FrequencyChanges></Clock>\n	1 ver1_main_procedure-11-1	99.939	1.0.0.880	1	jł	-602518061	prawa	1	2.0.10.182	08-11-2015	2015-08-11 10:01:59	12:01:59	mezczyzna	2.0.10.92	3	3	1	1																							l	{SPACE}		no	BlockProc1		BlockList									74															color_red.png	color_purple.png	color_green.png	color_yellow.png	color_blue.png	color_orange.png								2	1	2																							EnterProc											Ocena												11	25	45	55	80	95														
1 ver1_main_procedure	11	1	22	<?xml version="1.0"?>\n<Clock xmlns:dt="urn:schemas-microsoft-com:datatypes"><Description dt:dt="string">E-Prime Primary Realtime Clock</Description><StartTime><Timestamp dt:dt="int">0</Timestamp><DateUtc dt:dt="string">2015-08-11T10:01:59Z</DateUtc></StartTime><FrequencyChanges><FrequencyChange><Frequency dt:dt="r8">2612324</Frequency><Timestamp dt:dt="r8">29461749879</Timestamp><Current dt:dt="r8">0</Current><DateUtc dt:dt="string">2015-08-11T10:01:59Z</DateUtc></FrequencyChange></FrequencyChanges></Clock>\n	1 ver1_main_procedure-11-1	99.939	1.0.0.880	1	jł	-602518061	prawa	1	2.0.10.182	08-11-2015	2015-08-11 10:01:59	12:01:59	mezczyzna	2.0.10.92	4	2	1	2																							l	{SPACE}		no	BlockProc1		BlockList									1	Free	dl	color_purple.png		-1	10	743500	460																			2					25	prime_right.png	0	742800	0	0	13	0	742800	0	742800	1	742800	20	0	-1	741301	742800	742799	0	prime_right.png	TrialProc1	left	0		0	10	743110	-743110		0	0	TrialList1	target_both.png	0	dl	-1	3	742850	260	l	639	743489												8	2	73				neut			450
1 ver1_main_procedure	11	1	22	<?xml version="1.0"?>\n<Clock xmlns:dt="urn:schemas-microsoft-com:datatypes"><Description dt:dt="string">E-Prime Primary Realtime Clock</Description><StartTime><Timestamp dt:dt="int">0</Timestamp><DateUtc dt:dt="string">2015-08-11T10:01:59Z</DateUtc></StartTime><FrequencyChanges><FrequencyChange><Frequency dt:dt="r8">2612324</Frequency><Timestamp dt:dt="r8">29461749879</Timestamp><Current dt:dt="r8">0</Current><DateUtc dt:dt="string">2015-08-11T10:01:59Z</DateUtc></FrequencyChange></FrequencyChanges></Clock>\n	1 ver1_main_procedure-11-1	99.939	1.0.0.880	1	jł	-602518061	prawa	1	2.0.10.182	08-11-2015	2015-08-11 10:01:59	12:01:59	mezczyzna	2.0.10.92	4	2	1	2																							l	{SPACE}		no	BlockProc1		BlockList									2	Free	dl	color_blue.png		-1	6	746392	160																								25	prime_left.png	0	745771	0	0	13	0	745772	0	745771	1	745771	20	0	-1	744272	745771	745770	0		TrialProc1	right	0		0	11	746082	-746082		0	0	TrialList1	target_both.png	0	dl	-1	3	745821	261	d	564	746385												12	2	74				incomp			150
1 ver1_main_procedure	11	1	22	<?xml version="1.0"?>\n<Clock xmlns:dt="urn:schemas-microsoft-com:datatypes"><Description dt:dt="string">E-Prime Primary Realtime Clock</Description><StartTime><Timestamp dt:dt="int">0</Timestamp><DateUtc dt:dt="string">2015-08-11T10:01:59Z</DateUtc></StartTime><FrequencyChanges><FrequencyChange><Frequency dt:dt="r8">2612324</Frequency><Timestamp dt:dt="r8">29461749879</Timestamp><Current dt:dt="r8">0</Current><DateUtc dt:dt="string">2015-08-11T10:01:59Z</DateUtc></FrequencyChange></FrequencyChanges></Clock>\n	1 ver1_main_procedure-11-1	99.939	1.0.0.880	1	jł	-602518061	prawa	1	2.0.10.182	08-11-2015	2015-08-11 10:01:59	12:01:59	mezczyzna	2.0.10.92	4	2	1	2																							l	{SPACE}		no	BlockProc1		BlockList									3	Cued	d	color_yellow.png		-1	9	748723	160																			1					25	prime_left.png	0	748363	0	0	13	0	748363	0	748363	1	748363	20	0	-1	746864	748363	748362	0	prime_left.png	TrialProc1	left	0		0	10	748673	-748673		0	0	TrialList1	target_left.png	1	d	-1	3	748413	260	d	300	748713												2	2	75				neut			150
1 ver1_main_procedure	11	1	22	<?xml version="1.0"?>\n<Clock xmlns:dt="urn:schemas-microsoft-com:datatypes"><Description dt:dt="string">E-Prime Primary Realtime Clock</Description><StartTime><Timestamp dt:dt="int">0</Timestamp><DateUtc dt:dt="string">2015-08-11T10:01:59Z</DateUtc></StartTime><FrequencyChanges><FrequencyChange><Frequency dt:dt="r8">2612324</Frequency><Timestamp dt:dt="r8">29461749879</Timestamp><Current dt:dt="r8">0</Current><DateUtc dt:dt="string">2015-08-11T10:01:59Z</DateUtc></FrequencyChange></FrequencyChanges></Clock>\n	1 ver1_main_procedure-11-1	99.939	1.0.0.880	1	jł	-602518061	prawa	1	2.0.10.182	08-11-2015	2015-08-11 10:01:59	12:01:59	mezczyzna	2.0.10.92	4	2	1	2																							l	{SPACE}		no	BlockProc1		BlockList									4	Cued	l			-1	12	751054	161																			2					75	prime_right.png	0	750694	0	0	13	0	750695	0	750694	1	750694	20	0	-1	749195	750694	750693	0	prime_right.png	TrialProc1	right	0		1	10	751004	-751004		0	0	TrialList1	target_right.png	0	l	-1	3	750744	260	d	297	751041												5	2	76				neut			150
1 ver1_main_procedure	11	1	22	<?xml version="1.0"?>\n<Clock xmlns:dt="urn:schemas-microsoft-com:datatypes"><Description dt:dt="string">E-Prime Primary Realtime Clock</Description><StartTime><Timestamp dt:dt="int">0</Timestamp><DateUtc dt:dt="string">2015-08-11T10:01:59Z</DateUtc></StartTime><FrequencyChanges><FrequencyChange><Frequency dt:dt="r8">2612324</Frequency><Timestamp dt:dt="r8">29461749879</Timestamp><Current dt:dt="r8">0</Current><DateUtc dt:dt="string">2015-08-11T10:01:59Z</DateUtc></FrequencyChange></FrequencyChanges></Clock>\n	1 ver1_main_procedure-11-1	99.939	1.0.0.880	1	jł	-602518061	prawa	1	2.0.10.182	08-11-2015	2015-08-11 10:01:59	12:01:59	mezczyzna	2.0.10.92	4	2	1	2																							l	{SPACE}		no	BlockProc1		BlockList									5	Free	dl	color_orange.png		-1	12	753606	160																								25	prime_right.png	0	753026	0	0	13	0	753026	0	753026	1	753026	20	0	-1	751526	753026	753025	0		TrialProc1	left	0		0	10	753336	-753336		0	0	TrialList1	target_both.png	0	dl	-1	3	753076	260	l	517	753593												9	2	77				incomp			150
1 ver1_main_procedure	11	1	22	<?xml version="1.0"?>\n<Clock xmlns:dt="urn:schemas-microsoft-com:datatypes"><Description dt:dt="string">E-Prime Primary Realtime Clock</Description><StartTime><Timestamp dt:dt="int">0</Timestamp><DateUtc dt:dt="string">2015-08-11T10:01:59Z</DateUtc></StartTime><FrequencyChanges><FrequencyChange><Frequency dt:dt="r8">2612324</Frequency><Timestamp dt:dt="r8">29461749879</Timestamp><Current dt:dt="r8">0</Current><DateUtc dt:dt="string">2015-08-11T10:01:59Z</DateUtc></FrequencyChange></FrequencyChanges></Clock>\n	1 ver1_main_procedure-11-1	99.939	1.0.0.880	1	jł	-602518061	prawa	1	2.0.10.182	08-11-2015	2015-08-11 10:01:59	12:01:59	mezczyzna	2.0.10.92	4	2	1	2																							l	{SPACE}		no	BlockProc1		BlockList									6	Cued	l	color_orange.png		-1	7	755937	310																								25	prime_right.png	0	755577	0	0	13	0	755577	0	755577	1	755577	20	0	-1	754078	755577	755576	0		TrialProc1	right	0		1	10	755887	-755887		0	0	TrialList1	target_right.png	1	l	-1	3	755627	260	l	302	755929												4	2	78				comp			300
1 ver1_main_procedure	11	1	22	<?xml version="1.0"?>\n<Clock xmlns:dt="urn:schemas-microsoft-com:datatypes"><Description dt:dt="string">E-Prime Primary Realtime Clock</Description><StartTime><Timestamp dt:dt="int">0</Timestamp><DateUtc dt:dt="string">2015-08-11T10:01:59Z</DateUtc></StartTime><FrequencyChanges><FrequencyChange><Frequency dt:dt="r8">2612324</Frequency><Timestamp dt:dt="r8">29461749879</Timestamp><Current dt:dt="r8">0</Current><DateUtc dt:dt="string">2015-08-11T10:01:59Z</DateUtc></FrequencyChange></FrequencyChanges></Clock>\n	1 ver1_main_procedure-11-1	99.939	1.0.0.880	1	jł	-602518061	prawa	1	2.0.10.182	08-11-2015	2015-08-11 10:01:59	12:01:59	mezczyzna	2.0.10.92	4	2	1	2																							l	{SPACE}		no	BlockProc1		BlockList									7	Cued	l	color_orange.png		-1	9	758499	310																								75	prime_right.png	0	758059	0	0	13	0	758059	0	758059	1	758059	20	0	-1	756559	758059	758058	0		TrialProc1	right	0		0	10	758369	-758369		0	0	TrialList1	target_right.png	1	l	-1	3	758109	260	l	381	758490												4	2	79				comp			300
1 ver1_main_procedure	11	1	22	<?xml version="1.0"?>\n<Clock xmlns:dt="urn:schemas-microsoft-com:datatypes"><Description dt:dt="string">E-Prime Primary Realtime Clock</Description><StartTime><Timestamp dt:dt="int">0</Timestamp><DateUtc dt:dt="string">2015-08-11T10:01:59Z</DateUtc></StartTime><FrequencyChanges><FrequencyChange><Frequency dt:dt="r8">2612324</Frequency><Timestamp dt:dt="r8">29461749879</Timestamp><Current dt:dt="r8">0</Current><DateUtc dt:dt="string">2015-08-11T10:01:59Z</DateUtc></FrequencyChange></FrequencyChanges></Clock>\n	1 ver1_main_procedure-11-1	99.939	1.0.0.880	1	jł	-602518061	prawa	1	2.0.10.182	08-11-2015	2015-08-11 10:01:59	12:01:59	mezczyzna	2.0.10.92	4	2	1	2																							l	{SPACE}		no	BlockProc1		BlockList									8	Cued	l	color_green.png		-1	12	761070	461																								25	prime_left.png	0	760620	0	0	13	0	760620	0	760620	1	760620	20	0	-1	759121	760620	760619	0		TrialProc1	right	0		0	10	760930	-760930		0	0	TrialList1	target_right.png	1	l	-1	3	760670	260	l	388	761058												6	2	80				incomp			450
1 ver1_main_procedure	11	1	22	<?xml version="1.0"?>\n<Clock xmlns:dt="urn:schemas-microsoft-com:datatypes"><Description dt:dt="string">E-Prime Primary Realtime Clock</Description><StartTime><Timestamp dt:dt="int">0</Timestamp><DateUtc dt:dt="string">2015-08-11T10:01:59Z</DateUtc></StartTime><FrequencyChanges><FrequencyChange><Frequency dt:dt="r8">2612324</Frequency><Timestamp dt:dt="r8">29461749879</Timestamp><Current dt:dt="r8">0</Current><DateUtc dt:dt="string">2015-08-11T10:01:59Z</DateUtc></FrequencyChange></FrequencyChanges></Clock>\n	1 ver1_main_procedure-11-1	99.939	1.0.0.880	1	jł	-602518061	prawa	1	2.0.10.182	08-11-2015	2015-08-11 10:01:59	12:01:59	mezczyzna	2.0.10.92	4	2	1	2																							l	{SPACE}		no	BlockProc1		BlockList									9	Free	dl	color_yellow.png		-1	12	763902	310																			1					25	prime_left.png	0	763342	0	0	13	0	763342	0	763342	1	763342	20	0	-1	761843	763342	763341	0	prime_left.png	TrialProc1	right	0		0	10	763652	-763652		0	0	TrialList1	target_both.png	0	dl	-1	3	763392	260	d	498	763890												11	2	81				neut			300
