ExperimentName	Subject	Session	Age	Clock.Information	DataFile.Basename	Display.RefreshRate	ExperimentVersion	Group	Name	RandomSeed	Recznosc	ResearcherID	RuntimeVersion	SessionDate	SessionStartDateTimeUtc	SessionTime	Sex	StudioVersion	Block	BlockList	BlockList.Cycle	BlockList.Sample	BlockNumber	GoodBye.RESP	GoodBye2.RESP	GoodByeList	GoodByeList.Cycle	GoodByeList.Sample	InstrList	InstrList.Cycle	InstrList.Sample	Instructions3.RESP	Instructions4.RESP	Instructions5.RESP	kobieta_S1	kobieta_S2	kobieta_S3	kobieta_S4	kobieta_S5	mezczyzna_S1	mezczyzna_S2	mezczyzna_S3	mezczyzna_S4	mezczyzna_S5	NextBlock.RESP	NextBlock0.RESP	planowanie	PracticeMode	Procedure[Block]	proszenie	Running[Block]	TrainingList	TrainingList.Cycle	TrainingList.Sample	WordList	WordList1	wykonanie	zauwazenie	zrozumienie	Trial	ChoiceType	CorrectRespon	Effect	ErrorText	Fixation2.DurationError	Fixation2.OnsetDelay	Fixation2.OnsetTime	Fixation2.OnsetToOnsetTime	GoalRespInd1	GoalRespInd2	GoalRespInd3	GoalRespInd4	GoalRespInd5	GoalRespInd6	GoalRespName1	GoalRespName2	GoalRespName3	GoalRespName4	GoalRespName5	GoalRespName6	kol1	kol2	kol3	kol4	kol5	kol6	NeutralPrimeList1	Ocena	Ocena.Cycle	Ocena.Sample	OverallRT	Posit	Prime	Prime.ActionDelay	Prime.ActionTime	Prime.CustomOffsetTime	Prime.CustomOnsetTime	Prime.Duration	Prime.DurationError	Prime.FinishTime	Prime.OffsetDelay	Prime.OffsetTime	Prime.OnsetDelay	Prime.OnsetTime	Prime.OnsetToOnsetTime	Prime.PendingInputMasks	Prime.PreRelease	Prime.StartTime	Prime.TargetOffsetTime	Prime.TargetOnsetTime	Prime.TimingMode	PrimeChoice	Procedure[Trial]	Resp	RespWin.ACC	RespWin.CRESP	RespWin.DurationError	RespWin.OnsetDelay	RespWin.OnsetTime	RespWin.OnsetToOnsetTime	RespWin.RESP	RespWin.RT	RespWin.RTTime	Running[Trial]	Target	TargetSlide.ACC	TargetSlide.CRESP	TargetSlide.DurationError	TargetSlide.OnsetDelay	TargetSlide.OnsetTime	TargetSlide.OnsetToOnsetTime	TargetSlide.RESP	TargetSlide.RT	TargetSlide.RTTime	TargetTraining	TBox1	TBox2	TBox3	TBox4	TBox5	TBox6	TrainingList1	TrainingList1.Cycle	TrainingList1.Sample	TrCorrectResp	TrialList1	TrialList1.Cycle	TrialList1.Sample	TrialList2	TrialList2.Cycle	TrialList2.Sample	TrialType	TrPosit	TrWaitTime	WaitTime
1 ver1_main_procedure	13	1	20	<?xml version="1.0"?>\n<Clock xmlns:dt="urn:schemas-microsoft-com:datatypes"><Description dt:dt="string">E-Prime Primary Realtime Clock</Description><StartTime><Timestamp dt:dt="int">0</Timestamp><DateUtc dt:dt="string">2015-08-12T06:57:49Z</DateUtc></StartTime><FrequencyChanges><FrequencyChange><Frequency dt:dt="r8">2612294</Frequency><Timestamp dt:dt="r8">1419329348</Timestamp><Current dt:dt="r8">0</Current><DateUtc dt:dt="string">2015-08-12T06:57:49Z</DateUtc></FrequencyChange></FrequencyChanges></Clock>\n	1 ver1_main_procedure-13-1	99.920	1.0.0.880	1	mk	1419853133	prawa	1	2.0.10.182	08-12-2015	2015-08-12 06:57:49	08:57:49	kobieta	2.0.10.92	1										1	1	1	{SPACE}	{SPACE}	l	poproszona	planowała	zrozumiałaś	wykonała		poproszony	planował	zrozumiałeś	wykonał				planowała		InstrProc	poproszona	InstrList				1		wykonała		zrozumiałaś																																																																																																
1 ver1_main_procedure	13	1	20	<?xml version="1.0"?>\n<Clock xmlns:dt="urn:schemas-microsoft-com:datatypes"><Description dt:dt="string">E-Prime Primary Realtime Clock</Description><StartTime><Timestamp dt:dt="int">0</Timestamp><DateUtc dt:dt="string">2015-08-12T06:57:49Z</DateUtc></StartTime><FrequencyChanges><FrequencyChange><Frequency dt:dt="r8">2612294</Frequency><Timestamp dt:dt="r8">1419329348</Timestamp><Current dt:dt="r8">0</Current><DateUtc dt:dt="string">2015-08-12T06:57:49Z</DateUtc></FrequencyChange></FrequencyChanges></Clock>\n	1 ver1_main_procedure-13-1	99.920	1.0.0.880	1	mk	1419853133	prawa	1	2.0.10.182	08-12-2015	2015-08-12 06:57:49	08:57:49	kobieta	2.0.10.92	2																														TrainingProc1		TrainingList	1	1	1						1																																																					TrainProc											TrainingList1											target_both.png							3	1	1	dl								75	300	
1 ver1_main_procedure	13	1	20	<?xml version="1.0"?>\n<Clock xmlns:dt="urn:schemas-microsoft-com:datatypes"><Description dt:dt="string">E-Prime Primary Realtime Clock</Description><StartTime><Timestamp dt:dt="int">0</Timestamp><DateUtc dt:dt="string">2015-08-12T06:57:49Z</DateUtc></StartTime><FrequencyChanges><FrequencyChange><Frequency dt:dt="r8">2612294</Frequency><Timestamp dt:dt="r8">1419329348</Timestamp><Current dt:dt="r8">0</Current><DateUtc dt:dt="string">2015-08-12T06:57:49Z</DateUtc></FrequencyChange></FrequencyChanges></Clock>\n	1 ver1_main_procedure-13-1	99.920	1.0.0.880	1	mk	1419853133	prawa	1	2.0.10.182	08-12-2015	2015-08-12 06:57:49	08:57:49	kobieta	2.0.10.92	2																														TrainingProc1		TrainingList	1	1	1						2																																																					TrainProc											TrainingList1											target_left.png							1	1	2	d								75	450	
1 ver1_main_procedure	13	1	20	<?xml version="1.0"?>\n<Clock xmlns:dt="urn:schemas-microsoft-com:datatypes"><Description dt:dt="string">E-Prime Primary Realtime Clock</Description><StartTime><Timestamp dt:dt="int">0</Timestamp><DateUtc dt:dt="string">2015-08-12T06:57:49Z</DateUtc></StartTime><FrequencyChanges><FrequencyChange><Frequency dt:dt="r8">2612294</Frequency><Timestamp dt:dt="r8">1419329348</Timestamp><Current dt:dt="r8">0</Current><DateUtc dt:dt="string">2015-08-12T06:57:49Z</DateUtc></FrequencyChange></FrequencyChanges></Clock>\n	1 ver1_main_procedure-13-1	99.920	1.0.0.880	1	mk	1419853133	prawa	1	2.0.10.182	08-12-2015	2015-08-12 06:57:49	08:57:49	kobieta	2.0.10.92	2																														TrainingProc1		TrainingList	1	1	1						3																																																					TrainProc											TrainingList1											target_both.png							3	1	3	dl								75	300	
1 ver1_main_procedure	13	1	20	<?xml version="1.0"?>\n<Clock xmlns:dt="urn:schemas-microsoft-com:datatypes"><Description dt:dt="string">E-Prime Primary Realtime Clock</Description><StartTime><Timestamp dt:dt="int">0</Timestamp><DateUtc dt:dt="string">2015-08-12T06:57:49Z</DateUtc></StartTime><FrequencyChanges><FrequencyChange><Frequency dt:dt="r8">2612294</Frequency><Timestamp dt:dt="r8">1419329348</Timestamp><Current dt:dt="r8">0</Current><DateUtc dt:dt="string">2015-08-12T06:57:49Z</DateUtc></FrequencyChange></FrequencyChanges></Clock>\n	1 ver1_main_procedure-13-1	99.920	1.0.0.880	1	mk	1419853133	prawa	1	2.0.10.182	08-12-2015	2015-08-12 06:57:49	08:57:49	kobieta	2.0.10.92	2																														TrainingProc1		TrainingList	1	1	1						4																																																					TrainProc											TrainingList1											target_right.png							2	1	4	l								25	300	
1 ver1_main_procedure	13	1	20	<?xml version="1.0"?>\n<Clock xmlns:dt="urn:schemas-microsoft-com:datatypes"><Description dt:dt="string">E-Prime Primary Realtime Clock</Description><StartTime><Timestamp dt:dt="int">0</Timestamp><DateUtc dt:dt="string">2015-08-12T06:57:49Z</DateUtc></StartTime><FrequencyChanges><FrequencyChange><Frequency dt:dt="r8">2612294</Frequency><Timestamp dt:dt="r8">1419329348</Timestamp><Current dt:dt="r8">0</Current><DateUtc dt:dt="string">2015-08-12T06:57:49Z</DateUtc></FrequencyChange></FrequencyChanges></Clock>\n	1 ver1_main_procedure-13-1	99.920	1.0.0.880	1	mk	1419853133	prawa	1	2.0.10.182	08-12-2015	2015-08-12 06:57:49	08:57:49	kobieta	2.0.10.92	2																														TrainingProc1		TrainingList	1	1	1						5																																																					TrainProc											TrainingList1											target_left.png							1	1	5	d								75	150	
1 ver1_main_procedure	13	1	20	<?xml version="1.0"?>\n<Clock xmlns:dt="urn:schemas-microsoft-com:datatypes"><Description dt:dt="string">E-Prime Primary Realtime Clock</Description><StartTime><Timestamp dt:dt="int">0</Timestamp><DateUtc dt:dt="string">2015-08-12T06:57:49Z</DateUtc></StartTime><FrequencyChanges><FrequencyChange><Frequency dt:dt="r8">2612294</Frequency><Timestamp dt:dt="r8">1419329348</Timestamp><Current dt:dt="r8">0</Current><DateUtc dt:dt="string">2015-08-12T06:57:49Z</DateUtc></FrequencyChange></FrequencyChanges></Clock>\n	1 ver1_main_procedure-13-1	99.920	1.0.0.880	1	mk	1419853133	prawa	1	2.0.10.182	08-12-2015	2015-08-12 06:57:49	08:57:49	kobieta	2.0.10.92	2																														TrainingProc1		TrainingList	1	1	1						6																																																					TrainProc											TrainingList1											target_both.png							3	1	6	dl								75	150	
1 ver1_main_procedure	13	1	20	<?xml version="1.0"?>\n<Clock xmlns:dt="urn:schemas-microsoft-com:datatypes"><Description dt:dt="string">E-Prime Primary Realtime Clock</Description><StartTime><Timestamp dt:dt="int">0</Timestamp><DateUtc dt:dt="string">2015-08-12T06:57:49Z</DateUtc></StartTime><FrequencyChanges><FrequencyChange><Frequency dt:dt="r8">2612294</Frequency><Timestamp dt:dt="r8">1419329348</Timestamp><Current dt:dt="r8">0</Current><DateUtc dt:dt="string">2015-08-12T06:57:49Z</DateUtc></FrequencyChange></FrequencyChanges></Clock>\n	1 ver1_main_procedure-13-1	99.920	1.0.0.880	1	mk	1419853133	prawa	1	2.0.10.182	08-12-2015	2015-08-12 06:57:49	08:57:49	kobieta	2.0.10.92	2																														TrainingProc1		TrainingList	1	1	1						7																																																					TrainProc											TrainingList1											target_right.png							2	1	7	l								75	450	
1 ver1_main_procedure	13	1	20	<?xml version="1.0"?>\n<Clock xmlns:dt="urn:schemas-microsoft-com:datatypes"><Description dt:dt="string">E-Prime Primary Realtime Clock</Description><StartTime><Timestamp dt:dt="int">0</Timestamp><DateUtc dt:dt="string">2015-08-12T06:57:49Z</DateUtc></StartTime><FrequencyChanges><FrequencyChange><Frequency dt:dt="r8">2612294</Frequency><Timestamp dt:dt="r8">1419329348</Timestamp><Current dt:dt="r8">0</Current><DateUtc dt:dt="string">2015-08-12T06:57:49Z</DateUtc></FrequencyChange></FrequencyChanges></Clock>\n	1 ver1_main_procedure-13-1	99.920	1.0.0.880	1	mk	1419853133	prawa	1	2.0.10.182	08-12-2015	2015-08-12 06:57:49	08:57:49	kobieta	2.0.10.92	2																														TrainingProc1		TrainingList	1	1	1						8																																																					TrainProc											TrainingList1											target_left.png							1	1	8	d								25	150	
1 ver1_main_procedure	13	1	20	<?xml version="1.0"?>\n<Clock xmlns:dt="urn:schemas-microsoft-com:datatypes"><Description dt:dt="string">E-Prime Primary Realtime Clock</Description><StartTime><Timestamp dt:dt="int">0</Timestamp><DateUtc dt:dt="string">2015-08-12T06:57:49Z</DateUtc></StartTime><FrequencyChanges><FrequencyChange><Frequency dt:dt="r8">2612294</Frequency><Timestamp dt:dt="r8">1419329348</Timestamp><Current dt:dt="r8">0</Current><DateUtc dt:dt="string">2015-08-12T06:57:49Z</DateUtc></FrequencyChange></FrequencyChanges></Clock>\n	1 ver1_main_procedure-13-1	99.920	1.0.0.880	1	mk	1419853133	prawa	1	2.0.10.182	08-12-2015	2015-08-12 06:57:49	08:57:49	kobieta	2.0.10.92	2																														TrainingProc1		TrainingList	1	1	1						9																																																					TrainProc											TrainingList1											target_right.png							2	1	9	l								25	150	
1 ver1_main_procedure	13	1	20	<?xml version="1.0"?>\n<Clock xmlns:dt="urn:schemas-microsoft-com:datatypes"><Description dt:dt="string">E-Prime Primary Realtime Clock</Description><StartTime><Timestamp dt:dt="int">0</Timestamp><DateUtc dt:dt="string">2015-08-12T06:57:49Z</DateUtc></StartTime><FrequencyChanges><FrequencyChange><Frequency dt:dt="r8">2612294</Frequency><Timestamp dt:dt="r8">1419329348</Timestamp><Current dt:dt="r8">0</Current><DateUtc dt:dt="string">2015-08-12T06:57:49Z</DateUtc></FrequencyChange></FrequencyChanges></Clock>\n	1 ver1_main_procedure-13-1	99.920	1.0.0.880	1	mk	1419853133	prawa	1	2.0.10.182	08-12-2015	2015-08-12 06:57:49	08:57:49	kobieta	2.0.10.92	3	6	1	1																							d	{SPACE}		no	BlockProc2		BlockList									1	Cued	l	color_green.png		-1	12	202321	310																								25	prime_left.png	0	201791	0	0	13	0	201791	0	201791	1	201791	20	0	-1	200292	201791	201790	0		TrialProc1	right	0		0	20	202111	-202111		0	0	TrialList2	target_right.png	1	l	-1	3	201841	270	l	467	202308															6	1	1	incomp			300
1 ver1_main_procedure	13	1	20	<?xml version="1.0"?>\n<Clock xmlns:dt="urn:schemas-microsoft-com:datatypes"><Description dt:dt="string">E-Prime Primary Realtime Clock</Description><StartTime><Timestamp dt:dt="int">0</Timestamp><DateUtc dt:dt="string">2015-08-12T06:57:49Z</DateUtc></StartTime><FrequencyChanges><FrequencyChange><Frequency dt:dt="r8">2612294</Frequency><Timestamp dt:dt="r8">1419329348</Timestamp><Current dt:dt="r8">0</Current><DateUtc dt:dt="string">2015-08-12T06:57:49Z</DateUtc></FrequencyChange></FrequencyChanges></Clock>\n	1 ver1_main_procedure-13-1	99.920	1.0.0.880	1	mk	1419853133	prawa	1	2.0.10.182	08-12-2015	2015-08-12 06:57:49	08:57:49	kobieta	2.0.10.92	3	6	1	1																							d	{SPACE}		no	BlockProc2		BlockList									2	Cued	l	color_red.png		-1	9	204893	310																								25	prime_right.png	0	204442	0	0	13	1	204443	1	204443	1	204442	20	0	-1	202943	204442	204441	0		TrialProc1	right	0		0	11	204753	-204753		0	0	TrialList2	target_right.png	1	l	-1	3	204492	261	l	392	204884															4	1	2	comp			300
1 ver1_main_procedure	13	1	20	<?xml version="1.0"?>\n<Clock xmlns:dt="urn:schemas-microsoft-com:datatypes"><Description dt:dt="string">E-Prime Primary Realtime Clock</Description><StartTime><Timestamp dt:dt="int">0</Timestamp><DateUtc dt:dt="string">2015-08-12T06:57:49Z</DateUtc></StartTime><FrequencyChanges><FrequencyChange><Frequency dt:dt="r8">2612294</Frequency><Timestamp dt:dt="r8">1419329348</Timestamp><Current dt:dt="r8">0</Current><DateUtc dt:dt="string">2015-08-12T06:57:49Z</DateUtc></FrequencyChange></FrequencyChanges></Clock>\n	1 ver1_main_procedure-13-1	99.920	1.0.0.880	1	mk	1419853133	prawa	1	2.0.10.182	08-12-2015	2015-08-12 06:57:49	08:57:49	kobieta	2.0.10.92	3	6	1	1																							d	{SPACE}		no	BlockProc2		BlockList									3	Free	dl	color_green.png		-1	6	207434	310																								75	prime_left.png	0	207014	0	0	13	0	207014	0	207014	1	207014	20	0	-1	205515	207014	207013	0		TrialProc1	left	0		0	10	207324	-207324		0	0	TrialList2	target_both.png	0	dl	-1	3	207064	260	l	364	207428															7	1	3	comp			300
1 ver1_main_procedure	13	1	20	<?xml version="1.0"?>\n<Clock xmlns:dt="urn:schemas-microsoft-com:datatypes"><Description dt:dt="string">E-Prime Primary Realtime Clock</Description><StartTime><Timestamp dt:dt="int">0</Timestamp><DateUtc dt:dt="string">2015-08-12T06:57:49Z</DateUtc></StartTime><FrequencyChanges><FrequencyChange><Frequency dt:dt="r8">2612294</Frequency><Timestamp dt:dt="r8">1419329348</Timestamp><Current dt:dt="r8">0</Current><DateUtc dt:dt="string">2015-08-12T06:57:49Z</DateUtc></FrequencyChange></FrequencyChanges></Clock>\n	1 ver1_main_procedure-13-1	99.920	1.0.0.880	1	mk	1419853133	prawa	1	2.0.10.182	08-12-2015	2015-08-12 06:57:49	08:57:49	kobieta	2.0.10.92	3	6	1	1																							d	{SPACE}		no	BlockProc2		BlockList									4	Free	dl	color_green.png		-1	8	209956	160																								75	prime_left.png	1	209556	0	0	13	1	209556	1	209556	0	209555	20	0	-1	208056	209555	209555	0		TrialProc1	right	0		0	10	209866	-209866		0	0	TrialList2	target_both.png	0	dl	-1	4	209606	260	l	342	209948															12	1	4	incomp			150
1 ver1_main_procedure	13	1	20	<?xml version="1.0"?>\n<Clock xmlns:dt="urn:schemas-microsoft-com:datatypes"><Description dt:dt="string">E-Prime Primary Realtime Clock</Description><StartTime><Timestamp dt:dt="int">0</Timestamp><DateUtc dt:dt="string">2015-08-12T06:57:49Z</DateUtc></StartTime><FrequencyChanges><FrequencyChange><Frequency dt:dt="r8">2612294</Frequency><Timestamp dt:dt="r8">1419329348</Timestamp><Current dt:dt="r8">0</Current><DateUtc dt:dt="string">2015-08-12T06:57:49Z</DateUtc></FrequencyChange></FrequencyChanges></Clock>\n	1 ver1_main_procedure-13-1	99.920	1.0.0.880	1	mk	1419853133	prawa	1	2.0.10.182	08-12-2015	2015-08-12 06:57:49	08:57:49	kobieta	2.0.10.92	3	6	1	1																							d	{SPACE}		no	BlockProc2		BlockList									5	Cued	l	color_red.png		-1	9	212277	310																								25	prime_right.png	0	211927	0	0	13	0	211927	0	211927	1	211927	20	0	-1	210428	211927	211926	0		TrialProc1	right	0		0	10	212237	-212237		0	0	TrialList2	target_right.png	1	l	-1	3	211977	260	l	291	212268															4	1	5	comp			300
1 ver1_main_procedure	13	1	20	<?xml version="1.0"?>\n<Clock xmlns:dt="urn:schemas-microsoft-com:datatypes"><Description dt:dt="string">E-Prime Primary Realtime Clock</Description><StartTime><Timestamp dt:dt="int">0</Timestamp><DateUtc dt:dt="string">2015-08-12T06:57:49Z</DateUtc></StartTime><FrequencyChanges><FrequencyChange><Frequency dt:dt="r8">2612294</Frequency><Timestamp dt:dt="r8">1419329348</Timestamp><Current dt:dt="r8">0</Current><DateUtc dt:dt="string">2015-08-12T06:57:49Z</DateUtc></FrequencyChange></FrequencyChanges></Clock>\n	1 ver1_main_procedure-13-1	99.920	1.0.0.880	1	mk	1419853133	prawa	1	2.0.10.182	08-12-2015	2015-08-12 06:57:49	08:57:49	kobieta	2.0.10.92	3	6	1	1																							d	{SPACE}		no	BlockProc2		BlockList									6	Free	dl	color_green.png		-1	9	214829	460																								75	prime_left.png	0	214398	0	0	13	1	214399	1	214399	0	214398	20	0	-1	212899	214398	214398	0		TrialProc1	left	0		0	11	214709	-214709		0	0	TrialList2	target_both.png	0	dl	-1	3	214448	261	l	372	214820															7	1	6	comp			450
1 ver1_main_procedure	13	1	20	<?xml version="1.0"?>\n<Clock xmlns:dt="urn:schemas-microsoft-com:datatypes"><Description dt:dt="string">E-Prime Primary Realtime Clock</Description><StartTime><Timestamp dt:dt="int">0</Timestamp><DateUtc dt:dt="string">2015-08-12T06:57:49Z</DateUtc></StartTime><FrequencyChanges><FrequencyChange><Frequency dt:dt="r8">2612294</Frequency><Timestamp dt:dt="r8">1419329348</Timestamp><Current dt:dt="r8">0</Current><DateUtc dt:dt="string">2015-08-12T06:57:49Z</DateUtc></FrequencyChange></FrequencyChanges></Clock>\n	1 ver1_main_procedure-13-1	99.920	1.0.0.880	1	mk	1419853133	prawa	1	2.0.10.182	08-12-2015	2015-08-12 06:57:49	08:57:49	kobieta	2.0.10.92	3	6	1	1																							d	{SPACE}		no	BlockProc2		BlockList									7	Free	dl	color_red.png		-1	13	217450	460																								25	prime_right.png	0	217100	0	0	13	0	217100	0	217100	1	217100	20	0	-1	215601	217100	217099	0		TrialProc1	left	0		0	10	217410	-217410		0	0	TrialList2	target_both.png	0	dl	-1	3	217150	260	l	286	217436															9	1	7	incomp			450
1 ver1_main_procedure	13	1	20	<?xml version="1.0"?>\n<Clock xmlns:dt="urn:schemas-microsoft-com:datatypes"><Description dt:dt="string">E-Prime Primary Realtime Clock</Description><StartTime><Timestamp dt:dt="int">0</Timestamp><DateUtc dt:dt="string">2015-08-12T06:57:49Z</DateUtc></StartTime><FrequencyChanges><FrequencyChange><Frequency dt:dt="r8">2612294</Frequency><Timestamp dt:dt="r8">1419329348</Timestamp><Current dt:dt="r8">0</Current><DateUtc dt:dt="string">2015-08-12T06:57:49Z</DateUtc></FrequencyChange></FrequencyChanges></Clock>\n	1 ver1_main_procedure-13-1	99.920	1.0.0.880	1	mk	1419853133	prawa	1	2.0.10.182	08-12-2015	2015-08-12 06:57:49	08:57:49	kobieta	2.0.10.92	3	6	1	1																							d	{SPACE}		no	BlockProc2		BlockList									8	Free	dl	color_orange.png		-1	7	220172	310																								75	prime_left.png	0	219722	0	0	13	0	219722	0	219722	1	219722	20	0	-1	218222	219722	219721	0		TrialProc1	left	0		0	10	220032	-220032		0	0	TrialList2	target_both.png	0	dl	-1	3	219772	260	d	392	220164															7	1	8	comp			300
1 ver1_main_procedure	13	1	20	<?xml version="1.0"?>\n<Clock xmlns:dt="urn:schemas-microsoft-com:datatypes"><Description dt:dt="string">E-Prime Primary Realtime Clock</Description><StartTime><Timestamp dt:dt="int">0</Timestamp><DateUtc dt:dt="string">2015-08-12T06:57:49Z</DateUtc></StartTime><FrequencyChanges><FrequencyChange><Frequency dt:dt="r8">2612294</Frequency><Timestamp dt:dt="r8">1419329348</Timestamp><Current dt:dt="r8">0</Current><DateUtc dt:dt="string">2015-08-12T06:57:49Z</DateUtc></FrequencyChange></FrequencyChanges></Clock>\n	1 ver1_main_procedure-13-1	99.920	1.0.0.880	1	mk	1419853133	prawa	1	2.0.10.182	08-12-2015	2015-08-12 06:57:49	08:57:49	kobieta	2.0.10.92	3	6	1	1																							d	{SPACE}		no	BlockProc2		BlockList									9	Free	dl	color_blue.png		-1	12	222673	461																			1					25	prime_left.png	0	222293	0	0	13	0	222293	0	222293	1	222293	20	0	-1	220794	222293	222292	0	prime_left.png	TrialProc1	left	0		0	10	222603	-222603		0	0	TrialList2	target_both.png	0	dl	-1	3	222343	260	l	317	222660															8	1	9	neut			450
1 ver1_main_procedure	13	1	20	<?xml version="1.0"?>\n<Clock xmlns:dt="urn:schemas-microsoft-com:datatypes"><Description dt:dt="string">E-Prime Primary Realtime Clock</Description><StartTime><Timestamp dt:dt="int">0</Timestamp><DateUtc dt:dt="string">2015-08-12T06:57:49Z</DateUtc></StartTime><FrequencyChanges><FrequencyChange><Frequency dt:dt="r8">2612294</Frequency><Timestamp dt:dt="r8">1419329348</Timestamp><Current dt:dt="r8">0</Current><DateUtc dt:dt="string">2015-08-12T06:57:49Z</DateUtc></FrequencyChange></FrequencyChanges></Clock>\n	1 ver1_main_procedure-13-1	99.920	1.0.0.880	1	mk	1419853133	prawa	1	2.0.10.182	08-12-2015	2015-08-12 06:57:49	08:57:49	kobieta	2.0.10.92	3	6	1	1																							d	{SPACE}		no	BlockProc2		BlockList									10	Free	dl	color_red.png		-1	14	225275	160																								25	prime_right.png	0	224945	0	0	13	0	224945	0	224945	1	224945	20	0	-1	223445	224945	224944	0		TrialProc1	right	0		0	10	225255	-225255		0	0	TrialList2	target_both.png	0	dl	-1	3	224995	260	l	265	225260															10	1	10	comp			150
1 ver1_main_procedure	13	1	20	<?xml version="1.0"?>\n<Clock xmlns:dt="urn:schemas-microsoft-com:datatypes"><Description dt:dt="string">E-Prime Primary Realtime Clock</Description><StartTime><Timestamp dt:dt="int">0</Timestamp><DateUtc dt:dt="string">2015-08-12T06:57:49Z</DateUtc></StartTime><FrequencyChanges><FrequencyChange><Frequency dt:dt="r8">2612294</Frequency><Timestamp dt:dt="r8">1419329348</Timestamp><Current dt:dt="r8">0</Current><DateUtc dt:dt="string">2015-08-12T06:57:49Z</DateUtc></FrequencyChange></FrequencyChanges></Clock>\n	1 ver1_main_procedure-13-1	99.920	1.0.0.880	1	mk	1419853133	prawa	1	2.0.10.182	08-12-2015	2015-08-12 06:57:49	08:57:49	kobieta	2.0.10.92	3	6	1	1																							d	{SPACE}		no	BlockProc2		BlockList									11	Free	dl	color_blue.png		-1	5	227586	461																			2					75	prime_right.png	0	227246	0	0	13	0	227246	0	227246	1	227246	20	0	-1	225747	227246	227245	0	prime_right.png	TrialProc1	right	0		0	10	227556	-227556		0	0	TrialList2	target_both.png	0	dl	-1	3	227296	260	l	284	227580															11	1	11	neut			450
1 ver1_main_procedure	13	1	20	<?xml version="1.0"?>\n<Clock xmlns:dt="urn:schemas-microsoft-com:datatypes"><Description dt:dt="string">E-Prime Primary Realtime Clock</Description><StartTime><Timestamp dt:dt="int">0</Timestamp><DateUtc dt:dt="string">2015-08-12T06:57:49Z</DateUtc></StartTime><FrequencyChanges><FrequencyChange><Frequency dt:dt="r8">2612294</Frequency><Timestamp dt:dt="r8">1419329348</Timestamp><Current dt:dt="r8">0</Current><DateUtc dt:dt="string">2015-08-12T06:57:49Z</DateUtc></FrequencyChange></FrequencyChanges></Clock>\n	1 ver1_main_procedure-13-1	99.920	1.0.0.880	1	mk	1419853133	prawa	1	2.0.10.182	08-12-2015	2015-08-12 06:57:49	08:57:49	kobieta	2.0.10.92	3	6	1	1																							d	{SPACE}		no	BlockProc2		BlockList									12	Free	dl	color_green.png		-1	5	230218	460																								25	prime_left.png	0	229858	0	0	13	0	229858	0	229858	1	229858	20	0	-1	228358	229858	229857	0		TrialProc1	left	0		0	10	230168	-230168		0	0	TrialList2	target_both.png	0	dl	-1	3	229908	260	l	304	230212															7	1	12	comp			450
1 ver1_main_procedure	13	1	20	<?xml version="1.0"?>\n<Clock xmlns:dt="urn:schemas-microsoft-com:datatypes"><Description dt:dt="string">E-Prime Primary Realtime Clock</Description><StartTime><Timestamp dt:dt="int">0</Timestamp><DateUtc dt:dt="string">2015-08-12T06:57:49Z</DateUtc></StartTime><FrequencyChanges><FrequencyChange><Frequency dt:dt="r8">2612294</Frequency><Timestamp dt:dt="r8">1419329348</Timestamp><Current dt:dt="r8">0</Current><DateUtc dt:dt="string">2015-08-12T06:57:49Z</DateUtc></FrequencyChange></FrequencyChanges></Clock>\n	1 ver1_main_procedure-13-1	99.920	1.0.0.880	1	mk	1419853133	prawa	1	2.0.10.182	08-12-2015	2015-08-12 06:57:49	08:57:49	kobieta	2.0.10.92	3	6	1	1																							d	{SPACE}		no	BlockProc2		BlockList									13	Free	dl	color_purple.png		-1	12	232849	161																			1					25	prime_left.png	0	232489	0	0	13	0	232489	0	232489	1	232489	20	0	-1	230990	232489	232488	0	prime_left.png	TrialProc1	left	0		1	10	232799	-232799		0	0	TrialList2	target_both.png	0	dl	-1	3	232539	260	d	297	232836															8	1	13	neut			150
1 ver1_main_procedure	13	1	20	<?xml version="1.0"?>\n<Clock xmlns:dt="urn:schemas-microsoft-com:datatypes"><Description dt:dt="string">E-Prime Primary Realtime Clock</Description><StartTime><Timestamp dt:dt="int">0</Timestamp><DateUtc dt:dt="string">2015-08-12T06:57:49Z</DateUtc></StartTime><FrequencyChanges><FrequencyChange><Frequency dt:dt="r8">2612294</Frequency><Timestamp dt:dt="r8">1419329348</Timestamp><Current dt:dt="r8">0</Current><DateUtc dt:dt="string">2015-08-12T06:57:49Z</DateUtc></FrequencyChange></FrequencyChanges></Clock>\n	1 ver1_main_procedure-13-1	99.920	1.0.0.880	1	mk	1419853133	prawa	1	2.0.10.182	08-12-2015	2015-08-12 06:57:49	08:57:49	kobieta	2.0.10.92	3	6	1	1																							d	{SPACE}		no	BlockProc2		BlockList									14	Cued	l	color_red.png		-1	10	235141	310																								75	prime_right.png	0	234821	0	0	13	0	234821	0	234821	1	234821	20	0	-1	233321	234821	234820	0		TrialProc1	right	0		-999999	10	235131	0		0	0	TrialList2	target_right.png	1	l	-1	3	234871	0	l	253	235124															4	1	14	comp			300
1 ver1_main_procedure	13	1	20	<?xml version="1.0"?>\n<Clock xmlns:dt="urn:schemas-microsoft-com:datatypes"><Description dt:dt="string">E-Prime Primary Realtime Clock</Description><StartTime><Timestamp dt:dt="int">0</Timestamp><DateUtc dt:dt="string">2015-08-12T06:57:49Z</DateUtc></StartTime><FrequencyChanges><FrequencyChange><Frequency dt:dt="r8">2612294</Frequency><Timestamp dt:dt="r8">1419329348</Timestamp><Current dt:dt="r8">0</Current><DateUtc dt:dt="string">2015-08-12T06:57:49Z</DateUtc></FrequencyChange></FrequencyChanges></Clock>\n	1 ver1_main_procedure-13-1	99.920	1.0.0.880	1	mk	1419853133	prawa	1	2.0.10.182	08-12-2015	2015-08-12 06:57:49	08:57:49	kobieta	2.0.10.92	3	6	1	1																							d	{SPACE}		no	BlockProc2		BlockList									15	Free	dl	color_purple.png		-1	10	237582	160																			2					25	prime_right.png	0	237262	0	0	13	0	237262	0	237262	1	237262	20	0	-1	235763	237262	237261	0	prime_right.png	TrialProc1	right	0		-999999	10	237572	0		0	0	TrialList2	target_both.png	0	dl	-1	3	237312	0	d	252	237564															11	1	15	neut			150
1 ver1_main_procedure	13	1	20	<?xml version="1.0"?>\n<Clock xmlns:dt="urn:schemas-microsoft-com:datatypes"><Description dt:dt="string">E-Prime Primary Realtime Clock</Description><StartTime><Timestamp dt:dt="int">0</Timestamp><DateUtc dt:dt="string">2015-08-12T06:57:49Z</DateUtc></StartTime><FrequencyChanges><FrequencyChange><Frequency dt:dt="r8">2612294</Frequency><Timestamp dt:dt="r8">1419329348</Timestamp><Current dt:dt="r8">0</Current><DateUtc dt:dt="string">2015-08-12T06:57:49Z</DateUtc></FrequencyChange></FrequencyChanges></Clock>\n	1 ver1_main_procedure-13-1	99.920	1.0.0.880	1	mk	1419853133	prawa	1	2.0.10.182	08-12-2015	2015-08-12 06:57:49	08:57:49	kobieta	2.0.10.92	3	6	1	1																							d	{SPACE}		no	BlockProc2		BlockList									16	Cued	l			-1	13	240034	460																								25	prime_left.png	1	239554	0	0	13	1	239554	1	239554	0	239553	20	0	-1	238054	239553	239553	0		TrialProc1	right	0		0	11	239864	-239864		0	0	TrialList2	target_right.png	0	l	-1	3	239603	261	d	417	240020															6	1	16	incomp			450
1 ver1_main_procedure	13	1	20	<?xml version="1.0"?>\n<Clock xmlns:dt="urn:schemas-microsoft-com:datatypes"><Description dt:dt="string">E-Prime Primary Realtime Clock</Description><StartTime><Timestamp dt:dt="int">0</Timestamp><DateUtc dt:dt="string">2015-08-12T06:57:49Z</DateUtc></StartTime><FrequencyChanges><FrequencyChange><Frequency dt:dt="r8">2612294</Frequency><Timestamp dt:dt="r8">1419329348</Timestamp><Current dt:dt="r8">0</Current><DateUtc dt:dt="string">2015-08-12T06:57:49Z</DateUtc></FrequencyChange></FrequencyChanges></Clock>\n	1 ver1_main_procedure-13-1	99.920	1.0.0.880	1	mk	1419853133	prawa	1	2.0.10.182	08-12-2015	2015-08-12 06:57:49	08:57:49	kobieta	2.0.10.92	3	6	1	1																							d	{SPACE}		no	BlockProc2		BlockList									17	Free	dl	color_red.png		-1	12	242665	461																								75	prime_right.png	0	242305	0	0	13	0	242305	0	242305	1	242305	20	0	-1	240806	242305	242304	0		TrialProc1	left	0		0	10	242615	-242615		0	0	TrialList2	target_both.png	0	dl	-1	3	242355	260	l	297	242652															9	1	17	incomp			450
1 ver1_main_procedure	13	1	20	<?xml version="1.0"?>\n<Clock xmlns:dt="urn:schemas-microsoft-com:datatypes"><Description dt:dt="string">E-Prime Primary Realtime Clock</Description><StartTime><Timestamp dt:dt="int">0</Timestamp><DateUtc dt:dt="string">2015-08-12T06:57:49Z</DateUtc></StartTime><FrequencyChanges><FrequencyChange><Frequency dt:dt="r8">2612294</Frequency><Timestamp dt:dt="r8">1419329348</Timestamp><Current dt:dt="r8">0</Current><DateUtc dt:dt="string">2015-08-12T06:57:49Z</DateUtc></FrequencyChange></FrequencyChanges></Clock>\n	1 ver1_main_procedure-13-1	99.920	1.0.0.880	1	mk	1419853133	prawa	1	2.0.10.182	08-12-2015	2015-08-12 06:57:49	08:57:49	kobieta	2.0.10.92	3	6	1	1																							d	{SPACE}		no	BlockProc2		BlockList									18	Free	dl	color_red.png		-1	8	245317	460																								75	prime_right.png	0	244937	0	0	13	0	244937	0	244937	1	244937	20	0	-1	243437	244937	244936	0		TrialProc1	right	0		0	10	245247	-245247		0	0	TrialList2	target_both.png	0	dl	-1	3	244987	260	l	322	245309															10	1	18	comp			450
1 ver1_main_procedure	13	1	20	<?xml version="1.0"?>\n<Clock xmlns:dt="urn:schemas-microsoft-com:datatypes"><Description dt:dt="string">E-Prime Primary Realtime Clock</Description><StartTime><Timestamp dt:dt="int">0</Timestamp><DateUtc dt:dt="string">2015-08-12T06:57:49Z</DateUtc></StartTime><FrequencyChanges><FrequencyChange><Frequency dt:dt="r8">2612294</Frequency><Timestamp dt:dt="r8">1419329348</Timestamp><Current dt:dt="r8">0</Current><DateUtc dt:dt="string">2015-08-12T06:57:49Z</DateUtc></FrequencyChange></FrequencyChanges></Clock>\n	1 ver1_main_procedure-13-1	99.920	1.0.0.880	1	mk	1419853133	prawa	1	2.0.10.182	08-12-2015	2015-08-12 06:57:49	08:57:49	kobieta	2.0.10.92	3	6	1	1																							d	{SPACE}		no	BlockProc2		BlockList									19	Cued	l	color_blue.png		-1	13	247938	461																			1					25	prime_left.png	0	247588	0	0	13	0	247588	0	247588	1	247588	20	0	-1	246089	247588	247587	0	prime_left.png	TrialProc1	right	0		1	10	247898	-247898		0	0	TrialList2	target_right.png	1	l	-1	3	247638	260	l	287	247925															5	1	19	neut			450
1 ver1_main_procedure	13	1	20	<?xml version="1.0"?>\n<Clock xmlns:dt="urn:schemas-microsoft-com:datatypes"><Description dt:dt="string">E-Prime Primary Realtime Clock</Description><StartTime><Timestamp dt:dt="int">0</Timestamp><DateUtc dt:dt="string">2015-08-12T06:57:49Z</DateUtc></StartTime><FrequencyChanges><FrequencyChange><Frequency dt:dt="r8">2612294</Frequency><Timestamp dt:dt="r8">1419329348</Timestamp><Current dt:dt="r8">0</Current><DateUtc dt:dt="string">2015-08-12T06:57:49Z</DateUtc></FrequencyChange></FrequencyChanges></Clock>\n	1 ver1_main_procedure-13-1	99.920	1.0.0.880	1	mk	1419853133	prawa	1	2.0.10.182	08-12-2015	2015-08-12 06:57:49	08:57:49	kobieta	2.0.10.92	3	6	1	1																							d	{SPACE}		no	BlockProc2		BlockList									20	Free	dl	color_purple.png		-1	10	250530	160																			2					75	prime_right.png	0	250210	0	0	13	0	250210	0	250210	1	250210	20	0	-1	248711	250210	250209	0	prime_right.png	TrialProc1	left	0		-999999	10	250520	0		0	0	TrialList2	target_both.png	0	dl	-1	3	250260	0	d	257	250517															8	1	20	neut			150
1 ver1_main_procedure	13	1	20	<?xml version="1.0"?>\n<Clock xmlns:dt="urn:schemas-microsoft-com:datatypes"><Description dt:dt="string">E-Prime Primary Realtime Clock</Description><StartTime><Timestamp dt:dt="int">0</Timestamp><DateUtc dt:dt="string">2015-08-12T06:57:49Z</DateUtc></StartTime><FrequencyChanges><FrequencyChange><Frequency dt:dt="r8">2612294</Frequency><Timestamp dt:dt="r8">1419329348</Timestamp><Current dt:dt="r8">0</Current><DateUtc dt:dt="string">2015-08-12T06:57:49Z</DateUtc></FrequencyChange></FrequencyChanges></Clock>\n	1 ver1_main_procedure-13-1	99.920	1.0.0.880	1	mk	1419853133	prawa	1	2.0.10.182	08-12-2015	2015-08-12 06:57:49	08:57:49	kobieta	2.0.10.92	3	6	1	1																							d	{SPACE}		no	BlockProc2		BlockList									21	Free	dl	color_red.png		-1	6	252891	461																								75	prime_right.png	0	252501	0	0	13	0	252501	0	252501	1	252501	20	0	-1	251002	252501	252500	0		TrialProc1	right	0		1	10	252811	-252811		0	0	TrialList2	target_both.png	0	dl	-1	3	252551	260	l	334	252885															10	1	21	comp			450
1 ver1_main_procedure	13	1	20	<?xml version="1.0"?>\n<Clock xmlns:dt="urn:schemas-microsoft-com:datatypes"><Description dt:dt="string">E-Prime Primary Realtime Clock</Description><StartTime><Timestamp dt:dt="int">0</Timestamp><DateUtc dt:dt="string">2015-08-12T06:57:49Z</DateUtc></StartTime><FrequencyChanges><FrequencyChange><Frequency dt:dt="r8">2612294</Frequency><Timestamp dt:dt="r8">1419329348</Timestamp><Current dt:dt="r8">0</Current><DateUtc dt:dt="string">2015-08-12T06:57:49Z</DateUtc></FrequencyChange></FrequencyChanges></Clock>\n	1 ver1_main_procedure-13-1	99.920	1.0.0.880	1	mk	1419853133	prawa	1	2.0.10.182	08-12-2015	2015-08-12 06:57:49	08:57:49	kobieta	2.0.10.92	3	6	1	1																							d	{SPACE}		no	BlockProc2		BlockList									22	Cued	d			-1	13	255443	460																								75	prime_right.png	0	255163	0	0	13	0	255163	0	255163	1	255163	20	0	-1	253664	255163	255162	0		TrialProc1	left	0		0	0	0	0		0	0	TrialList2	target_left.png	0	d	-999999	3	255213	0	l	216	255429															3	1	22	incomp			450
1 ver1_main_procedure	13	1	20	<?xml version="1.0"?>\n<Clock xmlns:dt="urn:schemas-microsoft-com:datatypes"><Description dt:dt="string">E-Prime Primary Realtime Clock</Description><StartTime><Timestamp dt:dt="int">0</Timestamp><DateUtc dt:dt="string">2015-08-12T06:57:49Z</DateUtc></StartTime><FrequencyChanges><FrequencyChange><Frequency dt:dt="r8">2612294</Frequency><Timestamp dt:dt="r8">1419329348</Timestamp><Current dt:dt="r8">0</Current><DateUtc dt:dt="string">2015-08-12T06:57:49Z</DateUtc></FrequencyChange></FrequencyChanges></Clock>\n	1 ver1_main_procedure-13-1	99.920	1.0.0.880	1	mk	1419853133	prawa	1	2.0.10.182	08-12-2015	2015-08-12 06:57:49	08:57:49	kobieta	2.0.10.92	3	6	1	1																							d	{SPACE}		no	BlockProc2		BlockList									23	Cued	l			-1	13	258275	460																								75	prime_left.png	0	257714	0	0	13	1	257715	1	257715	0	257714	20	0	-1	256215	257714	257714	0		TrialProc1	right	0		0	11	258025	-258025		0	0	TrialList2	target_right.png	0	l	-1	3	257764	261	d	497	258261															6	1	23	incomp			450
1 ver1_main_procedure	13	1	20	<?xml version="1.0"?>\n<Clock xmlns:dt="urn:schemas-microsoft-com:datatypes"><Description dt:dt="string">E-Prime Primary Realtime Clock</Description><StartTime><Timestamp dt:dt="int">0</Timestamp><DateUtc dt:dt="string">2015-08-12T06:57:49Z</DateUtc></StartTime><FrequencyChanges><FrequencyChange><Frequency dt:dt="r8">2612294</Frequency><Timestamp dt:dt="r8">1419329348</Timestamp><Current dt:dt="r8">0</Current><DateUtc dt:dt="string">2015-08-12T06:57:49Z</DateUtc></FrequencyChange></FrequencyChanges></Clock>\n	1 ver1_main_procedure-13-1	99.920	1.0.0.880	1	mk	1419853133	prawa	1	2.0.10.182	08-12-2015	2015-08-12 06:57:49	08:57:49	kobieta	2.0.10.92	3	6	1	1																							d	{SPACE}		no	BlockProc2		BlockList									24	Cued	d			-1	12	260906	310																								25	prime_left.png	0	260546	0	0	13	0	260546	0	260546	1	260546	20	0	-1	259047	260546	260545	0		TrialProc1	left	0		0	10	260856	-260856		0	0	TrialList2	target_left.png	0	d	-1	3	260596	260	l	297	260893															1	1	24	comp			300
1 ver1_main_procedure	13	1	20	<?xml version="1.0"?>\n<Clock xmlns:dt="urn:schemas-microsoft-com:datatypes"><Description dt:dt="string">E-Prime Primary Realtime Clock</Description><StartTime><Timestamp dt:dt="int">0</Timestamp><DateUtc dt:dt="string">2015-08-12T06:57:49Z</DateUtc></StartTime><FrequencyChanges><FrequencyChange><Frequency dt:dt="r8">2612294</Frequency><Timestamp dt:dt="r8">1419329348</Timestamp><Current dt:dt="r8">0</Current><DateUtc dt:dt="string">2015-08-12T06:57:49Z</DateUtc></FrequencyChange></FrequencyChanges></Clock>\n	1 ver1_main_procedure-13-1	99.920	1.0.0.880	1	mk	1419853133	prawa	1	2.0.10.182	08-12-2015	2015-08-12 06:57:49	08:57:49	kobieta	2.0.10.92	3	6	1	1																							d	{SPACE}		no	BlockProc2		BlockList									25	Free	dl	color_purple.png		-1	6	263548	310																			1					75	prime_left.png	1	263028	0	0	13	1	263028	1	263028	0	263027	20	0	-1	261528	263027	263027	0	prime_left.png	TrialProc1	right	0		0	10	263338	-263338		0	0	TrialList2	target_both.png	0	dl	-1	4	263078	260	d	463	263541															11	1	25	neut			300
1 ver1_main_procedure	13	1	20	<?xml version="1.0"?>\n<Clock xmlns:dt="urn:schemas-microsoft-com:datatypes"><Description dt:dt="string">E-Prime Primary Realtime Clock</Description><StartTime><Timestamp dt:dt="int">0</Timestamp><DateUtc dt:dt="string">2015-08-12T06:57:49Z</DateUtc></StartTime><FrequencyChanges><FrequencyChange><Frequency dt:dt="r8">2612294</Frequency><Timestamp dt:dt="r8">1419329348</Timestamp><Current dt:dt="r8">0</Current><DateUtc dt:dt="string">2015-08-12T06:57:49Z</DateUtc></FrequencyChange></FrequencyChanges></Clock>\n	1 ver1_main_procedure-13-1	99.920	1.0.0.880	1	mk	1419853133	prawa	1	2.0.10.182	08-12-2015	2015-08-12 06:57:49	08:57:49	kobieta	2.0.10.92	3	6	1	1																							d	{SPACE}		no	BlockProc2		BlockList									26	Free	dl	color_red.png		-1	9	266079	311																								25	prime_right.png	0	265669	0	0	13	0	265669	0	265669	1	265669	20	0	-1	264170	265669	265668	0		TrialProc1	right	0		0	10	265979	-265979		0	0	TrialList2	target_both.png	0	dl	-1	3	265719	260	l	350	266069															10	1	26	comp			300
1 ver1_main_procedure	13	1	20	<?xml version="1.0"?>\n<Clock xmlns:dt="urn:schemas-microsoft-com:datatypes"><Description dt:dt="string">E-Prime Primary Realtime Clock</Description><StartTime><Timestamp dt:dt="int">0</Timestamp><DateUtc dt:dt="string">2015-08-12T06:57:49Z</DateUtc></StartTime><FrequencyChanges><FrequencyChange><Frequency dt:dt="r8">2612294</Frequency><Timestamp dt:dt="r8">1419329348</Timestamp><Current dt:dt="r8">0</Current><DateUtc dt:dt="string">2015-08-12T06:57:49Z</DateUtc></FrequencyChange></FrequencyChanges></Clock>\n	1 ver1_main_procedure-13-1	99.920	1.0.0.880	1	mk	1419853133	prawa	1	2.0.10.182	08-12-2015	2015-08-12 06:57:49	08:57:49	kobieta	2.0.10.92	3	6	1	1																							d	{SPACE}		no	BlockProc2		BlockList									27	Free	dl	color_red.png		-1	13	268731	160																								25	prime_right.png	0	268201	0	0	13	0	268201	0	268201	1	268201	20	0	-1	266701	268201	268200	0		TrialProc1	left	0		0	10	268511	-268511		0	0	TrialList2	target_both.png	0	dl	-1	3	268251	260	l	466	268717															9	1	27	incomp			150
1 ver1_main_procedure	13	1	20	<?xml version="1.0"?>\n<Clock xmlns:dt="urn:schemas-microsoft-com:datatypes"><Description dt:dt="string">E-Prime Primary Realtime Clock</Description><StartTime><Timestamp dt:dt="int">0</Timestamp><DateUtc dt:dt="string">2015-08-12T06:57:49Z</DateUtc></StartTime><FrequencyChanges><FrequencyChange><Frequency dt:dt="r8">2612294</Frequency><Timestamp dt:dt="r8">1419329348</Timestamp><Current dt:dt="r8">0</Current><DateUtc dt:dt="string">2015-08-12T06:57:49Z</DateUtc></FrequencyChange></FrequencyChanges></Clock>\n	1 ver1_main_procedure-13-1	99.920	1.0.0.880	1	mk	1419853133	prawa	1	2.0.10.182	08-12-2015	2015-08-12 06:57:49	08:57:49	kobieta	2.0.10.92	3	6	1	1																							d	{SPACE}		no	BlockProc2		BlockList									28	Cued	d	color_orange.png		-1	6	271092	461																								75	prime_left.png	0	270702	0	0	13	0	270702	0	270702	1	270702	20	0	-1	269203	270702	270701	0		TrialProc1	left	0		0	10	271012	-271012		0	0	TrialList2	target_left.png	1	d	-1	3	270752	260	d	333	271085															1	1	28	comp			450
1 ver1_main_procedure	13	1	20	<?xml version="1.0"?>\n<Clock xmlns:dt="urn:schemas-microsoft-com:datatypes"><Description dt:dt="string">E-Prime Primary Realtime Clock</Description><StartTime><Timestamp dt:dt="int">0</Timestamp><DateUtc dt:dt="string">2015-08-12T06:57:49Z</DateUtc></StartTime><FrequencyChanges><FrequencyChange><Frequency dt:dt="r8">2612294</Frequency><Timestamp dt:dt="r8">1419329348</Timestamp><Current dt:dt="r8">0</Current><DateUtc dt:dt="string">2015-08-12T06:57:49Z</DateUtc></FrequencyChange></FrequencyChanges></Clock>\n	1 ver1_main_procedure-13-1	99.920	1.0.0.880	1	mk	1419853133	prawa	1	2.0.10.182	08-12-2015	2015-08-12 06:57:49	08:57:49	kobieta	2.0.10.92	3	6	1	1																							d	{SPACE}		no	BlockProc2		BlockList									29	Free	dl	color_blue.png		-1	8	273814	460																			2					75	prime_right.png	0	273364	0	0	13	0	273364	0	273364	1	273364	20	0	-1	271865	273364	273363	0	prime_right.png	TrialProc1	right	0		0	10	273674	-273674		0	0	TrialList2	target_both.png	0	dl	-1	3	273414	260	l	391	273805															11	1	29	neut			450
1 ver1_main_procedure	13	1	20	<?xml version="1.0"?>\n<Clock xmlns:dt="urn:schemas-microsoft-com:datatypes"><Description dt:dt="string">E-Prime Primary Realtime Clock</Description><StartTime><Timestamp dt:dt="int">0</Timestamp><DateUtc dt:dt="string">2015-08-12T06:57:49Z</DateUtc></StartTime><FrequencyChanges><FrequencyChange><Frequency dt:dt="r8">2612294</Frequency><Timestamp dt:dt="r8">1419329348</Timestamp><Current dt:dt="r8">0</Current><DateUtc dt:dt="string">2015-08-12T06:57:49Z</DateUtc></FrequencyChange></FrequencyChanges></Clock>\n	1 ver1_main_procedure-13-1	99.920	1.0.0.880	1	mk	1419853133	prawa	1	2.0.10.182	08-12-2015	2015-08-12 06:57:49	08:57:49	kobieta	2.0.10.92	3	6	1	1																							d	{SPACE}		no	BlockProc2		BlockList									30	Free	dl	color_purple.png		-1	10	276406	160																			1					75	prime_left.png	0	276085	0	0	13	0	276086	0	276085	1	276085	20	0	-1	274586	276085	276084	0	prime_left.png	TrialProc1	left	0		-999999	11	276396	0		0	0	TrialList2	target_both.png	0	dl	-1	3	276135	0	d	254	276389															8	1	30	neut			150
1 ver1_main_procedure	13	1	20	<?xml version="1.0"?>\n<Clock xmlns:dt="urn:schemas-microsoft-com:datatypes"><Description dt:dt="string">E-Prime Primary Realtime Clock</Description><StartTime><Timestamp dt:dt="int">0</Timestamp><DateUtc dt:dt="string">2015-08-12T06:57:49Z</DateUtc></StartTime><FrequencyChanges><FrequencyChange><Frequency dt:dt="r8">2612294</Frequency><Timestamp dt:dt="r8">1419329348</Timestamp><Current dt:dt="r8">0</Current><DateUtc dt:dt="string">2015-08-12T06:57:49Z</DateUtc></FrequencyChange></FrequencyChanges></Clock>\n	1 ver1_main_procedure-13-1	99.920	1.0.0.880	1	mk	1419853133	prawa	1	2.0.10.182	08-12-2015	2015-08-12 06:57:49	08:57:49	kobieta	2.0.10.92	3	6	1	1																							d	{SPACE}		no	BlockProc2		BlockList									31	Free	dl	color_yellow.png		-1	5	278867	460																								25	prime_right.png	0	278377	0	0	13	0	278377	0	278377	1	278377	20	0	-1	276877	278377	278376	0		TrialProc1	right	0		0	10	278687	-278687		0	0	TrialList2	target_both.png	0	dl	-1	3	278427	260	d	434	278861															10	1	31	comp			450
1 ver1_main_procedure	13	1	20	<?xml version="1.0"?>\n<Clock xmlns:dt="urn:schemas-microsoft-com:datatypes"><Description dt:dt="string">E-Prime Primary Realtime Clock</Description><StartTime><Timestamp dt:dt="int">0</Timestamp><DateUtc dt:dt="string">2015-08-12T06:57:49Z</DateUtc></StartTime><FrequencyChanges><FrequencyChange><Frequency dt:dt="r8">2612294</Frequency><Timestamp dt:dt="r8">1419329348</Timestamp><Current dt:dt="r8">0</Current><DateUtc dt:dt="string">2015-08-12T06:57:49Z</DateUtc></FrequencyChange></FrequencyChanges></Clock>\n	1 ver1_main_procedure-13-1	99.920	1.0.0.880	1	mk	1419853133	prawa	1	2.0.10.182	08-12-2015	2015-08-12 06:57:49	08:57:49	kobieta	2.0.10.92	3	6	1	1																							d	{SPACE}		no	BlockProc2		BlockList									32	Free	dl	color_purple.png		-1	7	281589	160																			2					25	prime_right.png	0	281138	0	0	13	1	281139	1	281139	1	281138	20	0	-1	279639	281138	281137	0	prime_right.png	TrialProc1	left	0		0	11	281449	-281449		0	0	TrialList2	target_both.png	0	dl	-1	3	281188	261	d	393	281581															8	1	32	neut			150
1 ver1_main_procedure	13	1	20	<?xml version="1.0"?>\n<Clock xmlns:dt="urn:schemas-microsoft-com:datatypes"><Description dt:dt="string">E-Prime Primary Realtime Clock</Description><StartTime><Timestamp dt:dt="int">0</Timestamp><DateUtc dt:dt="string">2015-08-12T06:57:49Z</DateUtc></StartTime><FrequencyChanges><FrequencyChange><Frequency dt:dt="r8">2612294</Frequency><Timestamp dt:dt="r8">1419329348</Timestamp><Current dt:dt="r8">0</Current><DateUtc dt:dt="string">2015-08-12T06:57:49Z</DateUtc></FrequencyChange></FrequencyChanges></Clock>\n	1 ver1_main_procedure-13-1	99.920	1.0.0.880	1	mk	1419853133	prawa	1	2.0.10.182	08-12-2015	2015-08-12 06:57:49	08:57:49	kobieta	2.0.10.92	3	6	1	1																							d	{SPACE}		no	BlockProc2		BlockList									33	Free	dl	color_purple.png		-1	6	283980	310																			1					25	prime_left.png	0	283560	0	0	13	0	283560	0	283560	1	283560	20	0	-1	282061	283560	283559	0	prime_left.png	TrialProc1	left	0		0	10	283870	-283870		0	0	TrialList2	target_both.png	0	dl	-1	3	283610	260	d	364	283974															8	1	33	neut			300
1 ver1_main_procedure	13	1	20	<?xml version="1.0"?>\n<Clock xmlns:dt="urn:schemas-microsoft-com:datatypes"><Description dt:dt="string">E-Prime Primary Realtime Clock</Description><StartTime><Timestamp dt:dt="int">0</Timestamp><DateUtc dt:dt="string">2015-08-12T06:57:49Z</DateUtc></StartTime><FrequencyChanges><FrequencyChange><Frequency dt:dt="r8">2612294</Frequency><Timestamp dt:dt="r8">1419329348</Timestamp><Current dt:dt="r8">0</Current><DateUtc dt:dt="string">2015-08-12T06:57:49Z</DateUtc></FrequencyChange></FrequencyChanges></Clock>\n	1 ver1_main_procedure-13-1	99.920	1.0.0.880	1	mk	1419853133	prawa	1	2.0.10.182	08-12-2015	2015-08-12 06:57:49	08:57:49	kobieta	2.0.10.92	3	6	1	1																							d	{SPACE}		no	BlockProc2		BlockList									34	Free	dl	color_orange.png		-1	10	286472	310																								75	prime_left.png	0	286101	0	0	13	0	286101	0	286101	1	286101	20	0	-1	284602	286101	286100	0		TrialProc1	right	0		0	11	286412	-286412		0	0	TrialList2	target_both.png	0	dl	-1	3	286151	261	d	311	286462															12	1	34	incomp			300
1 ver1_main_procedure	13	1	20	<?xml version="1.0"?>\n<Clock xmlns:dt="urn:schemas-microsoft-com:datatypes"><Description dt:dt="string">E-Prime Primary Realtime Clock</Description><StartTime><Timestamp dt:dt="int">0</Timestamp><DateUtc dt:dt="string">2015-08-12T06:57:49Z</DateUtc></StartTime><FrequencyChanges><FrequencyChange><Frequency dt:dt="r8">2612294</Frequency><Timestamp dt:dt="r8">1419329348</Timestamp><Current dt:dt="r8">0</Current><DateUtc dt:dt="string">2015-08-12T06:57:49Z</DateUtc></FrequencyChange></FrequencyChanges></Clock>\n	1 ver1_main_procedure-13-1	99.920	1.0.0.880	1	mk	1419853133	prawa	1	2.0.10.182	08-12-2015	2015-08-12 06:57:49	08:57:49	kobieta	2.0.10.92	3	6	1	1																							d	{SPACE}		no	BlockProc2		BlockList									35	Free	dl	color_purple.png		-1	9	288983	160																			2					75	prime_right.png	0	288593	0	0	13	0	288593	0	288593	1	288593	20	0	-1	287094	288593	288592	0	prime_right.png	TrialProc1	right	0		0	10	288903	-288903		0	0	TrialList2	target_both.png	0	dl	-1	3	288643	260	d	331	288974															11	1	35	neut			150
1 ver1_main_procedure	13	1	20	<?xml version="1.0"?>\n<Clock xmlns:dt="urn:schemas-microsoft-com:datatypes"><Description dt:dt="string">E-Prime Primary Realtime Clock</Description><StartTime><Timestamp dt:dt="int">0</Timestamp><DateUtc dt:dt="string">2015-08-12T06:57:49Z</DateUtc></StartTime><FrequencyChanges><FrequencyChange><Frequency dt:dt="r8">2612294</Frequency><Timestamp dt:dt="r8">1419329348</Timestamp><Current dt:dt="r8">0</Current><DateUtc dt:dt="string">2015-08-12T06:57:49Z</DateUtc></FrequencyChange></FrequencyChanges></Clock>\n	1 ver1_main_procedure-13-1	99.920	1.0.0.880	1	mk	1419853133	prawa	1	2.0.10.182	08-12-2015	2015-08-12 06:57:49	08:57:49	kobieta	2.0.10.92	3	6	1	1																							d	{SPACE}		no	BlockProc2		BlockList									36	Free	dl	color_orange.png		-1	9	291495	310																								25	prime_left.png	0	290954	0	0	13	0	290954	0	290954	1	290954	20	0	-1	289455	290954	290953	0		TrialProc1	right	0		1	10	291264	-291264		0	0	TrialList2	target_both.png	0	dl	-1	3	291004	260	d	482	291486															12	1	36	incomp			300
1 ver1_main_procedure	13	1	20	<?xml version="1.0"?>\n<Clock xmlns:dt="urn:schemas-microsoft-com:datatypes"><Description dt:dt="string">E-Prime Primary Realtime Clock</Description><StartTime><Timestamp dt:dt="int">0</Timestamp><DateUtc dt:dt="string">2015-08-12T06:57:49Z</DateUtc></StartTime><FrequencyChanges><FrequencyChange><Frequency dt:dt="r8">2612294</Frequency><Timestamp dt:dt="r8">1419329348</Timestamp><Current dt:dt="r8">0</Current><DateUtc dt:dt="string">2015-08-12T06:57:49Z</DateUtc></FrequencyChange></FrequencyChanges></Clock>\n	1 ver1_main_procedure-13-1	99.920	1.0.0.880	1	mk	1419853133	prawa	1	2.0.10.182	08-12-2015	2015-08-12 06:57:49	08:57:49	kobieta	2.0.10.92	3	6	1	1																							d	{SPACE}		no	BlockProc2		BlockList									37	Free	dl	color_purple.png		-1	14	293956	460																			1					25	prime_left.png	0	293616	0	0	13	0	293616	0	293616	1	293616	20	0	-1	292117	293616	293615	0	prime_left.png	TrialProc1	left	0		0	10	293926	-293926		0	0	TrialList2	target_both.png	0	dl	-1	3	293666	260	d	276	293942															8	1	37	neut			450
1 ver1_main_procedure	13	1	20	<?xml version="1.0"?>\n<Clock xmlns:dt="urn:schemas-microsoft-com:datatypes"><Description dt:dt="string">E-Prime Primary Realtime Clock</Description><StartTime><Timestamp dt:dt="int">0</Timestamp><DateUtc dt:dt="string">2015-08-12T06:57:49Z</DateUtc></StartTime><FrequencyChanges><FrequencyChange><Frequency dt:dt="r8">2612294</Frequency><Timestamp dt:dt="r8">1419329348</Timestamp><Current dt:dt="r8">0</Current><DateUtc dt:dt="string">2015-08-12T06:57:49Z</DateUtc></FrequencyChange></FrequencyChanges></Clock>\n	1 ver1_main_procedure-13-1	99.920	1.0.0.880	1	mk	1419853133	prawa	1	2.0.10.182	08-12-2015	2015-08-12 06:57:49	08:57:49	kobieta	2.0.10.92	3	6	1	1																							d	{SPACE}		no	BlockProc2		BlockList									38	Free	dl	color_orange.png		-1	10	296548	310																								75	prime_left.png	0	296227	0	0	13	1	296228	1	296228	1	296227	20	0	-1	294728	296227	296226	0		TrialProc1	left	0		-999999	11	296538	0		0	0	TrialList2	target_both.png	0	dl	-1	3	296277	0	d	257	296534															7	1	38	comp			300
1 ver1_main_procedure	13	1	20	<?xml version="1.0"?>\n<Clock xmlns:dt="urn:schemas-microsoft-com:datatypes"><Description dt:dt="string">E-Prime Primary Realtime Clock</Description><StartTime><Timestamp dt:dt="int">0</Timestamp><DateUtc dt:dt="string">2015-08-12T06:57:49Z</DateUtc></StartTime><FrequencyChanges><FrequencyChange><Frequency dt:dt="r8">2612294</Frequency><Timestamp dt:dt="r8">1419329348</Timestamp><Current dt:dt="r8">0</Current><DateUtc dt:dt="string">2015-08-12T06:57:49Z</DateUtc></FrequencyChange></FrequencyChanges></Clock>\n	1 ver1_main_procedure-13-1	99.920	1.0.0.880	1	mk	1419853133	prawa	1	2.0.10.182	08-12-2015	2015-08-12 06:57:49	08:57:49	kobieta	2.0.10.92	3	6	1	1																							d	{SPACE}		no	BlockProc2		BlockList									39	Free	dl	color_yellow.png		-1	10	298989	160																								25	prime_right.png	0	298669	0	0	13	0	298669	0	298669	1	298669	20	0	-1	297170	298669	298668	0		TrialProc1	right	0		-999999	10	298979	0		0	0	TrialList2	target_both.png	0	dl	-1	3	298719	0	d	255	298974															10	1	39	comp			150
1 ver1_main_procedure	13	1	20	<?xml version="1.0"?>\n<Clock xmlns:dt="urn:schemas-microsoft-com:datatypes"><Description dt:dt="string">E-Prime Primary Realtime Clock</Description><StartTime><Timestamp dt:dt="int">0</Timestamp><DateUtc dt:dt="string">2015-08-12T06:57:49Z</DateUtc></StartTime><FrequencyChanges><FrequencyChange><Frequency dt:dt="r8">2612294</Frequency><Timestamp dt:dt="r8">1419329348</Timestamp><Current dt:dt="r8">0</Current><DateUtc dt:dt="string">2015-08-12T06:57:49Z</DateUtc></FrequencyChange></FrequencyChanges></Clock>\n	1 ver1_main_procedure-13-1	99.920	1.0.0.880	1	mk	1419853133	prawa	1	2.0.10.182	08-12-2015	2015-08-12 06:57:49	08:57:49	kobieta	2.0.10.92	3	6	1	1																							d	{SPACE}		no	BlockProc2		BlockList									40	Free	dl	color_yellow.png		-1	9	301360	161																								25	prime_right.png	0	300960	0	0	13	0	300960	0	300960	1	300960	20	0	-1	299461	300960	300959	0		TrialProc1	right	0		1	10	301270	-301270		0	0	TrialList2	target_both.png	0	dl	-1	3	301010	260	d	340	301350															10	1	40	comp			150
1 ver1_main_procedure	13	1	20	<?xml version="1.0"?>\n<Clock xmlns:dt="urn:schemas-microsoft-com:datatypes"><Description dt:dt="string">E-Prime Primary Realtime Clock</Description><StartTime><Timestamp dt:dt="int">0</Timestamp><DateUtc dt:dt="string">2015-08-12T06:57:49Z</DateUtc></StartTime><FrequencyChanges><FrequencyChange><Frequency dt:dt="r8">2612294</Frequency><Timestamp dt:dt="r8">1419329348</Timestamp><Current dt:dt="r8">0</Current><DateUtc dt:dt="string">2015-08-12T06:57:49Z</DateUtc></FrequencyChange></FrequencyChanges></Clock>\n	1 ver1_main_procedure-13-1	99.920	1.0.0.880	1	mk	1419853133	prawa	1	2.0.10.182	08-12-2015	2015-08-12 06:57:49	08:57:49	kobieta	2.0.10.92	3	6	1	1																							d	{SPACE}		no	BlockProc2		BlockList									41	Free	dl	color_purple.png		-1	13	303692	310																			2					75	prime_right.png	0	303332	0	0	13	0	303332	0	303332	1	303332	20	0	-1	301832	303332	303331	0	prime_right.png	TrialProc1	right	0		0	10	303642	-303642		0	0	TrialList2	target_both.png	0	dl	-1	3	303382	260	d	296	303678															11	1	41	neut			300
1 ver1_main_procedure	13	1	20	<?xml version="1.0"?>\n<Clock xmlns:dt="urn:schemas-microsoft-com:datatypes"><Description dt:dt="string">E-Prime Primary Realtime Clock</Description><StartTime><Timestamp dt:dt="int">0</Timestamp><DateUtc dt:dt="string">2015-08-12T06:57:49Z</DateUtc></StartTime><FrequencyChanges><FrequencyChange><Frequency dt:dt="r8">2612294</Frequency><Timestamp dt:dt="r8">1419329348</Timestamp><Current dt:dt="r8">0</Current><DateUtc dt:dt="string">2015-08-12T06:57:49Z</DateUtc></FrequencyChange></FrequencyChanges></Clock>\n	1 ver1_main_procedure-13-1	99.920	1.0.0.880	1	mk	1419853133	prawa	1	2.0.10.182	08-12-2015	2015-08-12 06:57:49	08:57:49	kobieta	2.0.10.92	3	6	1	1																							d	{SPACE}		no	BlockProc2		BlockList									42	Free	dl	color_purple.png		-1	12	306203	311																			1					25	prime_left.png	0	305813	0	0	13	0	305813	0	305813	1	305813	20	0	-1	304314	305813	305812	0	prime_left.png	TrialProc1	left	0		1	10	306123	-306123		0	0	TrialList2	target_both.png	0	dl	-1	3	305863	260	d	327	306190															8	1	42	neut			300
1 ver1_main_procedure	13	1	20	<?xml version="1.0"?>\n<Clock xmlns:dt="urn:schemas-microsoft-com:datatypes"><Description dt:dt="string">E-Prime Primary Realtime Clock</Description><StartTime><Timestamp dt:dt="int">0</Timestamp><DateUtc dt:dt="string">2015-08-12T06:57:49Z</DateUtc></StartTime><FrequencyChanges><FrequencyChange><Frequency dt:dt="r8">2612294</Frequency><Timestamp dt:dt="r8">1419329348</Timestamp><Current dt:dt="r8">0</Current><DateUtc dt:dt="string">2015-08-12T06:57:49Z</DateUtc></FrequencyChange></FrequencyChanges></Clock>\n	1 ver1_main_procedure-13-1	99.920	1.0.0.880	1	mk	1419853133	prawa	1	2.0.10.182	08-12-2015	2015-08-12 06:57:49	08:57:49	kobieta	2.0.10.92	3	6	1	1																							d	{SPACE}		no	BlockProc2		BlockList									43	Cued	d	color_orange.png		-1	12	308755	310																								75	prime_left.png	0	308325	0	0	13	0	308325	0	308325	1	308325	20	0	-1	306825	308325	308324	0		TrialProc1	left	0		0	10	308635	-308635		0	0	TrialList2	target_left.png	1	d	-1	3	308375	260	d	367	308742															1	1	43	comp			300
1 ver1_main_procedure	13	1	20	<?xml version="1.0"?>\n<Clock xmlns:dt="urn:schemas-microsoft-com:datatypes"><Description dt:dt="string">E-Prime Primary Realtime Clock</Description><StartTime><Timestamp dt:dt="int">0</Timestamp><DateUtc dt:dt="string">2015-08-12T06:57:49Z</DateUtc></StartTime><FrequencyChanges><FrequencyChange><Frequency dt:dt="r8">2612294</Frequency><Timestamp dt:dt="r8">1419329348</Timestamp><Current dt:dt="r8">0</Current><DateUtc dt:dt="string">2015-08-12T06:57:49Z</DateUtc></FrequencyChange></FrequencyChanges></Clock>\n	1 ver1_main_procedure-13-1	99.920	1.0.0.880	1	mk	1419853133	prawa	1	2.0.10.182	08-12-2015	2015-08-12 06:57:49	08:57:49	kobieta	2.0.10.92	3	6	1	1																							d	{SPACE}		no	BlockProc2		BlockList									44	Free	dl	color_yellow.png		-1	9	311256	311																								75	prime_right.png	0	310876	0	0	13	0	310876	0	310876	1	310876	20	0	-1	309377	310876	310875	0		TrialProc1	left	0		1	10	311186	-311186		0	0	TrialList2	target_both.png	0	dl	-1	3	310926	260	d	320	311246															9	1	44	incomp			300
1 ver1_main_procedure	13	1	20	<?xml version="1.0"?>\n<Clock xmlns:dt="urn:schemas-microsoft-com:datatypes"><Description dt:dt="string">E-Prime Primary Realtime Clock</Description><StartTime><Timestamp dt:dt="int">0</Timestamp><DateUtc dt:dt="string">2015-08-12T06:57:49Z</DateUtc></StartTime><FrequencyChanges><FrequencyChange><Frequency dt:dt="r8">2612294</Frequency><Timestamp dt:dt="r8">1419329348</Timestamp><Current dt:dt="r8">0</Current><DateUtc dt:dt="string">2015-08-12T06:57:49Z</DateUtc></FrequencyChange></FrequencyChanges></Clock>\n	1 ver1_main_procedure-13-1	99.920	1.0.0.880	1	mk	1419853133	prawa	1	2.0.10.182	08-12-2015	2015-08-12 06:57:49	08:57:49	kobieta	2.0.10.92	3	6	1	1																							d	{SPACE}		no	BlockProc2		BlockList									45	Free	dl	color_yellow.png		-1	11	313738	160																								25	prime_right.png	0	313378	0	0	13	0	313378	0	313378	1	313378	20	0	-1	311878	313378	313377	0		TrialProc1	right	0		0	10	313688	-313688		0	0	TrialList2	target_both.png	0	dl	-1	3	313428	260	d	298	313726															10	1	45	comp			150
1 ver1_main_procedure	13	1	20	<?xml version="1.0"?>\n<Clock xmlns:dt="urn:schemas-microsoft-com:datatypes"><Description dt:dt="string">E-Prime Primary Realtime Clock</Description><StartTime><Timestamp dt:dt="int">0</Timestamp><DateUtc dt:dt="string">2015-08-12T06:57:49Z</DateUtc></StartTime><FrequencyChanges><FrequencyChange><Frequency dt:dt="r8">2612294</Frequency><Timestamp dt:dt="r8">1419329348</Timestamp><Current dt:dt="r8">0</Current><DateUtc dt:dt="string">2015-08-12T06:57:49Z</DateUtc></FrequencyChange></FrequencyChanges></Clock>\n	1 ver1_main_procedure-13-1	99.920	1.0.0.880	1	mk	1419853133	prawa	1	2.0.10.182	08-12-2015	2015-08-12 06:57:49	08:57:49	kobieta	2.0.10.92	3	6	1	1																							d	{SPACE}		no	BlockProc2		BlockList									46	Free	dl	color_orange.png		-1	14	316069	310																								75	prime_left.png	0	315709	0	0	13	0	315709	0	315709	1	315709	20	0	-1	314210	315709	315708	0		TrialProc1	right	0		0	10	316019	-316019		0	0	TrialList2	target_both.png	0	dl	-1	3	315759	260	d	295	316054															12	1	46	incomp			300
1 ver1_main_procedure	13	1	20	<?xml version="1.0"?>\n<Clock xmlns:dt="urn:schemas-microsoft-com:datatypes"><Description dt:dt="string">E-Prime Primary Realtime Clock</Description><StartTime><Timestamp dt:dt="int">0</Timestamp><DateUtc dt:dt="string">2015-08-12T06:57:49Z</DateUtc></StartTime><FrequencyChanges><FrequencyChange><Frequency dt:dt="r8">2612294</Frequency><Timestamp dt:dt="r8">1419329348</Timestamp><Current dt:dt="r8">0</Current><DateUtc dt:dt="string">2015-08-12T06:57:49Z</DateUtc></FrequencyChange></FrequencyChanges></Clock>\n	1 ver1_main_procedure-13-1	99.920	1.0.0.880	1	mk	1419853133	prawa	1	2.0.10.182	08-12-2015	2015-08-12 06:57:49	08:57:49	kobieta	2.0.10.92	3	6	1	1																							d	{SPACE}		no	BlockProc2		BlockList									47	Free	dl	color_blue.png		-1	8	318631	160																			2					25	prime_right.png	0	318191	0	0	13	0	318191	0	318191	1	318191	20	0	-1	316692	318191	318190	0	prime_right.png	TrialProc1	right	0		0	10	318501	-318501		0	0	TrialList2	target_both.png	0	dl	-1	3	318241	260	l	381	318622															11	1	47	neut			150
1 ver1_main_procedure	13	1	20	<?xml version="1.0"?>\n<Clock xmlns:dt="urn:schemas-microsoft-com:datatypes"><Description dt:dt="string">E-Prime Primary Realtime Clock</Description><StartTime><Timestamp dt:dt="int">0</Timestamp><DateUtc dt:dt="string">2015-08-12T06:57:49Z</DateUtc></StartTime><FrequencyChanges><FrequencyChange><Frequency dt:dt="r8">2612294</Frequency><Timestamp dt:dt="r8">1419329348</Timestamp><Current dt:dt="r8">0</Current><DateUtc dt:dt="string">2015-08-12T06:57:49Z</DateUtc></FrequencyChange></FrequencyChanges></Clock>\n	1 ver1_main_procedure-13-1	99.920	1.0.0.880	1	mk	1419853133	prawa	1	2.0.10.182	08-12-2015	2015-08-12 06:57:49	08:57:49	kobieta	2.0.10.92	3	6	1	1																							d	{SPACE}		no	BlockProc2		BlockList									48	Free	dl	color_purple.png		-1	7	320902	310																			1					75	prime_left.png	0	320602	0	0	13	0	320602	0	320602	1	320602	20	0	-1	319103	320602	320601	0	prime_left.png	TrialProc1	right	0		0	0	0	0		0	0	TrialList2	target_both.png	0	dl	-999999	3	320652	0	d	242	320894															11	1	48	neut			300
1 ver1_main_procedure	13	1	20	<?xml version="1.0"?>\n<Clock xmlns:dt="urn:schemas-microsoft-com:datatypes"><Description dt:dt="string">E-Prime Primary Realtime Clock</Description><StartTime><Timestamp dt:dt="int">0</Timestamp><DateUtc dt:dt="string">2015-08-12T06:57:49Z</DateUtc></StartTime><FrequencyChanges><FrequencyChange><Frequency dt:dt="r8">2612294</Frequency><Timestamp dt:dt="r8">1419329348</Timestamp><Current dt:dt="r8">0</Current><DateUtc dt:dt="string">2015-08-12T06:57:49Z</DateUtc></FrequencyChange></FrequencyChanges></Clock>\n	1 ver1_main_procedure-13-1	99.920	1.0.0.880	1	mk	1419853133	prawa	1	2.0.10.182	08-12-2015	2015-08-12 06:57:49	08:57:49	kobieta	2.0.10.92	3	6	1	1																							d	{SPACE}		no	BlockProc2		BlockList									49	Cued	l	color_blue.png		-1	13	323404	160																			2					25	prime_right.png	1	323024	0	0	13	1	323024	1	323024	0	323023	20	0	-1	321524	323023	323023	0	prime_right.png	TrialProc1	right	0		0	11	323334	-323334		0	0	TrialList2	target_right.png	1	l	-1	3	323073	261	l	317	323390															5	1	49	neut			150
1 ver1_main_procedure	13	1	20	<?xml version="1.0"?>\n<Clock xmlns:dt="urn:schemas-microsoft-com:datatypes"><Description dt:dt="string">E-Prime Primary Realtime Clock</Description><StartTime><Timestamp dt:dt="int">0</Timestamp><DateUtc dt:dt="string">2015-08-12T06:57:49Z</DateUtc></StartTime><FrequencyChanges><FrequencyChange><Frequency dt:dt="r8">2612294</Frequency><Timestamp dt:dt="r8">1419329348</Timestamp><Current dt:dt="r8">0</Current><DateUtc dt:dt="string">2015-08-12T06:57:49Z</DateUtc></FrequencyChange></FrequencyChanges></Clock>\n	1 ver1_main_procedure-13-1	99.920	1.0.0.880	1	mk	1419853133	prawa	1	2.0.10.182	08-12-2015	2015-08-12 06:57:49	08:57:49	kobieta	2.0.10.92	3	6	1	1																							d	{SPACE}		no	BlockProc2		BlockList									50	Free	dl	color_yellow.png		-1	14	325725	460																								75	prime_right.png	0	325375	0	0	13	0	325375	0	325375	1	325375	20	0	-1	323876	325375	325374	0		TrialProc1	left	0		0	10	325685	-325685		0	0	TrialList2	target_both.png	0	dl	-1	3	325425	260	d	286	325711															9	1	50	incomp			450
1 ver1_main_procedure	13	1	20	<?xml version="1.0"?>\n<Clock xmlns:dt="urn:schemas-microsoft-com:datatypes"><Description dt:dt="string">E-Prime Primary Realtime Clock</Description><StartTime><Timestamp dt:dt="int">0</Timestamp><DateUtc dt:dt="string">2015-08-12T06:57:49Z</DateUtc></StartTime><FrequencyChanges><FrequencyChange><Frequency dt:dt="r8">2612294</Frequency><Timestamp dt:dt="r8">1419329348</Timestamp><Current dt:dt="r8">0</Current><DateUtc dt:dt="string">2015-08-12T06:57:49Z</DateUtc></FrequencyChange></FrequencyChanges></Clock>\n	1 ver1_main_procedure-13-1	99.920	1.0.0.880	1	mk	1419853133	prawa	1	2.0.10.182	08-12-2015	2015-08-12 06:57:49	08:57:49	kobieta	2.0.10.92	3	6	1	1																							d	{SPACE}		no	BlockProc2		BlockList									51	Cued	d	color_yellow.png		-1	8	328367	160																								25	prime_right.png	1	327997	0	0	13	1	327997	1	327997	0	327996	20	0	-1	326497	327996	327996	0		TrialProc1	left	0		0	11	328307	-328307		0	0	TrialList2	target_left.png	1	d	-1	3	328046	261	d	313	328359															3	1	51	incomp			150
1 ver1_main_procedure	13	1	20	<?xml version="1.0"?>\n<Clock xmlns:dt="urn:schemas-microsoft-com:datatypes"><Description dt:dt="string">E-Prime Primary Realtime Clock</Description><StartTime><Timestamp dt:dt="int">0</Timestamp><DateUtc dt:dt="string">2015-08-12T06:57:49Z</DateUtc></StartTime><FrequencyChanges><FrequencyChange><Frequency dt:dt="r8">2612294</Frequency><Timestamp dt:dt="r8">1419329348</Timestamp><Current dt:dt="r8">0</Current><DateUtc dt:dt="string">2015-08-12T06:57:49Z</DateUtc></FrequencyChange></FrequencyChanges></Clock>\n	1 ver1_main_procedure-13-1	99.920	1.0.0.880	1	mk	1419853133	prawa	1	2.0.10.182	08-12-2015	2015-08-12 06:57:49	08:57:49	kobieta	2.0.10.92	3	6	1	1																							d	{SPACE}		no	BlockProc2		BlockList									52	Free	dl	color_orange.png		-1	5	330668	310																								75	prime_left.png	0	330338	0	0	13	0	330338	0	330338	1	330338	20	0	-1	328839	330338	330337	0		TrialProc1	right	0		0	10	330648	-330648		0	0	TrialList2	target_both.png	0	dl	-1	3	330388	260	d	275	330663															12	1	52	incomp			300
1 ver1_main_procedure	13	1	20	<?xml version="1.0"?>\n<Clock xmlns:dt="urn:schemas-microsoft-com:datatypes"><Description dt:dt="string">E-Prime Primary Realtime Clock</Description><StartTime><Timestamp dt:dt="int">0</Timestamp><DateUtc dt:dt="string">2015-08-12T06:57:49Z</DateUtc></StartTime><FrequencyChanges><FrequencyChange><Frequency dt:dt="r8">2612294</Frequency><Timestamp dt:dt="r8">1419329348</Timestamp><Current dt:dt="r8">0</Current><DateUtc dt:dt="string">2015-08-12T06:57:49Z</DateUtc></FrequencyChange></FrequencyChanges></Clock>\n	1 ver1_main_procedure-13-1	99.920	1.0.0.880	1	mk	1419853133	prawa	1	2.0.10.182	08-12-2015	2015-08-12 06:57:49	08:57:49	kobieta	2.0.10.92	3	6	1	1																							d	{SPACE}		no	BlockProc2		BlockList									53	Free	dl	color_orange.png		-1	6	333109	311																								25	prime_left.png	0	332789	0	0	13	0	332789	0	332789	1	332789	20	0	-1	331290	332789	332788	0		TrialProc1	right	0		1	10	333099	-333099		0	0	TrialList2	target_both.png	0	dl	-1	3	332839	260	d	264	333103															12	1	53	incomp			300
1 ver1_main_procedure	13	1	20	<?xml version="1.0"?>\n<Clock xmlns:dt="urn:schemas-microsoft-com:datatypes"><Description dt:dt="string">E-Prime Primary Realtime Clock</Description><StartTime><Timestamp dt:dt="int">0</Timestamp><DateUtc dt:dt="string">2015-08-12T06:57:49Z</DateUtc></StartTime><FrequencyChanges><FrequencyChange><Frequency dt:dt="r8">2612294</Frequency><Timestamp dt:dt="r8">1419329348</Timestamp><Current dt:dt="r8">0</Current><DateUtc dt:dt="string">2015-08-12T06:57:49Z</DateUtc></FrequencyChange></FrequencyChanges></Clock>\n	1 ver1_main_procedure-13-1	99.920	1.0.0.880	1	mk	1419853133	prawa	1	2.0.10.182	08-12-2015	2015-08-12 06:57:49	08:57:49	kobieta	2.0.10.92	3	6	1	1																							d	{SPACE}		no	BlockProc2		BlockList									54	Free	dl	color_purple.png		-1	8	335591	310																			1					75	prime_left.png	0	335231	0	0	13	0	335231	0	335231	1	335231	20	0	-1	333732	335231	335230	0	prime_left.png	TrialProc1	right	0		0	10	335541	-335541		0	0	TrialList2	target_both.png	0	dl	-1	3	335281	260	d	302	335583															11	1	54	neut			300
1 ver1_main_procedure	13	1	20	<?xml version="1.0"?>\n<Clock xmlns:dt="urn:schemas-microsoft-com:datatypes"><Description dt:dt="string">E-Prime Primary Realtime Clock</Description><StartTime><Timestamp dt:dt="int">0</Timestamp><DateUtc dt:dt="string">2015-08-12T06:57:49Z</DateUtc></StartTime><FrequencyChanges><FrequencyChange><Frequency dt:dt="r8">2612294</Frequency><Timestamp dt:dt="r8">1419329348</Timestamp><Current dt:dt="r8">0</Current><DateUtc dt:dt="string">2015-08-12T06:57:49Z</DateUtc></FrequencyChange></FrequencyChanges></Clock>\n	1 ver1_main_procedure-13-1	99.920	1.0.0.880	1	mk	1419853133	prawa	1	2.0.10.182	08-12-2015	2015-08-12 06:57:49	08:57:49	kobieta	2.0.10.92	3	6	1	1																							d	{SPACE}		no	BlockProc2		BlockList									55	Free	dl	color_yellow.png		-1	5	338093	460																								25	prime_right.png	0	337712	0	0	13	0	337712	0	337712	1	337712	20	0	-1	336213	337712	337711	0		TrialProc1	left	0		1	10	338022	-338022		0	0	TrialList2	target_both.png	0	dl	-1	3	337762	260	d	325	338087															9	1	55	incomp			450
1 ver1_main_procedure	13	1	20	<?xml version="1.0"?>\n<Clock xmlns:dt="urn:schemas-microsoft-com:datatypes"><Description dt:dt="string">E-Prime Primary Realtime Clock</Description><StartTime><Timestamp dt:dt="int">0</Timestamp><DateUtc dt:dt="string">2015-08-12T06:57:49Z</DateUtc></StartTime><FrequencyChanges><FrequencyChange><Frequency dt:dt="r8">2612294</Frequency><Timestamp dt:dt="r8">1419329348</Timestamp><Current dt:dt="r8">0</Current><DateUtc dt:dt="string">2015-08-12T06:57:49Z</DateUtc></FrequencyChange></FrequencyChanges></Clock>\n	1 ver1_main_procedure-13-1	99.920	1.0.0.880	1	mk	1419853133	prawa	1	2.0.10.182	08-12-2015	2015-08-12 06:57:49	08:57:49	kobieta	2.0.10.92	3	6	1	1																							d	{SPACE}		no	BlockProc2		BlockList									56	Cued	d	color_purple.png		-1	10	340754	310																			2					75	prime_right.png	0	340364	0	0	13	0	340364	0	340364	1	340364	20	0	-1	338865	340364	340363	0	prime_right.png	TrialProc1	left	0		0	10	340674	-340674		0	0	TrialList2	target_left.png	1	d	-1	3	340414	260	d	329	340743															2	1	56	neut			300
1 ver1_main_procedure	13	1	20	<?xml version="1.0"?>\n<Clock xmlns:dt="urn:schemas-microsoft-com:datatypes"><Description dt:dt="string">E-Prime Primary Realtime Clock</Description><StartTime><Timestamp dt:dt="int">0</Timestamp><DateUtc dt:dt="string">2015-08-12T06:57:49Z</DateUtc></StartTime><FrequencyChanges><FrequencyChange><Frequency dt:dt="r8">2612294</Frequency><Timestamp dt:dt="r8">1419329348</Timestamp><Current dt:dt="r8">0</Current><DateUtc dt:dt="string">2015-08-12T06:57:49Z</DateUtc></FrequencyChange></FrequencyChanges></Clock>\n	1 ver1_main_procedure-13-1	99.920	1.0.0.880	1	mk	1419853133	prawa	1	2.0.10.182	08-12-2015	2015-08-12 06:57:49	08:57:49	kobieta	2.0.10.92	3	6	1	1																							d	{SPACE}		no	BlockProc2		BlockList									57	Free	dl	color_red.png		-1	8	343216	460																								75	prime_right.png	0	342875	0	0	13	0	342876	0	342875	1	342875	20	0	-1	341376	342875	342874	0		TrialProc1	left	0		0	11	343186	-343186		0	0	TrialList2	target_both.png	0	dl	-1	3	342925	261	l	282	343207															9	1	57	incomp			450
1 ver1_main_procedure	13	1	20	<?xml version="1.0"?>\n<Clock xmlns:dt="urn:schemas-microsoft-com:datatypes"><Description dt:dt="string">E-Prime Primary Realtime Clock</Description><StartTime><Timestamp dt:dt="int">0</Timestamp><DateUtc dt:dt="string">2015-08-12T06:57:49Z</DateUtc></StartTime><FrequencyChanges><FrequencyChange><Frequency dt:dt="r8">2612294</Frequency><Timestamp dt:dt="r8">1419329348</Timestamp><Current dt:dt="r8">0</Current><DateUtc dt:dt="string">2015-08-12T06:57:49Z</DateUtc></FrequencyChange></FrequencyChanges></Clock>\n	1 ver1_main_procedure-13-1	99.920	1.0.0.880	1	mk	1419853133	prawa	1	2.0.10.182	08-12-2015	2015-08-12 06:57:49	08:57:49	kobieta	2.0.10.92	3	6	1	1																							d	{SPACE}		no	BlockProc2		BlockList									58	Free	dl	color_orange.png		-1	5	345917	460																								25	prime_left.png	0	345487	0	0	13	0	345487	0	345487	1	345487	20	0	-1	343988	345487	345486	0		TrialProc1	left	0		0	10	345797	-345797		0	0	TrialList2	target_both.png	0	dl	-1	3	345537	260	d	374	345911															7	1	58	comp			450
1 ver1_main_procedure	13	1	20	<?xml version="1.0"?>\n<Clock xmlns:dt="urn:schemas-microsoft-com:datatypes"><Description dt:dt="string">E-Prime Primary Realtime Clock</Description><StartTime><Timestamp dt:dt="int">0</Timestamp><DateUtc dt:dt="string">2015-08-12T06:57:49Z</DateUtc></StartTime><FrequencyChanges><FrequencyChange><Frequency dt:dt="r8">2612294</Frequency><Timestamp dt:dt="r8">1419329348</Timestamp><Current dt:dt="r8">0</Current><DateUtc dt:dt="string">2015-08-12T06:57:49Z</DateUtc></FrequencyChange></FrequencyChanges></Clock>\n	1 ver1_main_procedure-13-1	99.920	1.0.0.880	1	mk	1419853133	prawa	1	2.0.10.182	08-12-2015	2015-08-12 06:57:49	08:57:49	kobieta	2.0.10.92	3	6	1	1																							d	{SPACE}		no	BlockProc2		BlockList									59	Free	dl	color_purple.png		-1	5	348509	160																			1					75	prime_left.png	0	348189	0	0	13	0	348189	0	348189	1	348189	20	0	-1	346689	348189	348188	0	prime_left.png	TrialProc1	left	0		0	10	348499	-348499		0	0	TrialList2	target_both.png	0	dl	-1	3	348239	260	d	264	348503															8	1	59	neut			150
1 ver1_main_procedure	13	1	20	<?xml version="1.0"?>\n<Clock xmlns:dt="urn:schemas-microsoft-com:datatypes"><Description dt:dt="string">E-Prime Primary Realtime Clock</Description><StartTime><Timestamp dt:dt="int">0</Timestamp><DateUtc dt:dt="string">2015-08-12T06:57:49Z</DateUtc></StartTime><FrequencyChanges><FrequencyChange><Frequency dt:dt="r8">2612294</Frequency><Timestamp dt:dt="r8">1419329348</Timestamp><Current dt:dt="r8">0</Current><DateUtc dt:dt="string">2015-08-12T06:57:49Z</DateUtc></FrequencyChange></FrequencyChanges></Clock>\n	1 ver1_main_procedure-13-1	99.920	1.0.0.880	1	mk	1419853133	prawa	1	2.0.10.182	08-12-2015	2015-08-12 06:57:49	08:57:49	kobieta	2.0.10.92	3	6	1	1																							d	{SPACE}		no	BlockProc2		BlockList									60	Free	dl	color_green.png		-1	6	350870	460																								25	prime_left.png	0	350480	0	0	13	0	350480	0	350480	1	350480	20	0	-1	348981	350480	350479	0		TrialProc1	left	0		0	10	350790	-350790		0	0	TrialList2	target_both.png	0	dl	-1	3	350530	260	l	333	350863															7	1	60	comp			450
1 ver1_main_procedure	13	1	20	<?xml version="1.0"?>\n<Clock xmlns:dt="urn:schemas-microsoft-com:datatypes"><Description dt:dt="string">E-Prime Primary Realtime Clock</Description><StartTime><Timestamp dt:dt="int">0</Timestamp><DateUtc dt:dt="string">2015-08-12T06:57:49Z</DateUtc></StartTime><FrequencyChanges><FrequencyChange><Frequency dt:dt="r8">2612294</Frequency><Timestamp dt:dt="r8">1419329348</Timestamp><Current dt:dt="r8">0</Current><DateUtc dt:dt="string">2015-08-12T06:57:49Z</DateUtc></FrequencyChange></FrequencyChanges></Clock>\n	1 ver1_main_procedure-13-1	99.920	1.0.0.880	1	mk	1419853133	prawa	1	2.0.10.182	08-12-2015	2015-08-12 06:57:49	08:57:49	kobieta	2.0.10.92	3	6	1	1																							d	{SPACE}		no	BlockProc2		BlockList									61	Free	dl	color_yellow.png		-1	8	353552	160																								75	prime_right.png	1	353142	0	0	13	1	353142	1	353142	0	353141	20	0	-1	351642	353141	353141	0		TrialProc1	left	0		0	10	353452	-353452		0	0	TrialList2	target_both.png	0	dl	-1	4	353192	260	d	351	353543															9	1	61	incomp			150
1 ver1_main_procedure	13	1	20	<?xml version="1.0"?>\n<Clock xmlns:dt="urn:schemas-microsoft-com:datatypes"><Description dt:dt="string">E-Prime Primary Realtime Clock</Description><StartTime><Timestamp dt:dt="int">0</Timestamp><DateUtc dt:dt="string">2015-08-12T06:57:49Z</DateUtc></StartTime><FrequencyChanges><FrequencyChange><Frequency dt:dt="r8">2612294</Frequency><Timestamp dt:dt="r8">1419329348</Timestamp><Current dt:dt="r8">0</Current><DateUtc dt:dt="string">2015-08-12T06:57:49Z</DateUtc></FrequencyChange></FrequencyChanges></Clock>\n	1 ver1_main_procedure-13-1	99.920	1.0.0.880	1	mk	1419853133	prawa	1	2.0.10.182	08-12-2015	2015-08-12 06:57:49	08:57:49	kobieta	2.0.10.92	3	6	1	1																							d	{SPACE}		no	BlockProc2		BlockList									62	Free	dl	color_orange.png		-1	9	355913	310																								75	prime_left.png	0	355523	0	0	13	0	355523	0	355523	1	355523	20	0	-1	354024	355523	355522	0		TrialProc1	left	0		0	10	355833	-355833		0	0	TrialList2	target_both.png	0	dl	-1	3	355573	260	d	330	355903															7	1	62	comp			300
1 ver1_main_procedure	13	1	20	<?xml version="1.0"?>\n<Clock xmlns:dt="urn:schemas-microsoft-com:datatypes"><Description dt:dt="string">E-Prime Primary Realtime Clock</Description><StartTime><Timestamp dt:dt="int">0</Timestamp><DateUtc dt:dt="string">2015-08-12T06:57:49Z</DateUtc></StartTime><FrequencyChanges><FrequencyChange><Frequency dt:dt="r8">2612294</Frequency><Timestamp dt:dt="r8">1419329348</Timestamp><Current dt:dt="r8">0</Current><DateUtc dt:dt="string">2015-08-12T06:57:49Z</DateUtc></FrequencyChange></FrequencyChanges></Clock>\n	1 ver1_main_procedure-13-1	99.920	1.0.0.880	1	mk	1419853133	prawa	1	2.0.10.182	08-12-2015	2015-08-12 06:57:49	08:57:49	kobieta	2.0.10.92	3	6	1	1																							d	{SPACE}		no	BlockProc2		BlockList									63	Cued	d			-1	11	358395	310																								75	prime_right.png	1	358035	0	0	13	1	358035	1	358035	0	358034	20	0	-1	356535	358034	358034	0		TrialProc1	left	0		0	11	358345	-358345		0	0	TrialList2	target_left.png	0	d	-1	3	358084	261	l	299	358383															3	1	63	incomp			300
1 ver1_main_procedure	13	1	20	<?xml version="1.0"?>\n<Clock xmlns:dt="urn:schemas-microsoft-com:datatypes"><Description dt:dt="string">E-Prime Primary Realtime Clock</Description><StartTime><Timestamp dt:dt="int">0</Timestamp><DateUtc dt:dt="string">2015-08-12T06:57:49Z</DateUtc></StartTime><FrequencyChanges><FrequencyChange><Frequency dt:dt="r8">2612294</Frequency><Timestamp dt:dt="r8">1419329348</Timestamp><Current dt:dt="r8">0</Current><DateUtc dt:dt="string">2015-08-12T06:57:49Z</DateUtc></FrequencyChange></FrequencyChanges></Clock>\n	1 ver1_main_procedure-13-1	99.920	1.0.0.880	1	mk	1419853133	prawa	1	2.0.10.182	08-12-2015	2015-08-12 06:57:49	08:57:49	kobieta	2.0.10.92	3	6	1	1																							d	{SPACE}		no	BlockProc2		BlockList									64	Cued	d	color_purple.png		-1	8	360896	310																			2					25	prime_right.png	0	360516	0	0	13	0	360516	0	360516	1	360516	20	0	-1	359017	360516	360515	0	prime_right.png	TrialProc1	left	0		0	10	360826	-360826		0	0	TrialList2	target_left.png	1	d	-1	3	360566	260	d	321	360887															2	1	64	neut			300
1 ver1_main_procedure	13	1	20	<?xml version="1.0"?>\n<Clock xmlns:dt="urn:schemas-microsoft-com:datatypes"><Description dt:dt="string">E-Prime Primary Realtime Clock</Description><StartTime><Timestamp dt:dt="int">0</Timestamp><DateUtc dt:dt="string">2015-08-12T06:57:49Z</DateUtc></StartTime><FrequencyChanges><FrequencyChange><Frequency dt:dt="r8">2612294</Frequency><Timestamp dt:dt="r8">1419329348</Timestamp><Current dt:dt="r8">0</Current><DateUtc dt:dt="string">2015-08-12T06:57:49Z</DateUtc></FrequencyChange></FrequencyChanges></Clock>\n	1 ver1_main_procedure-13-1	99.920	1.0.0.880	1	mk	1419853133	prawa	1	2.0.10.182	08-12-2015	2015-08-12 06:57:49	08:57:49	kobieta	2.0.10.92	3	6	1	1																							d	{SPACE}		no	BlockProc2		BlockList									65	Free	dl	color_orange.png		-1	14	363358	310																								25	prime_left.png	0	363017	0	0	13	1	363018	1	363018	0	363017	20	0	-1	361518	363017	363017	0		TrialProc1	left	0		0	11	363328	-363328		0	0	TrialList2	target_both.png	0	dl	-1	3	363067	261	d	276	363343															7	1	65	comp			300
1 ver1_main_procedure	13	1	20	<?xml version="1.0"?>\n<Clock xmlns:dt="urn:schemas-microsoft-com:datatypes"><Description dt:dt="string">E-Prime Primary Realtime Clock</Description><StartTime><Timestamp dt:dt="int">0</Timestamp><DateUtc dt:dt="string">2015-08-12T06:57:49Z</DateUtc></StartTime><FrequencyChanges><FrequencyChange><Frequency dt:dt="r8">2612294</Frequency><Timestamp dt:dt="r8">1419329348</Timestamp><Current dt:dt="r8">0</Current><DateUtc dt:dt="string">2015-08-12T06:57:49Z</DateUtc></FrequencyChange></FrequencyChanges></Clock>\n	1 ver1_main_procedure-13-1	99.920	1.0.0.880	1	mk	1419853133	prawa	1	2.0.10.182	08-12-2015	2015-08-12 06:57:49	08:57:49	kobieta	2.0.10.92	3	6	1	1																							d	{SPACE}		no	BlockProc2		BlockList									66	Cued	d	color_purple.png		-1	7	365839	160																			1					25	prime_left.png	0	365479	0	0	13	0	365479	0	365479	1	365479	20	0	-1	363980	365479	365478	0	prime_left.png	TrialProc1	left	0		0	10	365789	-365789		0	0	TrialList2	target_left.png	1	d	-1	3	365529	260	d	302	365831															2	1	66	neut			150
1 ver1_main_procedure	13	1	20	<?xml version="1.0"?>\n<Clock xmlns:dt="urn:schemas-microsoft-com:datatypes"><Description dt:dt="string">E-Prime Primary Realtime Clock</Description><StartTime><Timestamp dt:dt="int">0</Timestamp><DateUtc dt:dt="string">2015-08-12T06:57:49Z</DateUtc></StartTime><FrequencyChanges><FrequencyChange><Frequency dt:dt="r8">2612294</Frequency><Timestamp dt:dt="r8">1419329348</Timestamp><Current dt:dt="r8">0</Current><DateUtc dt:dt="string">2015-08-12T06:57:49Z</DateUtc></FrequencyChange></FrequencyChanges></Clock>\n	1 ver1_main_procedure-13-1	99.920	1.0.0.880	1	mk	1419853133	prawa	1	2.0.10.182	08-12-2015	2015-08-12 06:57:49	08:57:49	kobieta	2.0.10.92	3	6	1	1																							d	{SPACE}		no	BlockProc2		BlockList									67	Free	dl	color_orange.png		-1	11	368251	460																								25	prime_left.png	0	367810	0	0	13	0	367810	0	367810	1	367810	20	0	-1	366311	367810	367809	0		TrialProc1	right	0		1	10	368120	-368120		0	0	TrialList2	target_both.png	0	dl	-1	3	367860	260	d	380	368240															12	1	67	incomp			450
1 ver1_main_procedure	13	1	20	<?xml version="1.0"?>\n<Clock xmlns:dt="urn:schemas-microsoft-com:datatypes"><Description dt:dt="string">E-Prime Primary Realtime Clock</Description><StartTime><Timestamp dt:dt="int">0</Timestamp><DateUtc dt:dt="string">2015-08-12T06:57:49Z</DateUtc></StartTime><FrequencyChanges><FrequencyChange><Frequency dt:dt="r8">2612294</Frequency><Timestamp dt:dt="r8">1419329348</Timestamp><Current dt:dt="r8">0</Current><DateUtc dt:dt="string">2015-08-12T06:57:49Z</DateUtc></FrequencyChange></FrequencyChanges></Clock>\n	1 ver1_main_procedure-13-1	99.920	1.0.0.880	1	mk	1419853133	prawa	1	2.0.10.182	08-12-2015	2015-08-12 06:57:49	08:57:49	kobieta	2.0.10.92	3	6	1	1																							d	{SPACE}		no	BlockProc2		BlockList									68	Cued	l			-1	14	370942	160																			2					75	prime_right.png	0	370522	0	0	13	0	370522	0	370522	1	370522	20	0	-1	369023	370522	370521	0	prime_right.png	TrialProc1	right	0		0	10	370832	-370832		0	0	TrialList2	target_right.png	0	l	-1	3	370572	260	d	356	370928															5	1	68	neut			150
1 ver1_main_procedure	13	1	20	<?xml version="1.0"?>\n<Clock xmlns:dt="urn:schemas-microsoft-com:datatypes"><Description dt:dt="string">E-Prime Primary Realtime Clock</Description><StartTime><Timestamp dt:dt="int">0</Timestamp><DateUtc dt:dt="string">2015-08-12T06:57:49Z</DateUtc></StartTime><FrequencyChanges><FrequencyChange><Frequency dt:dt="r8">2612294</Frequency><Timestamp dt:dt="r8">1419329348</Timestamp><Current dt:dt="r8">0</Current><DateUtc dt:dt="string">2015-08-12T06:57:49Z</DateUtc></FrequencyChange></FrequencyChanges></Clock>\n	1 ver1_main_procedure-13-1	99.920	1.0.0.880	1	mk	1419853133	prawa	1	2.0.10.182	08-12-2015	2015-08-12 06:57:49	08:57:49	kobieta	2.0.10.92	3	6	1	1																							d	{SPACE}		no	BlockProc2		BlockList									69	Free	dl	color_red.png		-1	6	373454	310																								75	prime_right.png	0	372913	0	0	13	0	372914	0	372913	1	372913	20	0	-1	371414	372913	372912	0		TrialProc1	right	0		0	11	373224	-373224		0	0	TrialList2	target_both.png	0	dl	-1	3	372963	261	l	485	373448															10	1	69	comp			300
1 ver1_main_procedure	13	1	20	<?xml version="1.0"?>\n<Clock xmlns:dt="urn:schemas-microsoft-com:datatypes"><Description dt:dt="string">E-Prime Primary Realtime Clock</Description><StartTime><Timestamp dt:dt="int">0</Timestamp><DateUtc dt:dt="string">2015-08-12T06:57:49Z</DateUtc></StartTime><FrequencyChanges><FrequencyChange><Frequency dt:dt="r8">2612294</Frequency><Timestamp dt:dt="r8">1419329348</Timestamp><Current dt:dt="r8">0</Current><DateUtc dt:dt="string">2015-08-12T06:57:49Z</DateUtc></FrequencyChange></FrequencyChanges></Clock>\n	1 ver1_main_procedure-13-1	99.920	1.0.0.880	1	mk	1419853133	prawa	1	2.0.10.182	08-12-2015	2015-08-12 06:57:49	08:57:49	kobieta	2.0.10.92	3	6	1	1																							d	{SPACE}		no	BlockProc2		BlockList									70	Free	dl	color_yellow.png		-1	5	375925	310																								75	prime_right.png	0	375575	0	0	13	0	375575	0	375575	1	375575	20	0	-1	374076	375575	375574	0		TrialProc1	left	0		0	10	375885	-375885		0	0	TrialList2	target_both.png	0	dl	-1	3	375625	260	d	295	375920															9	1	70	incomp			300
1 ver1_main_procedure	13	1	20	<?xml version="1.0"?>\n<Clock xmlns:dt="urn:schemas-microsoft-com:datatypes"><Description dt:dt="string">E-Prime Primary Realtime Clock</Description><StartTime><Timestamp dt:dt="int">0</Timestamp><DateUtc dt:dt="string">2015-08-12T06:57:49Z</DateUtc></StartTime><FrequencyChanges><FrequencyChange><Frequency dt:dt="r8">2612294</Frequency><Timestamp dt:dt="r8">1419329348</Timestamp><Current dt:dt="r8">0</Current><DateUtc dt:dt="string">2015-08-12T06:57:49Z</DateUtc></FrequencyChange></FrequencyChanges></Clock>\n	1 ver1_main_procedure-13-1	99.920	1.0.0.880	1	mk	1419853133	prawa	1	2.0.10.182	08-12-2015	2015-08-12 06:57:49	08:57:49	kobieta	2.0.10.92	3	6	1	1																							d	{SPACE}		no	BlockProc2		BlockList									71	Free	dl	color_orange.png		-1	13	378477	160																								25	prime_left.png	0	378046	0	0	13	1	378047	1	378047	0	378046	20	0	-1	376547	378046	378046	0		TrialProc1	right	0		0	11	378357	-378357		0	0	TrialList2	target_both.png	0	dl	-1	3	378096	261	d	368	378464															12	1	71	incomp			150
1 ver1_main_procedure	13	1	20	<?xml version="1.0"?>\n<Clock xmlns:dt="urn:schemas-microsoft-com:datatypes"><Description dt:dt="string">E-Prime Primary Realtime Clock</Description><StartTime><Timestamp dt:dt="int">0</Timestamp><DateUtc dt:dt="string">2015-08-12T06:57:49Z</DateUtc></StartTime><FrequencyChanges><FrequencyChange><Frequency dt:dt="r8">2612294</Frequency><Timestamp dt:dt="r8">1419329348</Timestamp><Current dt:dt="r8">0</Current><DateUtc dt:dt="string">2015-08-12T06:57:49Z</DateUtc></FrequencyChange></FrequencyChanges></Clock>\n	1 ver1_main_procedure-13-1	99.920	1.0.0.880	1	mk	1419853133	prawa	1	2.0.10.182	08-12-2015	2015-08-12 06:57:49	08:57:49	kobieta	2.0.10.92	3	6	1	1																							d	{SPACE}		no	BlockProc2		BlockList									72	Free	dl	color_green.png		-1	9	380898	310																								75	prime_left.png	0	380448	0	0	13	0	380448	0	380448	1	380448	20	0	-1	378949	380448	380447	0		TrialProc1	right	0		0	10	380758	-380758		0	0	TrialList2	target_both.png	0	dl	-1	3	380498	260	l	390	380888															12	1	72	incomp			300
1 ver1_main_procedure	13	1	20	<?xml version="1.0"?>\n<Clock xmlns:dt="urn:schemas-microsoft-com:datatypes"><Description dt:dt="string">E-Prime Primary Realtime Clock</Description><StartTime><Timestamp dt:dt="int">0</Timestamp><DateUtc dt:dt="string">2015-08-12T06:57:49Z</DateUtc></StartTime><FrequencyChanges><FrequencyChange><Frequency dt:dt="r8">2612294</Frequency><Timestamp dt:dt="r8">1419329348</Timestamp><Current dt:dt="r8">0</Current><DateUtc dt:dt="string">2015-08-12T06:57:49Z</DateUtc></FrequencyChange></FrequencyChanges></Clock>\n	1 ver1_main_procedure-13-1	99.920	1.0.0.880	1	mk	1419853133	prawa	1	2.0.10.182	08-12-2015	2015-08-12 06:57:49	08:57:49	kobieta	2.0.10.92	3	6	1	1																							d	{SPACE}		no	BlockProc2		BlockList									73									6	5	4	3	2	1	color_green.png	color_yellow.png	color_orange.png	color_red.png	color_blue.png	color_purple.png	color_purple.png	color_blue.png	color_red.png	color_orange.png	color_yellow.png	color_green.png		1	1	1	57543																						DragProc											Ocena																															
1 ver1_main_procedure	13	1	20	<?xml version="1.0"?>\n<Clock xmlns:dt="urn:schemas-microsoft-com:datatypes"><Description dt:dt="string">E-Prime Primary Realtime Clock</Description><StartTime><Timestamp dt:dt="int">0</Timestamp><DateUtc dt:dt="string">2015-08-12T06:57:49Z</DateUtc></StartTime><FrequencyChanges><FrequencyChange><Frequency dt:dt="r8">2612294</Frequency><Timestamp dt:dt="r8">1419329348</Timestamp><Current dt:dt="r8">0</Current><DateUtc dt:dt="string">2015-08-12T06:57:49Z</DateUtc></FrequencyChange></FrequencyChanges></Clock>\n	1 ver1_main_procedure-13-1	99.920	1.0.0.880	1	mk	1419853133	prawa	1	2.0.10.182	08-12-2015	2015-08-12 06:57:49	08:57:49	kobieta	2.0.10.92	3	6	1	1																							d	{SPACE}		no	BlockProc2		BlockList									74				Liczby muszą być przypisane w sposób rosnący.											color_green.png	color_yellow.png	color_orange.png	color_red.png	color_blue.png	color_purple.png								2	1	2																							EnterProc											Ocena												20	30	40	50	57	80														
1 ver1_main_procedure	13	1	20	<?xml version="1.0"?>\n<Clock xmlns:dt="urn:schemas-microsoft-com:datatypes"><Description dt:dt="string">E-Prime Primary Realtime Clock</Description><StartTime><Timestamp dt:dt="int">0</Timestamp><DateUtc dt:dt="string">2015-08-12T06:57:49Z</DateUtc></StartTime><FrequencyChanges><FrequencyChange><Frequency dt:dt="r8">2612294</Frequency><Timestamp dt:dt="r8">1419329348</Timestamp><Current dt:dt="r8">0</Current><DateUtc dt:dt="string">2015-08-12T06:57:49Z</DateUtc></FrequencyChange></FrequencyChanges></Clock>\n	1 ver1_main_procedure-13-1	99.920	1.0.0.880	1	mk	1419853133	prawa	1	2.0.10.182	08-12-2015	2015-08-12 06:57:49	08:57:49	kobieta	2.0.10.92	4	1	1	2																							l	{SPACE}		no	BlockProc1		BlockList									1	Free	dl	color_blue.png		-1	15	608725	310																								25	prime_left.png	0	607874	0	0	13	0	607874	0	607874	1	607874	20	0	-1	606375	607874	607873	0		TrialProc1	right	0		0	10	608184	-608184		0	0	TrialList1	target_both.png	0	dl	-1	3	607924	260	l	785	608709												12	1	1				incomp			300
1 ver1_main_procedure	13	1	20	<?xml version="1.0"?>\n<Clock xmlns:dt="urn:schemas-microsoft-com:datatypes"><Description dt:dt="string">E-Prime Primary Realtime Clock</Description><StartTime><Timestamp dt:dt="int">0</Timestamp><DateUtc dt:dt="string">2015-08-12T06:57:49Z</DateUtc></StartTime><FrequencyChanges><FrequencyChange><Frequency dt:dt="r8">2612294</Frequency><Timestamp dt:dt="r8">1419329348</Timestamp><Current dt:dt="r8">0</Current><DateUtc dt:dt="string">2015-08-12T06:57:49Z</DateUtc></FrequencyChange></FrequencyChanges></Clock>\n	1 ver1_main_procedure-13-1	99.920	1.0.0.880	1	mk	1419853133	prawa	1	2.0.10.182	08-12-2015	2015-08-12 06:57:49	08:57:49	kobieta	2.0.10.92	4	1	1	2																							l	{SPACE}		no	BlockProc1		BlockList									2	Cued	l	color_yellow.png		-1	12	611266	310																			1					75	prime_left.png	0	610846	0	0	13	0	610846	0	610846	1	610846	20	0	-1	609347	610846	610845	0	prime_left.png	TrialProc1	right	0		0	10	611156	-611156		0	0	TrialList1	target_right.png	1	l	-1	3	610896	260	l	357	611253												5	1	2				neut			300
1 ver1_main_procedure	13	1	20	<?xml version="1.0"?>\n<Clock xmlns:dt="urn:schemas-microsoft-com:datatypes"><Description dt:dt="string">E-Prime Primary Realtime Clock</Description><StartTime><Timestamp dt:dt="int">0</Timestamp><DateUtc dt:dt="string">2015-08-12T06:57:49Z</DateUtc></StartTime><FrequencyChanges><FrequencyChange><Frequency dt:dt="r8">2612294</Frequency><Timestamp dt:dt="r8">1419329348</Timestamp><Current dt:dt="r8">0</Current><DateUtc dt:dt="string">2015-08-12T06:57:49Z</DateUtc></FrequencyChange></FrequencyChanges></Clock>\n	1 ver1_main_procedure-13-1	99.920	1.0.0.880	1	mk	1419853133	prawa	1	2.0.10.182	08-12-2015	2015-08-12 06:57:49	08:57:49	kobieta	2.0.10.92	4	1	1	2																							l	{SPACE}		no	BlockProc1		BlockList									3	Cued	l	color_blue.png		-1	14	613748	160																								75	prime_left.png	1	613388	0	0	13	1	613388	1	613388	1	613387	20	0	-1	611888	613387	613386	0		TrialProc1	right	0		0	11	613698	-613698		0	0	TrialList1	target_right.png	1	l	-1	3	613437	261	l	296	613733												6	1	3				incomp			150
1 ver1_main_procedure	13	1	20	<?xml version="1.0"?>\n<Clock xmlns:dt="urn:schemas-microsoft-com:datatypes"><Description dt:dt="string">E-Prime Primary Realtime Clock</Description><StartTime><Timestamp dt:dt="int">0</Timestamp><DateUtc dt:dt="string">2015-08-12T06:57:49Z</DateUtc></StartTime><FrequencyChanges><FrequencyChange><Frequency dt:dt="r8">2612294</Frequency><Timestamp dt:dt="r8">1419329348</Timestamp><Current dt:dt="r8">0</Current><DateUtc dt:dt="string">2015-08-12T06:57:49Z</DateUtc></FrequencyChange></FrequencyChanges></Clock>\n	1 ver1_main_procedure-13-1	99.920	1.0.0.880	1	mk	1419853133	prawa	1	2.0.10.182	08-12-2015	2015-08-12 06:57:49	08:57:49	kobieta	2.0.10.92	4	1	1	2																							l	{SPACE}		no	BlockProc1		BlockList									4	Cued	l	color_green.png		-1	7	616149	310																								75	prime_right.png	0	615719	0	0	13	0	615719	0	615719	1	615719	20	0	-1	614220	615719	615718	0		TrialProc1	right	0		0	10	616029	-616029		0	0	TrialList1	target_right.png	1	l	-1	3	615769	260	l	372	616141												4	1	4				comp			300
1 ver1_main_procedure	13	1	20	<?xml version="1.0"?>\n<Clock xmlns:dt="urn:schemas-microsoft-com:datatypes"><Description dt:dt="string">E-Prime Primary Realtime Clock</Description><StartTime><Timestamp dt:dt="int">0</Timestamp><DateUtc dt:dt="string">2015-08-12T06:57:49Z</DateUtc></StartTime><FrequencyChanges><FrequencyChange><Frequency dt:dt="r8">2612294</Frequency><Timestamp dt:dt="r8">1419329348</Timestamp><Current dt:dt="r8">0</Current><DateUtc dt:dt="string">2015-08-12T06:57:49Z</DateUtc></FrequencyChange></FrequencyChanges></Clock>\n	1 ver1_main_procedure-13-1	99.920	1.0.0.880	1	mk	1419853133	prawa	1	2.0.10.182	08-12-2015	2015-08-12 06:57:49	08:57:49	kobieta	2.0.10.92	4	1	1	2																							l	{SPACE}		no	BlockProc1		BlockList									5	Cued	d	color_purple.png		-1	9	618631	310																								75	prime_left.png	1	618271	0	0	13	1	618271	1	618271	1	618270	20	0	-1	616771	618270	618269	0		TrialProc1	left	0		1	10	618580	-618580		0	0	TrialList1	target_left.png	1	d	-1	3	618320	260	d	302	618622												1	1	5				comp			300
1 ver1_main_procedure	13	1	20	<?xml version="1.0"?>\n<Clock xmlns:dt="urn:schemas-microsoft-com:datatypes"><Description dt:dt="string">E-Prime Primary Realtime Clock</Description><StartTime><Timestamp dt:dt="int">0</Timestamp><DateUtc dt:dt="string">2015-08-12T06:57:49Z</DateUtc></StartTime><FrequencyChanges><FrequencyChange><Frequency dt:dt="r8">2612294</Frequency><Timestamp dt:dt="r8">1419329348</Timestamp><Current dt:dt="r8">0</Current><DateUtc dt:dt="string">2015-08-12T06:57:49Z</DateUtc></FrequencyChange></FrequencyChanges></Clock>\n	1 ver1_main_procedure-13-1	99.920	1.0.0.880	1	mk	1419853133	prawa	1	2.0.10.182	08-12-2015	2015-08-12 06:57:49	08:57:49	kobieta	2.0.10.92	4	1	1	2																							l	{SPACE}		no	BlockProc1		BlockList									6	Free	dl	color_blue.png		-1	10	621192	310																								25	prime_left.png	0	620752	0	0	13	0	620752	0	620752	1	620752	20	0	-1	619253	620752	620751	0		TrialProc1	right	0		0	10	621062	-621062		0	0	TrialList1	target_both.png	0	dl	-1	3	620802	260	l	380	621182												12	1	6				incomp			300
1 ver1_main_procedure	13	1	20	<?xml version="1.0"?>\n<Clock xmlns:dt="urn:schemas-microsoft-com:datatypes"><Description dt:dt="string">E-Prime Primary Realtime Clock</Description><StartTime><Timestamp dt:dt="int">0</Timestamp><DateUtc dt:dt="string">2015-08-12T06:57:49Z</DateUtc></StartTime><FrequencyChanges><FrequencyChange><Frequency dt:dt="r8">2612294</Frequency><Timestamp dt:dt="r8">1419329348</Timestamp><Current dt:dt="r8">0</Current><DateUtc dt:dt="string">2015-08-12T06:57:49Z</DateUtc></FrequencyChange></FrequencyChanges></Clock>\n	1 ver1_main_procedure-13-1	99.920	1.0.0.880	1	mk	1419853133	prawa	1	2.0.10.182	08-12-2015	2015-08-12 06:57:49	08:57:49	kobieta	2.0.10.92	4	1	1	2																							l	{SPACE}		no	BlockProc1		BlockList									7	Cued	d	color_red.png		-1	8	623734	310																			2					75	prime_right.png	0	623313	0	0	13	0	623313	0	623313	1	623313	20	0	-1	621814	623313	623312	0	prime_right.png	TrialProc1	left	0		0	11	623624	-623624		0	0	TrialList1	target_left.png	1	d	-1	3	623363	261	d	363	623726												2	1	7				neut			300
1 ver1_main_procedure	13	1	20	<?xml version="1.0"?>\n<Clock xmlns:dt="urn:schemas-microsoft-com:datatypes"><Description dt:dt="string">E-Prime Primary Realtime Clock</Description><StartTime><Timestamp dt:dt="int">0</Timestamp><DateUtc dt:dt="string">2015-08-12T06:57:49Z</DateUtc></StartTime><FrequencyChanges><FrequencyChange><Frequency dt:dt="r8">2612294</Frequency><Timestamp dt:dt="r8">1419329348</Timestamp><Current dt:dt="r8">0</Current><DateUtc dt:dt="string">2015-08-12T06:57:49Z</DateUtc></FrequencyChange></FrequencyChanges></Clock>\n	1 ver1_main_procedure-13-1	99.920	1.0.0.880	1	mk	1419853133	prawa	1	2.0.10.182	08-12-2015	2015-08-12 06:57:49	08:57:49	kobieta	2.0.10.92	4	1	1	2																							l	{SPACE}		no	BlockProc1		BlockList									8	Free	dl	color_green.png		-1	13	626435	160																								25	prime_right.png	0	625855	0	0	13	0	625855	0	625855	1	625855	20	0	-1	624356	625855	625854	0		TrialProc1	left	0		0	10	626165	-626165		0	0	TrialList1	target_both.png	0	dl	-1	3	625905	260	l	517	626422												9	1	8				incomp			150
1 ver1_main_procedure	13	1	20	<?xml version="1.0"?>\n<Clock xmlns:dt="urn:schemas-microsoft-com:datatypes"><Description dt:dt="string">E-Prime Primary Realtime Clock</Description><StartTime><Timestamp dt:dt="int">0</Timestamp><DateUtc dt:dt="string">2015-08-12T06:57:49Z</DateUtc></StartTime><FrequencyChanges><FrequencyChange><Frequency dt:dt="r8">2612294</Frequency><Timestamp dt:dt="r8">1419329348</Timestamp><Current dt:dt="r8">0</Current><DateUtc dt:dt="string">2015-08-12T06:57:49Z</DateUtc></FrequencyChange></FrequencyChanges></Clock>\n	1 ver1_main_procedure-13-1	99.920	1.0.0.880	1	mk	1419853133	prawa	1	2.0.10.182	08-12-2015	2015-08-12 06:57:49	08:57:49	kobieta	2.0.10.92	4	1	1	2																							l	{SPACE}		no	BlockProc1		BlockList									9	Cued	l	color_blue.png		-1	12	628907	160																								75	prime_left.png	0	628406	0	0	13	1	628407	1	628407	1	628406	20	0	-1	626907	628406	628405	0		TrialProc1	right	0		0	11	628717	-628717		0	0	TrialList1	target_right.png	1	l	-1	3	628456	261	l	438	628894												6	1	9				incomp			150
