ExperimentName	Subject	Session	Age	Clock.Information	DataFile.Basename	Display.RefreshRate	ExperimentVersion	Group	Name	RandomSeed	Recznosc	ResearcherID	RuntimeVersion	SessionDate	SessionStartDateTimeUtc	SessionTime	Sex	StudioVersion	Block	BlockList	BlockList.Cycle	BlockList.Sample	BlockNumber	GoodBye.RESP	GoodBye2.RESP	GoodByeList	GoodByeList.Cycle	GoodByeList.Sample	InstrList	InstrList.Cycle	InstrList.Sample	Instructions3.RESP	Instructions4.RESP	Instructions5.RESP	kobieta_S1	kobieta_S2	kobieta_S3	kobieta_S4	kobieta_S5	mezczyzna_S1	mezczyzna_S2	mezczyzna_S3	mezczyzna_S4	mezczyzna_S5	NextBlock.RESP	NextBlock0.RESP	planowanie	PracticeMode	Procedure[Block]	proszenie	Running[Block]	TrainingList	TrainingList.Cycle	TrainingList.Sample	WordList	WordList1	wykonanie	zauwazenie	zrozumienie	Trial	ChoiceType	CorrectRespon	Effect	ErrorText	Fixation2.DurationError	Fixation2.OnsetDelay	Fixation2.OnsetTime	Fixation2.OnsetToOnsetTime	GoalRespInd1	GoalRespInd2	GoalRespInd3	GoalRespInd4	GoalRespInd5	GoalRespInd6	GoalRespName1	GoalRespName2	GoalRespName3	GoalRespName4	GoalRespName5	GoalRespName6	kol1	kol2	kol3	kol4	kol5	kol6	NeutralPrimeList1	Ocena	Ocena.Cycle	Ocena.Sample	OverallRT	Posit	Prime	Prime.ActionDelay	Prime.ActionTime	Prime.CustomOffsetTime	Prime.CustomOnsetTime	Prime.Duration	Prime.DurationError	Prime.FinishTime	Prime.OffsetDelay	Prime.OffsetTime	Prime.OnsetDelay	Prime.OnsetTime	Prime.OnsetToOnsetTime	Prime.PendingInputMasks	Prime.PreRelease	Prime.StartTime	Prime.TargetOffsetTime	Prime.TargetOnsetTime	Prime.TimingMode	PrimeChoice	Procedure[Trial]	Resp	RespWin.ACC	RespWin.CRESP	RespWin.DurationError	RespWin.OnsetDelay	RespWin.OnsetTime	RespWin.OnsetToOnsetTime	RespWin.RESP	RespWin.RT	RespWin.RTTime	Running[Trial]	Target	TargetSlide.ACC	TargetSlide.CRESP	TargetSlide.DurationError	TargetSlide.OnsetDelay	TargetSlide.OnsetTime	TargetSlide.OnsetToOnsetTime	TargetSlide.RESP	TargetSlide.RT	TargetSlide.RTTime	TargetTraining	TBox1	TBox2	TBox3	TBox4	TBox5	TBox6	TrainingList1	TrainingList1.Cycle	TrainingList1.Sample	TrCorrectResp	TrialList1	TrialList1.Cycle	TrialList1.Sample	TrialList2	TrialList2.Cycle	TrialList2.Sample	TrialType	TrPosit	TrWaitTime	WaitTime
1 ver1_main_procedure	20	1	20	<?xml version="1.0"?>\n<Clock xmlns:dt="urn:schemas-microsoft-com:datatypes"><Description dt:dt="string">E-Prime Primary Realtime Clock</Description><StartTime><Timestamp dt:dt="int">0</Timestamp><DateUtc dt:dt="string">2015-08-12T15:37:17Z</DateUtc></StartTime><FrequencyChanges><FrequencyChange><Frequency dt:dt="r8">3418037</Frequency><Timestamp dt:dt="r8">809453599</Timestamp><Current dt:dt="r8">0</Current><DateUtc dt:dt="string">2015-08-12T15:37:17Z</DateUtc></FrequencyChange></FrequencyChanges></Clock>\n	1 ver1_main_procedure-20-1	99.876	1.0.0.880	2	kr	810107911	prawa	1	2.0.10.182	08-12-2015	2015-08-12 15:37:17	17:37:17	mezczyzna	2.0.10.92	1										1	1	1	{SPACE}	{SPACE}	l	poproszona	planowała	zrozumiałaś	wykonała		poproszony	planował	zrozumiałeś	wykonał				planował		InstrProc	poproszony	InstrList				1		wykonał		zrozumiałeś																																																																																																
1 ver1_main_procedure	20	1	20	<?xml version="1.0"?>\n<Clock xmlns:dt="urn:schemas-microsoft-com:datatypes"><Description dt:dt="string">E-Prime Primary Realtime Clock</Description><StartTime><Timestamp dt:dt="int">0</Timestamp><DateUtc dt:dt="string">2015-08-12T15:37:17Z</DateUtc></StartTime><FrequencyChanges><FrequencyChange><Frequency dt:dt="r8">3418037</Frequency><Timestamp dt:dt="r8">809453599</Timestamp><Current dt:dt="r8">0</Current><DateUtc dt:dt="string">2015-08-12T15:37:17Z</DateUtc></FrequencyChange></FrequencyChanges></Clock>\n	1 ver1_main_procedure-20-1	99.876	1.0.0.880	2	kr	810107911	prawa	1	2.0.10.182	08-12-2015	2015-08-12 15:37:17	17:37:17	mezczyzna	2.0.10.92	2																														TrainingProc1		TrainingList	1	1	1						1																																																					TrainProc											TrainingList1											target_both.png							3	1	1	dl								25	450	
1 ver1_main_procedure	20	1	20	<?xml version="1.0"?>\n<Clock xmlns:dt="urn:schemas-microsoft-com:datatypes"><Description dt:dt="string">E-Prime Primary Realtime Clock</Description><StartTime><Timestamp dt:dt="int">0</Timestamp><DateUtc dt:dt="string">2015-08-12T15:37:17Z</DateUtc></StartTime><FrequencyChanges><FrequencyChange><Frequency dt:dt="r8">3418037</Frequency><Timestamp dt:dt="r8">809453599</Timestamp><Current dt:dt="r8">0</Current><DateUtc dt:dt="string">2015-08-12T15:37:17Z</DateUtc></FrequencyChange></FrequencyChanges></Clock>\n	1 ver1_main_procedure-20-1	99.876	1.0.0.880	2	kr	810107911	prawa	1	2.0.10.182	08-12-2015	2015-08-12 15:37:17	17:37:17	mezczyzna	2.0.10.92	2																														TrainingProc1		TrainingList	1	1	1						2																																																					TrainProc											TrainingList1											target_left.png							1	1	2	d								25	150	
1 ver1_main_procedure	20	1	20	<?xml version="1.0"?>\n<Clock xmlns:dt="urn:schemas-microsoft-com:datatypes"><Description dt:dt="string">E-Prime Primary Realtime Clock</Description><StartTime><Timestamp dt:dt="int">0</Timestamp><DateUtc dt:dt="string">2015-08-12T15:37:17Z</DateUtc></StartTime><FrequencyChanges><FrequencyChange><Frequency dt:dt="r8">3418037</Frequency><Timestamp dt:dt="r8">809453599</Timestamp><Current dt:dt="r8">0</Current><DateUtc dt:dt="string">2015-08-12T15:37:17Z</DateUtc></FrequencyChange></FrequencyChanges></Clock>\n	1 ver1_main_procedure-20-1	99.876	1.0.0.880	2	kr	810107911	prawa	1	2.0.10.182	08-12-2015	2015-08-12 15:37:17	17:37:17	mezczyzna	2.0.10.92	2																														TrainingProc1		TrainingList	1	1	1						3																																																					TrainProc											TrainingList1											target_right.png							2	1	3	l								75	150	
1 ver1_main_procedure	20	1	20	<?xml version="1.0"?>\n<Clock xmlns:dt="urn:schemas-microsoft-com:datatypes"><Description dt:dt="string">E-Prime Primary Realtime Clock</Description><StartTime><Timestamp dt:dt="int">0</Timestamp><DateUtc dt:dt="string">2015-08-12T15:37:17Z</DateUtc></StartTime><FrequencyChanges><FrequencyChange><Frequency dt:dt="r8">3418037</Frequency><Timestamp dt:dt="r8">809453599</Timestamp><Current dt:dt="r8">0</Current><DateUtc dt:dt="string">2015-08-12T15:37:17Z</DateUtc></FrequencyChange></FrequencyChanges></Clock>\n	1 ver1_main_procedure-20-1	99.876	1.0.0.880	2	kr	810107911	prawa	1	2.0.10.182	08-12-2015	2015-08-12 15:37:17	17:37:17	mezczyzna	2.0.10.92	2																														TrainingProc1		TrainingList	1	1	1						4																																																					TrainProc											TrainingList1											target_both.png							3	1	4	dl								25	300	
1 ver1_main_procedure	20	1	20	<?xml version="1.0"?>\n<Clock xmlns:dt="urn:schemas-microsoft-com:datatypes"><Description dt:dt="string">E-Prime Primary Realtime Clock</Description><StartTime><Timestamp dt:dt="int">0</Timestamp><DateUtc dt:dt="string">2015-08-12T15:37:17Z</DateUtc></StartTime><FrequencyChanges><FrequencyChange><Frequency dt:dt="r8">3418037</Frequency><Timestamp dt:dt="r8">809453599</Timestamp><Current dt:dt="r8">0</Current><DateUtc dt:dt="string">2015-08-12T15:37:17Z</DateUtc></FrequencyChange></FrequencyChanges></Clock>\n	1 ver1_main_procedure-20-1	99.876	1.0.0.880	2	kr	810107911	prawa	1	2.0.10.182	08-12-2015	2015-08-12 15:37:17	17:37:17	mezczyzna	2.0.10.92	2																														TrainingProc1		TrainingList	1	1	1						5																																																					TrainProc											TrainingList1											target_right.png							2	1	5	l								25	150	
1 ver1_main_procedure	20	1	20	<?xml version="1.0"?>\n<Clock xmlns:dt="urn:schemas-microsoft-com:datatypes"><Description dt:dt="string">E-Prime Primary Realtime Clock</Description><StartTime><Timestamp dt:dt="int">0</Timestamp><DateUtc dt:dt="string">2015-08-12T15:37:17Z</DateUtc></StartTime><FrequencyChanges><FrequencyChange><Frequency dt:dt="r8">3418037</Frequency><Timestamp dt:dt="r8">809453599</Timestamp><Current dt:dt="r8">0</Current><DateUtc dt:dt="string">2015-08-12T15:37:17Z</DateUtc></FrequencyChange></FrequencyChanges></Clock>\n	1 ver1_main_procedure-20-1	99.876	1.0.0.880	2	kr	810107911	prawa	1	2.0.10.182	08-12-2015	2015-08-12 15:37:17	17:37:17	mezczyzna	2.0.10.92	2																														TrainingProc1		TrainingList	1	1	1						6																																																					TrainProc											TrainingList1											target_right.png							2	1	6	l								25	300	
1 ver1_main_procedure	20	1	20	<?xml version="1.0"?>\n<Clock xmlns:dt="urn:schemas-microsoft-com:datatypes"><Description dt:dt="string">E-Prime Primary Realtime Clock</Description><StartTime><Timestamp dt:dt="int">0</Timestamp><DateUtc dt:dt="string">2015-08-12T15:37:17Z</DateUtc></StartTime><FrequencyChanges><FrequencyChange><Frequency dt:dt="r8">3418037</Frequency><Timestamp dt:dt="r8">809453599</Timestamp><Current dt:dt="r8">0</Current><DateUtc dt:dt="string">2015-08-12T15:37:17Z</DateUtc></FrequencyChange></FrequencyChanges></Clock>\n	1 ver1_main_procedure-20-1	99.876	1.0.0.880	2	kr	810107911	prawa	1	2.0.10.182	08-12-2015	2015-08-12 15:37:17	17:37:17	mezczyzna	2.0.10.92	2																														TrainingProc1		TrainingList	1	1	1						7																																																					TrainProc											TrainingList1											target_left.png							1	1	7	d								75	150	
1 ver1_main_procedure	20	1	20	<?xml version="1.0"?>\n<Clock xmlns:dt="urn:schemas-microsoft-com:datatypes"><Description dt:dt="string">E-Prime Primary Realtime Clock</Description><StartTime><Timestamp dt:dt="int">0</Timestamp><DateUtc dt:dt="string">2015-08-12T15:37:17Z</DateUtc></StartTime><FrequencyChanges><FrequencyChange><Frequency dt:dt="r8">3418037</Frequency><Timestamp dt:dt="r8">809453599</Timestamp><Current dt:dt="r8">0</Current><DateUtc dt:dt="string">2015-08-12T15:37:17Z</DateUtc></FrequencyChange></FrequencyChanges></Clock>\n	1 ver1_main_procedure-20-1	99.876	1.0.0.880	2	kr	810107911	prawa	1	2.0.10.182	08-12-2015	2015-08-12 15:37:17	17:37:17	mezczyzna	2.0.10.92	2																														TrainingProc1		TrainingList	1	1	1						8																																																					TrainProc											TrainingList1											target_left.png							1	1	8	d								75	150	
1 ver1_main_procedure	20	1	20	<?xml version="1.0"?>\n<Clock xmlns:dt="urn:schemas-microsoft-com:datatypes"><Description dt:dt="string">E-Prime Primary Realtime Clock</Description><StartTime><Timestamp dt:dt="int">0</Timestamp><DateUtc dt:dt="string">2015-08-12T15:37:17Z</DateUtc></StartTime><FrequencyChanges><FrequencyChange><Frequency dt:dt="r8">3418037</Frequency><Timestamp dt:dt="r8">809453599</Timestamp><Current dt:dt="r8">0</Current><DateUtc dt:dt="string">2015-08-12T15:37:17Z</DateUtc></FrequencyChange></FrequencyChanges></Clock>\n	1 ver1_main_procedure-20-1	99.876	1.0.0.880	2	kr	810107911	prawa	1	2.0.10.182	08-12-2015	2015-08-12 15:37:17	17:37:17	mezczyzna	2.0.10.92	2																														TrainingProc1		TrainingList	1	1	1						9																																																					TrainProc											TrainingList1											target_both.png							3	1	9	dl								75	300	
1 ver1_main_procedure	20	1	20	<?xml version="1.0"?>\n<Clock xmlns:dt="urn:schemas-microsoft-com:datatypes"><Description dt:dt="string">E-Prime Primary Realtime Clock</Description><StartTime><Timestamp dt:dt="int">0</Timestamp><DateUtc dt:dt="string">2015-08-12T15:37:17Z</DateUtc></StartTime><FrequencyChanges><FrequencyChange><Frequency dt:dt="r8">3418037</Frequency><Timestamp dt:dt="r8">809453599</Timestamp><Current dt:dt="r8">0</Current><DateUtc dt:dt="string">2015-08-12T15:37:17Z</DateUtc></FrequencyChange></FrequencyChanges></Clock>\n	1 ver1_main_procedure-20-1	99.876	1.0.0.880	2	kr	810107911	prawa	1	2.0.10.182	08-12-2015	2015-08-12 15:37:17	17:37:17	mezczyzna	2.0.10.92	3	4	1	1																							l	{SPACE}		no	BlockProc2		BlockList									1	Cued	d			-1	14	396217	160																			1					25	prime_left.png	1	395837	0	0	13	1	395837	1	395837	0	395836	21	0	-1	394338	395836	395836	0	prime_left.png	TrialProc1	left	0		0	10	396147	-396147		0	0	TrialList2	target_left.png	0	d	-1	3	395887	260	l	315	396202															2	1	1	neut			150
1 ver1_main_procedure	20	1	20	<?xml version="1.0"?>\n<Clock xmlns:dt="urn:schemas-microsoft-com:datatypes"><Description dt:dt="string">E-Prime Primary Realtime Clock</Description><StartTime><Timestamp dt:dt="int">0</Timestamp><DateUtc dt:dt="string">2015-08-12T15:37:17Z</DateUtc></StartTime><FrequencyChanges><FrequencyChange><Frequency dt:dt="r8">3418037</Frequency><Timestamp dt:dt="r8">809453599</Timestamp><Current dt:dt="r8">0</Current><DateUtc dt:dt="string">2015-08-12T15:37:17Z</DateUtc></FrequencyChange></FrequencyChanges></Clock>\n	1 ver1_main_procedure-20-1	99.876	1.0.0.880	2	kr	810107911	prawa	1	2.0.10.182	08-12-2015	2015-08-12 15:37:17	17:37:17	mezczyzna	2.0.10.92	3	4	1	1																							l	{SPACE}		no	BlockProc2		BlockList									2	Free	dl	color_purple.png		-1	11	398758	170																								75	prime_right.png	0	398188	0	0	13	0	398188	0	398188	1	398188	20	0	-1	396689	398188	398187	0		TrialProc1	right	0		0	10	398498	-398498		0	0	TrialList2	target_both.png	0	dl	-1	3	398238	260	l	508	398746															10	1	2	comp			150
1 ver1_main_procedure	20	1	20	<?xml version="1.0"?>\n<Clock xmlns:dt="urn:schemas-microsoft-com:datatypes"><Description dt:dt="string">E-Prime Primary Realtime Clock</Description><StartTime><Timestamp dt:dt="int">0</Timestamp><DateUtc dt:dt="string">2015-08-12T15:37:17Z</DateUtc></StartTime><FrequencyChanges><FrequencyChange><Frequency dt:dt="r8">3418037</Frequency><Timestamp dt:dt="r8">809453599</Timestamp><Current dt:dt="r8">0</Current><DateUtc dt:dt="string">2015-08-12T15:37:17Z</DateUtc></FrequencyChange></FrequencyChanges></Clock>\n	1 ver1_main_procedure-20-1	99.876	1.0.0.880	2	kr	810107911	prawa	1	2.0.10.182	08-12-2015	2015-08-12 15:37:17	17:37:17	mezczyzna	2.0.10.92	3	4	1	1																							l	{SPACE}		no	BlockProc2		BlockList									3	Free	dl	color_blue.png		-1	9	401260	470																			2					25	prime_right.png	0	400740	0	0	13	0	400740	0	400740	1	400740	20	0	-1	399240	400740	400739	0	prime_right.png	TrialProc1	right	0		0	10	401050	-401050		0	0	TrialList2	target_both.png	0	dl	-1	3	400790	260	l	460	401250															11	1	3	neut			450
1 ver1_main_procedure	20	1	20	<?xml version="1.0"?>\n<Clock xmlns:dt="urn:schemas-microsoft-com:datatypes"><Description dt:dt="string">E-Prime Primary Realtime Clock</Description><StartTime><Timestamp dt:dt="int">0</Timestamp><DateUtc dt:dt="string">2015-08-12T15:37:17Z</DateUtc></StartTime><FrequencyChanges><FrequencyChange><Frequency dt:dt="r8">3418037</Frequency><Timestamp dt:dt="r8">809453599</Timestamp><Current dt:dt="r8">0</Current><DateUtc dt:dt="string">2015-08-12T15:37:17Z</DateUtc></FrequencyChange></FrequencyChanges></Clock>\n	1 ver1_main_procedure-20-1	99.876	1.0.0.880	2	kr	810107911	prawa	1	2.0.10.182	08-12-2015	2015-08-12 15:37:17	17:37:17	mezczyzna	2.0.10.92	3	4	1	1																							l	{SPACE}		no	BlockProc2		BlockList									4	Free	dl	color_purple.png		-1	11	404022	160																								75	prime_right.png	1	403542	0	0	13	1	403542	1	403542	1	403541	20	0	-1	402042	403541	403540	0		TrialProc1	right	0		0	11	403852	-403852		0	0	TrialList2	target_both.png	0	dl	-1	3	403591	261	l	419	404010															10	1	4	comp			150
1 ver1_main_procedure	20	1	20	<?xml version="1.0"?>\n<Clock xmlns:dt="urn:schemas-microsoft-com:datatypes"><Description dt:dt="string">E-Prime Primary Realtime Clock</Description><StartTime><Timestamp dt:dt="int">0</Timestamp><DateUtc dt:dt="string">2015-08-12T15:37:17Z</DateUtc></StartTime><FrequencyChanges><FrequencyChange><Frequency dt:dt="r8">3418037</Frequency><Timestamp dt:dt="r8">809453599</Timestamp><Current dt:dt="r8">0</Current><DateUtc dt:dt="string">2015-08-12T15:37:17Z</DateUtc></FrequencyChange></FrequencyChanges></Clock>\n	1 ver1_main_procedure-20-1	99.876	1.0.0.880	2	kr	810107911	prawa	1	2.0.10.182	08-12-2015	2015-08-12 15:37:17	17:37:17	mezczyzna	2.0.10.92	3	4	1	1																							l	{SPACE}		no	BlockProc2		BlockList									5	Free	dl	color_yellow.png		-1	10	406373	470																								75	prime_right.png	0	405993	0	0	13	0	405993	0	405993	1	405993	20	0	-1	404494	405993	405992	0		TrialProc1	right	0		0	10	406303	-406303		0	0	TrialList2	target_both.png	0	dl	-1	3	406043	260	d	319	406362															10	1	5	comp			450
1 ver1_main_procedure	20	1	20	<?xml version="1.0"?>\n<Clock xmlns:dt="urn:schemas-microsoft-com:datatypes"><Description dt:dt="string">E-Prime Primary Realtime Clock</Description><StartTime><Timestamp dt:dt="int">0</Timestamp><DateUtc dt:dt="string">2015-08-12T15:37:17Z</DateUtc></StartTime><FrequencyChanges><FrequencyChange><Frequency dt:dt="r8">3418037</Frequency><Timestamp dt:dt="r8">809453599</Timestamp><Current dt:dt="r8">0</Current><DateUtc dt:dt="string">2015-08-12T15:37:17Z</DateUtc></FrequencyChange></FrequencyChanges></Clock>\n	1 ver1_main_procedure-20-1	99.876	1.0.0.880	2	kr	810107911	prawa	1	2.0.10.182	08-12-2015	2015-08-12 15:37:17	17:37:17	mezczyzna	2.0.10.92	3	4	1	1																							l	{SPACE}		no	BlockProc2		BlockList									6	Cued	l			-1	10	409005	460																								75	prime_right.png	0	408655	0	0	13	0	408655	0	408655	1	408655	20	0	-1	407155	408655	408654	0		TrialProc1	right	0		0	10	408965	-408965		0	0	TrialList2	target_right.png	0	l	-1	3	408705	260	d	289	408994															4	1	6	comp			450
1 ver1_main_procedure	20	1	20	<?xml version="1.0"?>\n<Clock xmlns:dt="urn:schemas-microsoft-com:datatypes"><Description dt:dt="string">E-Prime Primary Realtime Clock</Description><StartTime><Timestamp dt:dt="int">0</Timestamp><DateUtc dt:dt="string">2015-08-12T15:37:17Z</DateUtc></StartTime><FrequencyChanges><FrequencyChange><Frequency dt:dt="r8">3418037</Frequency><Timestamp dt:dt="r8">809453599</Timestamp><Current dt:dt="r8">0</Current><DateUtc dt:dt="string">2015-08-12T15:37:17Z</DateUtc></FrequencyChange></FrequencyChanges></Clock>\n	1 ver1_main_procedure-20-1	99.876	1.0.0.880	2	kr	810107911	prawa	1	2.0.10.182	08-12-2015	2015-08-12 15:37:17	17:37:17	mezczyzna	2.0.10.92	3	4	1	1																							l	{SPACE}		no	BlockProc2		BlockList									7	Free	dl	color_blue.png		-1	14	411777	160																			1					25	prime_left.png	0	411276	0	0	13	1	411277	1	411277	1	411276	20	0	-1	409777	411276	411275	0	prime_left.png	TrialProc1	right	0		0	11	411587	-411587		0	0	TrialList2	target_both.png	0	dl	-1	3	411326	261	l	436	411762															11	1	7	neut			150
1 ver1_main_procedure	20	1	20	<?xml version="1.0"?>\n<Clock xmlns:dt="urn:schemas-microsoft-com:datatypes"><Description dt:dt="string">E-Prime Primary Realtime Clock</Description><StartTime><Timestamp dt:dt="int">0</Timestamp><DateUtc dt:dt="string">2015-08-12T15:37:17Z</DateUtc></StartTime><FrequencyChanges><FrequencyChange><Frequency dt:dt="r8">3418037</Frequency><Timestamp dt:dt="r8">809453599</Timestamp><Current dt:dt="r8">0</Current><DateUtc dt:dt="string">2015-08-12T15:37:17Z</DateUtc></FrequencyChange></FrequencyChanges></Clock>\n	1 ver1_main_procedure-20-1	99.876	1.0.0.880	2	kr	810107911	prawa	1	2.0.10.182	08-12-2015	2015-08-12 15:37:17	17:37:17	mezczyzna	2.0.10.92	3	4	1	1																							l	{SPACE}		no	BlockProc2		BlockList									8	Free	dl	color_orange.png		-1	15	414178	170																			2					75	prime_right.png	0	413748	0	0	13	0	413748	0	413748	1	413748	20	0	-1	412249	413748	413747	0	prime_right.png	TrialProc1	left	0		0	10	414058	-414058		0	0	TrialList2	target_both.png	0	dl	-1	3	413798	260	d	364	414162															8	1	8	neut			150
1 ver1_main_procedure	20	1	20	<?xml version="1.0"?>\n<Clock xmlns:dt="urn:schemas-microsoft-com:datatypes"><Description dt:dt="string">E-Prime Primary Realtime Clock</Description><StartTime><Timestamp dt:dt="int">0</Timestamp><DateUtc dt:dt="string">2015-08-12T15:37:17Z</DateUtc></StartTime><FrequencyChanges><FrequencyChange><Frequency dt:dt="r8">3418037</Frequency><Timestamp dt:dt="r8">809453599</Timestamp><Current dt:dt="r8">0</Current><DateUtc dt:dt="string">2015-08-12T15:37:17Z</DateUtc></FrequencyChange></FrequencyChanges></Clock>\n	1 ver1_main_procedure-20-1	99.876	1.0.0.880	2	kr	810107911	prawa	1	2.0.10.182	08-12-2015	2015-08-12 15:37:17	17:37:17	mezczyzna	2.0.10.92	3	4	1	1																							l	{SPACE}		no	BlockProc2		BlockList									9	Free	dl	color_orange.png		-1	11	416550	460																			1					25	prime_left.png	1	416160	0	0	13	1	416160	1	416160	1	416159	20	0	-1	414660	416159	416158	0	prime_left.png	TrialProc1	left	0		0	11	416470	-416470		0	0	TrialList2	target_both.png	0	dl	-1	3	416209	261	d	329	416538															8	1	9	neut			450
1 ver1_main_procedure	20	1	20	<?xml version="1.0"?>\n<Clock xmlns:dt="urn:schemas-microsoft-com:datatypes"><Description dt:dt="string">E-Prime Primary Realtime Clock</Description><StartTime><Timestamp dt:dt="int">0</Timestamp><DateUtc dt:dt="string">2015-08-12T15:37:17Z</DateUtc></StartTime><FrequencyChanges><FrequencyChange><Frequency dt:dt="r8">3418037</Frequency><Timestamp dt:dt="r8">809453599</Timestamp><Current dt:dt="r8">0</Current><DateUtc dt:dt="string">2015-08-12T15:37:17Z</DateUtc></FrequencyChange></FrequencyChanges></Clock>\n	1 ver1_main_procedure-20-1	99.876	1.0.0.880	2	kr	810107911	prawa	1	2.0.10.182	08-12-2015	2015-08-12 15:37:17	17:37:17	mezczyzna	2.0.10.92	3	4	1	1																							l	{SPACE}		no	BlockProc2		BlockList									10	Free	dl	color_purple.png		-1	9	419251	311																								25	prime_right.png	0	418821	0	0	13	0	418821	0	418821	1	418821	20	0	-1	417322	418821	418820	0		TrialProc1	right	0		0	10	419131	-419131		0	0	TrialList2	target_both.png	0	dl	-1	3	418871	260	l	371	419242															10	1	10	comp			300
1 ver1_main_procedure	20	1	20	<?xml version="1.0"?>\n<Clock xmlns:dt="urn:schemas-microsoft-com:datatypes"><Description dt:dt="string">E-Prime Primary Realtime Clock</Description><StartTime><Timestamp dt:dt="int">0</Timestamp><DateUtc dt:dt="string">2015-08-12T15:37:17Z</DateUtc></StartTime><FrequencyChanges><FrequencyChange><Frequency dt:dt="r8">3418037</Frequency><Timestamp dt:dt="r8">809453599</Timestamp><Current dt:dt="r8">0</Current><DateUtc dt:dt="string">2015-08-12T15:37:17Z</DateUtc></FrequencyChange></FrequencyChanges></Clock>\n	1 ver1_main_procedure-20-1	99.876	1.0.0.880	2	kr	810107911	prawa	1	2.0.10.182	08-12-2015	2015-08-12 15:37:17	17:37:17	mezczyzna	2.0.10.92	3	4	1	1																							l	{SPACE}		no	BlockProc2		BlockList									11	Free	dl	color_green.png		-1	14	421833	170																								25	prime_left.png	0	421373	0	0	13	0	421373	0	421373	1	421373	20	0	-1	419873	421373	421372	0		TrialProc1	right	0		0	10	421683	-421683		0	0	TrialList2	target_both.png	0	dl	-1	3	421423	260	d	395	421818															12	1	11	incomp			150
1 ver1_main_procedure	20	1	20	<?xml version="1.0"?>\n<Clock xmlns:dt="urn:schemas-microsoft-com:datatypes"><Description dt:dt="string">E-Prime Primary Realtime Clock</Description><StartTime><Timestamp dt:dt="int">0</Timestamp><DateUtc dt:dt="string">2015-08-12T15:37:17Z</DateUtc></StartTime><FrequencyChanges><FrequencyChange><Frequency dt:dt="r8">3418037</Frequency><Timestamp dt:dt="r8">809453599</Timestamp><Current dt:dt="r8">0</Current><DateUtc dt:dt="string">2015-08-12T15:37:17Z</DateUtc></FrequencyChange></FrequencyChanges></Clock>\n	1 ver1_main_procedure-20-1	99.876	1.0.0.880	2	kr	810107911	prawa	1	2.0.10.182	08-12-2015	2015-08-12 15:37:17	17:37:17	mezczyzna	2.0.10.92	3	4	1	1																							l	{SPACE}		no	BlockProc2		BlockList									12	Free	dl	color_red.png		-1	10	424085	180																								25	prime_left.png	0	423814	0	0	13	1	423815	1	423815	1	423814	20	0	-1	422315	423814	423813	0		TrialProc1	right	0		0	0	0	0		0	0	TrialList2	target_both.png	0	dl	-999999	3	423864	0	l	210	424074															12	1	12	incomp			150
1 ver1_main_procedure	20	1	20	<?xml version="1.0"?>\n<Clock xmlns:dt="urn:schemas-microsoft-com:datatypes"><Description dt:dt="string">E-Prime Primary Realtime Clock</Description><StartTime><Timestamp dt:dt="int">0</Timestamp><DateUtc dt:dt="string">2015-08-12T15:37:17Z</DateUtc></StartTime><FrequencyChanges><FrequencyChange><Frequency dt:dt="r8">3418037</Frequency><Timestamp dt:dt="r8">809453599</Timestamp><Current dt:dt="r8">0</Current><DateUtc dt:dt="string">2015-08-12T15:37:17Z</DateUtc></FrequencyChange></FrequencyChanges></Clock>\n	1 ver1_main_procedure-20-1	99.876	1.0.0.880	2	kr	810107911	prawa	1	2.0.10.182	08-12-2015	2015-08-12 15:37:17	17:37:17	mezczyzna	2.0.10.92	3	4	1	1																							l	{SPACE}		no	BlockProc2		BlockList									13	Free	dl	color_green.png		-1	16	426426	310																								25	prime_left.png	0	426076	0	0	13	0	426076	0	426076	1	426076	20	0	-1	424576	426076	426075	0		TrialProc1	right	0		0	10	426386	-426386		0	0	TrialList2	target_both.png	0	dl	-1	3	426126	260	d	284	426410															12	1	13	incomp			300
1 ver1_main_procedure	20	1	20	<?xml version="1.0"?>\n<Clock xmlns:dt="urn:schemas-microsoft-com:datatypes"><Description dt:dt="string">E-Prime Primary Realtime Clock</Description><StartTime><Timestamp dt:dt="int">0</Timestamp><DateUtc dt:dt="string">2015-08-12T15:37:17Z</DateUtc></StartTime><FrequencyChanges><FrequencyChange><Frequency dt:dt="r8">3418037</Frequency><Timestamp dt:dt="r8">809453599</Timestamp><Current dt:dt="r8">0</Current><DateUtc dt:dt="string">2015-08-12T15:37:17Z</DateUtc></FrequencyChange></FrequencyChanges></Clock>\n	1 ver1_main_procedure-20-1	99.876	1.0.0.880	2	kr	810107911	prawa	1	2.0.10.182	08-12-2015	2015-08-12 15:37:17	17:37:17	mezczyzna	2.0.10.92	3	4	1	1																							l	{SPACE}		no	BlockProc2		BlockList									14	Free	dl	color_green.png		-1	14	428888	310																								25	prime_left.png	0	428547	0	0	13	1	428548	1	428548	1	428547	20	0	-1	427048	428547	428546	0		TrialProc1	right	0		0	11	428858	-428858		0	0	TrialList2	target_both.png	0	dl	-1	3	428597	261	d	277	428874															12	1	14	incomp			300
1 ver1_main_procedure	20	1	20	<?xml version="1.0"?>\n<Clock xmlns:dt="urn:schemas-microsoft-com:datatypes"><Description dt:dt="string">E-Prime Primary Realtime Clock</Description><StartTime><Timestamp dt:dt="int">0</Timestamp><DateUtc dt:dt="string">2015-08-12T15:37:17Z</DateUtc></StartTime><FrequencyChanges><FrequencyChange><Frequency dt:dt="r8">3418037</Frequency><Timestamp dt:dt="r8">809453599</Timestamp><Current dt:dt="r8">0</Current><DateUtc dt:dt="string">2015-08-12T15:37:17Z</DateUtc></FrequencyChange></FrequencyChanges></Clock>\n	1 ver1_main_procedure-20-1	99.876	1.0.0.880	2	kr	810107911	prawa	1	2.0.10.182	08-12-2015	2015-08-12 15:37:17	17:37:17	mezczyzna	2.0.10.92	3	4	1	1																							l	{SPACE}		no	BlockProc2		BlockList									15	Free	dl	color_purple.png		-1	15	431409	460																								75	prime_right.png	0	431009	0	0	13	0	431009	0	431009	1	431009	20	0	-1	429509	431009	431008	0		TrialProc1	left	0		0	10	431319	-431319		0	0	TrialList2	target_both.png	0	dl	-1	3	431059	260	l	335	431394															9	1	15	incomp			450
1 ver1_main_procedure	20	1	20	<?xml version="1.0"?>\n<Clock xmlns:dt="urn:schemas-microsoft-com:datatypes"><Description dt:dt="string">E-Prime Primary Realtime Clock</Description><StartTime><Timestamp dt:dt="int">0</Timestamp><DateUtc dt:dt="string">2015-08-12T15:37:17Z</DateUtc></StartTime><FrequencyChanges><FrequencyChange><Frequency dt:dt="r8">3418037</Frequency><Timestamp dt:dt="r8">809453599</Timestamp><Current dt:dt="r8">0</Current><DateUtc dt:dt="string">2015-08-12T15:37:17Z</DateUtc></FrequencyChange></FrequencyChanges></Clock>\n	1 ver1_main_procedure-20-1	99.876	1.0.0.880	2	kr	810107911	prawa	1	2.0.10.182	08-12-2015	2015-08-12 15:37:17	17:37:17	mezczyzna	2.0.10.92	3	4	1	1																							l	{SPACE}		no	BlockProc2		BlockList									16	Cued	d			-1	13	433991	310																								75	prime_right.png	0	433681	0	0	13	0	433681	0	433681	1	433681	20	0	-1	432181	433681	433680	0		TrialProc1	left	0		0	0	0	0		0	0	TrialList2	target_left.png	0	d	-999999	3	433731	0	l	247	433978															3	1	16	incomp			300
1 ver1_main_procedure	20	1	20	<?xml version="1.0"?>\n<Clock xmlns:dt="urn:schemas-microsoft-com:datatypes"><Description dt:dt="string">E-Prime Primary Realtime Clock</Description><StartTime><Timestamp dt:dt="int">0</Timestamp><DateUtc dt:dt="string">2015-08-12T15:37:17Z</DateUtc></StartTime><FrequencyChanges><FrequencyChange><Frequency dt:dt="r8">3418037</Frequency><Timestamp dt:dt="r8">809453599</Timestamp><Current dt:dt="r8">0</Current><DateUtc dt:dt="string">2015-08-12T15:37:17Z</DateUtc></FrequencyChange></FrequencyChanges></Clock>\n	1 ver1_main_procedure-20-1	99.876	1.0.0.880	2	kr	810107911	prawa	1	2.0.10.182	08-12-2015	2015-08-12 15:37:17	17:37:17	mezczyzna	2.0.10.92	3	4	1	1																							l	{SPACE}		no	BlockProc2		BlockList									17	Free	dl	color_blue.png		-1	12	436462	160																			2					75	prime_right.png	0	436112	0	0	13	0	436112	0	436112	1	436112	20	0	-1	434613	436112	436111	0	prime_right.png	TrialProc1	right	0		1	10	436422	-436422		0	0	TrialList2	target_both.png	0	dl	-1	3	436162	260	l	287	436449															11	1	17	neut			150
1 ver1_main_procedure	20	1	20	<?xml version="1.0"?>\n<Clock xmlns:dt="urn:schemas-microsoft-com:datatypes"><Description dt:dt="string">E-Prime Primary Realtime Clock</Description><StartTime><Timestamp dt:dt="int">0</Timestamp><DateUtc dt:dt="string">2015-08-12T15:37:17Z</DateUtc></StartTime><FrequencyChanges><FrequencyChange><Frequency dt:dt="r8">3418037</Frequency><Timestamp dt:dt="r8">809453599</Timestamp><Current dt:dt="r8">0</Current><DateUtc dt:dt="string">2015-08-12T15:37:17Z</DateUtc></FrequencyChange></FrequencyChanges></Clock>\n	1 ver1_main_procedure-20-1	99.876	1.0.0.880	2	kr	810107911	prawa	1	2.0.10.182	08-12-2015	2015-08-12 15:37:17	17:37:17	mezczyzna	2.0.10.92	3	4	1	1																							l	{SPACE}		no	BlockProc2		BlockList									18	Cued	d	color_yellow.png		-1	8	438914	460																								25	prime_right.png	0	438434	0	0	13	0	438434	0	438434	1	438434	20	0	-1	436934	438434	438433	0		TrialProc1	left	0		0	10	438744	-438744		0	0	TrialList2	target_left.png	1	d	-1	3	438484	260	d	421	438905															3	1	18	incomp			450
1 ver1_main_procedure	20	1	20	<?xml version="1.0"?>\n<Clock xmlns:dt="urn:schemas-microsoft-com:datatypes"><Description dt:dt="string">E-Prime Primary Realtime Clock</Description><StartTime><Timestamp dt:dt="int">0</Timestamp><DateUtc dt:dt="string">2015-08-12T15:37:17Z</DateUtc></StartTime><FrequencyChanges><FrequencyChange><Frequency dt:dt="r8">3418037</Frequency><Timestamp dt:dt="r8">809453599</Timestamp><Current dt:dt="r8">0</Current><DateUtc dt:dt="string">2015-08-12T15:37:17Z</DateUtc></FrequencyChange></FrequencyChanges></Clock>\n	1 ver1_main_procedure-20-1	99.876	1.0.0.880	2	kr	810107911	prawa	1	2.0.10.182	08-12-2015	2015-08-12 15:37:17	17:37:17	mezczyzna	2.0.10.92	3	4	1	1																							l	{SPACE}		no	BlockProc2		BlockList									19	Cued	l	color_red.png		-1	12	441606	160																								25	prime_left.png	1	441186	0	0	13	1	441186	1	441186	1	441185	20	0	-1	439686	441185	441184	0		TrialProc1	right	0		0	11	441496	-441496		0	0	TrialList2	target_right.png	1	l	-1	3	441235	261	l	358	441593															6	1	19	incomp			150
1 ver1_main_procedure	20	1	20	<?xml version="1.0"?>\n<Clock xmlns:dt="urn:schemas-microsoft-com:datatypes"><Description dt:dt="string">E-Prime Primary Realtime Clock</Description><StartTime><Timestamp dt:dt="int">0</Timestamp><DateUtc dt:dt="string">2015-08-12T15:37:17Z</DateUtc></StartTime><FrequencyChanges><FrequencyChange><Frequency dt:dt="r8">3418037</Frequency><Timestamp dt:dt="r8">809453599</Timestamp><Current dt:dt="r8">0</Current><DateUtc dt:dt="string">2015-08-12T15:37:17Z</DateUtc></FrequencyChange></FrequencyChanges></Clock>\n	1 ver1_main_procedure-20-1	99.876	1.0.0.880	2	kr	810107911	prawa	1	2.0.10.182	08-12-2015	2015-08-12 15:37:17	17:37:17	mezczyzna	2.0.10.92	3	4	1	1																							l	{SPACE}		no	BlockProc2		BlockList									20	Free	dl	color_orange.png		-1	11	444037	461																			1					75	prime_left.png	0	443577	0	0	13	0	443577	0	443577	1	443577	20	0	-1	442077	443577	443576	0	prime_left.png	TrialProc1	left	0		0	10	443887	-443887		0	0	TrialList2	target_both.png	0	dl	-1	3	443627	260	d	398	444025															8	1	20	neut			450
1 ver1_main_procedure	20	1	20	<?xml version="1.0"?>\n<Clock xmlns:dt="urn:schemas-microsoft-com:datatypes"><Description dt:dt="string">E-Prime Primary Realtime Clock</Description><StartTime><Timestamp dt:dt="int">0</Timestamp><DateUtc dt:dt="string">2015-08-12T15:37:17Z</DateUtc></StartTime><FrequencyChanges><FrequencyChange><Frequency dt:dt="r8">3418037</Frequency><Timestamp dt:dt="r8">809453599</Timestamp><Current dt:dt="r8">0</Current><DateUtc dt:dt="string">2015-08-12T15:37:17Z</DateUtc></FrequencyChange></FrequencyChanges></Clock>\n	1 ver1_main_procedure-20-1	99.876	1.0.0.880	2	kr	810107911	prawa	1	2.0.10.182	08-12-2015	2015-08-12 15:37:17	17:37:17	mezczyzna	2.0.10.92	3	4	1	1																							l	{SPACE}		no	BlockProc2		BlockList									21	Free	dl	color_red.png		-1	9	446579	310																								25	prime_left.png	0	446309	0	0	13	0	446309	0	446309	1	446309	20	0	-1	444809	446309	446308	0		TrialProc1	right	0		0	0	0	0		0	0	TrialList2	target_both.png	0	dl	-999999	3	446359	0	l	210	446569															12	1	21	incomp			300
1 ver1_main_procedure	20	1	20	<?xml version="1.0"?>\n<Clock xmlns:dt="urn:schemas-microsoft-com:datatypes"><Description dt:dt="string">E-Prime Primary Realtime Clock</Description><StartTime><Timestamp dt:dt="int">0</Timestamp><DateUtc dt:dt="string">2015-08-12T15:37:17Z</DateUtc></StartTime><FrequencyChanges><FrequencyChange><Frequency dt:dt="r8">3418037</Frequency><Timestamp dt:dt="r8">809453599</Timestamp><Current dt:dt="r8">0</Current><DateUtc dt:dt="string">2015-08-12T15:37:17Z</DateUtc></FrequencyChange></FrequencyChanges></Clock>\n	1 ver1_main_procedure-20-1	99.876	1.0.0.880	2	kr	810107911	prawa	1	2.0.10.182	08-12-2015	2015-08-12 15:37:17	17:37:17	mezczyzna	2.0.10.92	3	4	1	1																							l	{SPACE}		no	BlockProc2		BlockList									22	Free	dl	color_blue.png		-1	14	448960	160																			2					75	prime_right.png	0	448700	0	0	13	0	448700	0	448700	1	448700	20	0	-1	447201	448700	448699	0	prime_right.png	TrialProc1	right	0		0	0	0	0		0	0	TrialList2	target_both.png	0	dl	-999999	3	448750	0	l	195	448945															11	1	22	neut			150
1 ver1_main_procedure	20	1	20	<?xml version="1.0"?>\n<Clock xmlns:dt="urn:schemas-microsoft-com:datatypes"><Description dt:dt="string">E-Prime Primary Realtime Clock</Description><StartTime><Timestamp dt:dt="int">0</Timestamp><DateUtc dt:dt="string">2015-08-12T15:37:17Z</DateUtc></StartTime><FrequencyChanges><FrequencyChange><Frequency dt:dt="r8">3418037</Frequency><Timestamp dt:dt="r8">809453599</Timestamp><Current dt:dt="r8">0</Current><DateUtc dt:dt="string">2015-08-12T15:37:17Z</DateUtc></FrequencyChange></FrequencyChanges></Clock>\n	1 ver1_main_procedure-20-1	99.876	1.0.0.880	2	kr	810107911	prawa	1	2.0.10.182	08-12-2015	2015-08-12 15:37:17	17:37:17	mezczyzna	2.0.10.92	3	4	1	1																							l	{SPACE}		no	BlockProc2		BlockList									23	Free	dl	color_yellow.png		-1	14	451352	460																								75	prime_right.png	0	450932	0	0	13	0	450932	0	450932	1	450932	20	0	-1	449432	450932	450931	0		TrialProc1	right	0		0	10	451242	-451242		0	0	TrialList2	target_both.png	0	dl	-1	3	450982	260	d	355	451337															10	1	23	comp			450
1 ver1_main_procedure	20	1	20	<?xml version="1.0"?>\n<Clock xmlns:dt="urn:schemas-microsoft-com:datatypes"><Description dt:dt="string">E-Prime Primary Realtime Clock</Description><StartTime><Timestamp dt:dt="int">0</Timestamp><DateUtc dt:dt="string">2015-08-12T15:37:17Z</DateUtc></StartTime><FrequencyChanges><FrequencyChange><Frequency dt:dt="r8">3418037</Frequency><Timestamp dt:dt="r8">809453599</Timestamp><Current dt:dt="r8">0</Current><DateUtc dt:dt="string">2015-08-12T15:37:17Z</DateUtc></FrequencyChange></FrequencyChanges></Clock>\n	1 ver1_main_procedure-20-1	99.876	1.0.0.880	2	kr	810107911	prawa	1	2.0.10.182	08-12-2015	2015-08-12 15:37:17	17:37:17	mezczyzna	2.0.10.92	3	4	1	1																							l	{SPACE}		no	BlockProc2		BlockList									24	Free	dl	color_green.png		-1	13	453903	311																								75	prime_left.png	0	453623	0	0	13	0	453624	0	453623	1	453623	20	0	-1	452124	453623	453622	0		TrialProc1	right	0		0	0	0	0		0	0	TrialList2	target_both.png	0	dl	-999999	3	453673	0	d	216	453889															12	1	24	incomp			300
1 ver1_main_procedure	20	1	20	<?xml version="1.0"?>\n<Clock xmlns:dt="urn:schemas-microsoft-com:datatypes"><Description dt:dt="string">E-Prime Primary Realtime Clock</Description><StartTime><Timestamp dt:dt="int">0</Timestamp><DateUtc dt:dt="string">2015-08-12T15:37:17Z</DateUtc></StartTime><FrequencyChanges><FrequencyChange><Frequency dt:dt="r8">3418037</Frequency><Timestamp dt:dt="r8">809453599</Timestamp><Current dt:dt="r8">0</Current><DateUtc dt:dt="string">2015-08-12T15:37:17Z</DateUtc></FrequencyChange></FrequencyChanges></Clock>\n	1 ver1_main_procedure-20-1	99.876	1.0.0.880	2	kr	810107911	prawa	1	2.0.10.182	08-12-2015	2015-08-12 15:37:17	17:37:17	mezczyzna	2.0.10.92	3	4	1	1																							l	{SPACE}		no	BlockProc2		BlockList									25	Cued	l	color_purple.png		-1	9	456475	160																								25	prime_right.png	0	456025	0	0	13	0	456025	0	456025	1	456025	20	0	-1	454525	456025	456024	0		TrialProc1	right	0		0	10	456335	-456335		0	0	TrialList2	target_right.png	1	l	-1	3	456075	260	l	390	456465															4	1	25	comp			150
1 ver1_main_procedure	20	1	20	<?xml version="1.0"?>\n<Clock xmlns:dt="urn:schemas-microsoft-com:datatypes"><Description dt:dt="string">E-Prime Primary Realtime Clock</Description><StartTime><Timestamp dt:dt="int">0</Timestamp><DateUtc dt:dt="string">2015-08-12T15:37:17Z</DateUtc></StartTime><FrequencyChanges><FrequencyChange><Frequency dt:dt="r8">3418037</Frequency><Timestamp dt:dt="r8">809453599</Timestamp><Current dt:dt="r8">0</Current><DateUtc dt:dt="string">2015-08-12T15:37:17Z</DateUtc></FrequencyChange></FrequencyChanges></Clock>\n	1 ver1_main_procedure-20-1	99.876	1.0.0.880	2	kr	810107911	prawa	1	2.0.10.182	08-12-2015	2015-08-12 15:37:17	17:37:17	mezczyzna	2.0.10.92	3	4	1	1																							l	{SPACE}		no	BlockProc2		BlockList									26	Free	dl	color_orange.png		-1	17	458867	460																			1					25	prime_left.png	1	458447	0	0	13	1	458447	1	458447	1	458446	20	0	-1	456947	458446	458445	0	prime_left.png	TrialProc1	left	0		0	11	458757	-458757		0	0	TrialList2	target_both.png	0	dl	-1	3	458496	261	d	353	458849															8	1	26	neut			450
1 ver1_main_procedure	20	1	20	<?xml version="1.0"?>\n<Clock xmlns:dt="urn:schemas-microsoft-com:datatypes"><Description dt:dt="string">E-Prime Primary Realtime Clock</Description><StartTime><Timestamp dt:dt="int">0</Timestamp><DateUtc dt:dt="string">2015-08-12T15:37:17Z</DateUtc></StartTime><FrequencyChanges><FrequencyChange><Frequency dt:dt="r8">3418037</Frequency><Timestamp dt:dt="r8">809453599</Timestamp><Current dt:dt="r8">0</Current><DateUtc dt:dt="string">2015-08-12T15:37:17Z</DateUtc></FrequencyChange></FrequencyChanges></Clock>\n	1 ver1_main_procedure-20-1	99.876	1.0.0.880	2	kr	810107911	prawa	1	2.0.10.182	08-12-2015	2015-08-12 15:37:17	17:37:17	mezczyzna	2.0.10.92	3	4	1	1																							l	{SPACE}		no	BlockProc2		BlockList									27	Free	dl	color_blue.png		-1	12	461438	310																			2					25	prime_right.png	0	461138	0	0	13	0	461138	0	461138	1	461138	20	0	-1	459639	461138	461137	0	prime_right.png	TrialProc1	right	0		0	0	0	0		0	0	TrialList2	target_both.png	0	dl	-999999	3	461188	0	l	237	461425															11	1	27	neut			300
1 ver1_main_procedure	20	1	20	<?xml version="1.0"?>\n<Clock xmlns:dt="urn:schemas-microsoft-com:datatypes"><Description dt:dt="string">E-Prime Primary Realtime Clock</Description><StartTime><Timestamp dt:dt="int">0</Timestamp><DateUtc dt:dt="string">2015-08-12T15:37:17Z</DateUtc></StartTime><FrequencyChanges><FrequencyChange><Frequency dt:dt="r8">3418037</Frequency><Timestamp dt:dt="r8">809453599</Timestamp><Current dt:dt="r8">0</Current><DateUtc dt:dt="string">2015-08-12T15:37:17Z</DateUtc></FrequencyChange></FrequencyChanges></Clock>\n	1 ver1_main_procedure-20-1	99.876	1.0.0.880	2	kr	810107911	prawa	1	2.0.10.182	08-12-2015	2015-08-12 15:37:17	17:37:17	mezczyzna	2.0.10.92	3	4	1	1																							l	{SPACE}		no	BlockProc2		BlockList									28	Free	dl	color_red.png		-1	13	463870	460																								75	prime_left.png	0	463560	0	0	13	0	463560	0	463560	1	463560	20	0	-1	462060	463560	463559	0		TrialProc1	left	0		0	0	0	0		0	0	TrialList2	target_both.png	0	dl	-999999	3	463610	0	l	247	463857															7	1	28	comp			450
1 ver1_main_procedure	20	1	20	<?xml version="1.0"?>\n<Clock xmlns:dt="urn:schemas-microsoft-com:datatypes"><Description dt:dt="string">E-Prime Primary Realtime Clock</Description><StartTime><Timestamp dt:dt="int">0</Timestamp><DateUtc dt:dt="string">2015-08-12T15:37:17Z</DateUtc></StartTime><FrequencyChanges><FrequencyChange><Frequency dt:dt="r8">3418037</Frequency><Timestamp dt:dt="r8">809453599</Timestamp><Current dt:dt="r8">0</Current><DateUtc dt:dt="string">2015-08-12T15:37:17Z</DateUtc></FrequencyChange></FrequencyChanges></Clock>\n	1 ver1_main_procedure-20-1	99.876	1.0.0.880	2	kr	810107911	prawa	1	2.0.10.182	08-12-2015	2015-08-12 15:37:17	17:37:17	mezczyzna	2.0.10.92	3	4	1	1																							l	{SPACE}		no	BlockProc2		BlockList									29	Free	dl	color_orange.png		-1	19	466452	460																			1					25	prime_left.png	0	466141	0	0	13	1	466142	1	466142	1	466141	20	0	-1	464642	466141	466140	0	prime_left.png	TrialProc1	right	0		0	0	0	0		0	0	TrialList2	target_both.png	0	dl	-999999	3	466191	0	d	242	466433															11	1	29	neut			450
1 ver1_main_procedure	20	1	20	<?xml version="1.0"?>\n<Clock xmlns:dt="urn:schemas-microsoft-com:datatypes"><Description dt:dt="string">E-Prime Primary Realtime Clock</Description><StartTime><Timestamp dt:dt="int">0</Timestamp><DateUtc dt:dt="string">2015-08-12T15:37:17Z</DateUtc></StartTime><FrequencyChanges><FrequencyChange><Frequency dt:dt="r8">3418037</Frequency><Timestamp dt:dt="r8">809453599</Timestamp><Current dt:dt="r8">0</Current><DateUtc dt:dt="string">2015-08-12T15:37:17Z</DateUtc></FrequencyChange></FrequencyChanges></Clock>\n	1 ver1_main_procedure-20-1	99.876	1.0.0.880	2	kr	810107911	prawa	1	2.0.10.182	08-12-2015	2015-08-12 15:37:17	17:37:17	mezczyzna	2.0.10.92	3	4	1	1																							l	{SPACE}		no	BlockProc2		BlockList									30	Free	dl	color_red.png		-1	10	469043	160																								75	prime_left.png	0	468723	0	0	13	0	468723	0	468723	1	468723	20	0	-1	467223	468723	468722	0		TrialProc1	left	0		-999999	10	469033	0		0	0	TrialList2	target_both.png	0	dl	-1	3	468773	0	l	253	469026															7	1	30	comp			150
1 ver1_main_procedure	20	1	20	<?xml version="1.0"?>\n<Clock xmlns:dt="urn:schemas-microsoft-com:datatypes"><Description dt:dt="string">E-Prime Primary Realtime Clock</Description><StartTime><Timestamp dt:dt="int">0</Timestamp><DateUtc dt:dt="string">2015-08-12T15:37:17Z</DateUtc></StartTime><FrequencyChanges><FrequencyChange><Frequency dt:dt="r8">3418037</Frequency><Timestamp dt:dt="r8">809453599</Timestamp><Current dt:dt="r8">0</Current><DateUtc dt:dt="string">2015-08-12T15:37:17Z</DateUtc></FrequencyChange></FrequencyChanges></Clock>\n	1 ver1_main_procedure-20-1	99.876	1.0.0.880	2	kr	810107911	prawa	1	2.0.10.182	08-12-2015	2015-08-12 15:37:17	17:37:17	mezczyzna	2.0.10.92	3	4	1	1																							l	{SPACE}		no	BlockProc2		BlockList									31	Cued	l			-1	14	471415	160																			2					75	prime_right.png	1	471015	0	0	13	1	471015	1	471015	1	471014	20	0	-1	469515	471014	471013	0	prime_right.png	TrialProc1	right	0		0	11	471325	-471325		0	0	TrialList2	target_right.png	0	l	-1	3	471064	261	d	337	471401															5	1	31	neut			150
1 ver1_main_procedure	20	1	20	<?xml version="1.0"?>\n<Clock xmlns:dt="urn:schemas-microsoft-com:datatypes"><Description dt:dt="string">E-Prime Primary Realtime Clock</Description><StartTime><Timestamp dt:dt="int">0</Timestamp><DateUtc dt:dt="string">2015-08-12T15:37:17Z</DateUtc></StartTime><FrequencyChanges><FrequencyChange><Frequency dt:dt="r8">3418037</Frequency><Timestamp dt:dt="r8">809453599</Timestamp><Current dt:dt="r8">0</Current><DateUtc dt:dt="string">2015-08-12T15:37:17Z</DateUtc></FrequencyChange></FrequencyChanges></Clock>\n	1 ver1_main_procedure-20-1	99.876	1.0.0.880	2	kr	810107911	prawa	1	2.0.10.182	08-12-2015	2015-08-12 15:37:17	17:37:17	mezczyzna	2.0.10.92	3	4	1	1																							l	{SPACE}		no	BlockProc2		BlockList									32	Free	dl	color_purple.png		-1	13	473726	160																								75	prime_right.png	0	473386	0	0	13	0	473386	0	473386	1	473386	20	0	-1	471886	473386	473385	0		TrialProc1	right	0		0	10	473696	-473696		0	0	TrialList2	target_both.png	0	dl	-1	3	473436	260	l	277	473713															10	1	32	comp			150
1 ver1_main_procedure	20	1	20	<?xml version="1.0"?>\n<Clock xmlns:dt="urn:schemas-microsoft-com:datatypes"><Description dt:dt="string">E-Prime Primary Realtime Clock</Description><StartTime><Timestamp dt:dt="int">0</Timestamp><DateUtc dt:dt="string">2015-08-12T15:37:17Z</DateUtc></StartTime><FrequencyChanges><FrequencyChange><Frequency dt:dt="r8">3418037</Frequency><Timestamp dt:dt="r8">809453599</Timestamp><Current dt:dt="r8">0</Current><DateUtc dt:dt="string">2015-08-12T15:37:17Z</DateUtc></FrequencyChange></FrequencyChanges></Clock>\n	1 ver1_main_procedure-20-1	99.876	1.0.0.880	2	kr	810107911	prawa	1	2.0.10.182	08-12-2015	2015-08-12 15:37:17	17:37:17	mezczyzna	2.0.10.92	3	4	1	1																							l	{SPACE}		no	BlockProc2		BlockList									33	Free	dl	color_green.png		-1	9	476178	310																								25	prime_left.png	1	475698	0	0	13	1	475698	1	475698	1	475697	20	0	-1	474198	475697	475696	0		TrialProc1	left	0		0	11	476008	-476008		0	0	TrialList2	target_both.png	0	dl	-1	3	475747	261	d	422	476169															7	1	33	comp			300
1 ver1_main_procedure	20	1	20	<?xml version="1.0"?>\n<Clock xmlns:dt="urn:schemas-microsoft-com:datatypes"><Description dt:dt="string">E-Prime Primary Realtime Clock</Description><StartTime><Timestamp dt:dt="int">0</Timestamp><DateUtc dt:dt="string">2015-08-12T15:37:17Z</DateUtc></StartTime><FrequencyChanges><FrequencyChange><Frequency dt:dt="r8">3418037</Frequency><Timestamp dt:dt="r8">809453599</Timestamp><Current dt:dt="r8">0</Current><DateUtc dt:dt="string">2015-08-12T15:37:17Z</DateUtc></FrequencyChange></FrequencyChanges></Clock>\n	1 ver1_main_procedure-20-1	99.876	1.0.0.880	2	kr	810107911	prawa	1	2.0.10.182	08-12-2015	2015-08-12 15:37:17	17:37:17	mezczyzna	2.0.10.92	3	4	1	1																							l	{SPACE}		no	BlockProc2		BlockList									34	Free	dl	color_red.png		-1	12	478709	461																								25	prime_left.png	0	478299	0	0	13	0	478299	0	478299	1	478299	20	0	-1	476800	478299	478298	0		TrialProc1	left	0		0	10	478609	-478609		0	0	TrialList2	target_both.png	0	dl	-1	3	478349	260	l	348	478697															7	1	34	comp			450
1 ver1_main_procedure	20	1	20	<?xml version="1.0"?>\n<Clock xmlns:dt="urn:schemas-microsoft-com:datatypes"><Description dt:dt="string">E-Prime Primary Realtime Clock</Description><StartTime><Timestamp dt:dt="int">0</Timestamp><DateUtc dt:dt="string">2015-08-12T15:37:17Z</DateUtc></StartTime><FrequencyChanges><FrequencyChange><Frequency dt:dt="r8">3418037</Frequency><Timestamp dt:dt="r8">809453599</Timestamp><Current dt:dt="r8">0</Current><DateUtc dt:dt="string">2015-08-12T15:37:17Z</DateUtc></FrequencyChange></FrequencyChanges></Clock>\n	1 ver1_main_procedure-20-1	99.876	1.0.0.880	2	kr	810107911	prawa	1	2.0.10.182	08-12-2015	2015-08-12 15:37:17	17:37:17	mezczyzna	2.0.10.92	3	4	1	1																							l	{SPACE}		no	BlockProc2		BlockList									35	Free	dl	color_green.png		-1	16	481401	160																								25	prime_left.png	0	480981	0	0	13	0	480981	0	480981	1	480981	20	0	-1	479481	480981	480980	0		TrialProc1	right	0		0	10	481291	-481291		0	0	TrialList2	target_both.png	0	dl	-1	3	481031	260	d	354	481385															12	1	35	incomp			150
1 ver1_main_procedure	20	1	20	<?xml version="1.0"?>\n<Clock xmlns:dt="urn:schemas-microsoft-com:datatypes"><Description dt:dt="string">E-Prime Primary Realtime Clock</Description><StartTime><Timestamp dt:dt="int">0</Timestamp><DateUtc dt:dt="string">2015-08-12T15:37:17Z</DateUtc></StartTime><FrequencyChanges><FrequencyChange><Frequency dt:dt="r8">3418037</Frequency><Timestamp dt:dt="r8">809453599</Timestamp><Current dt:dt="r8">0</Current><DateUtc dt:dt="string">2015-08-12T15:37:17Z</DateUtc></FrequencyChange></FrequencyChanges></Clock>\n	1 ver1_main_procedure-20-1	99.876	1.0.0.880	2	kr	810107911	prawa	1	2.0.10.182	08-12-2015	2015-08-12 15:37:17	17:37:17	mezczyzna	2.0.10.92	3	4	1	1																							l	{SPACE}		no	BlockProc2		BlockList									36	Free	dl	color_red.png		-1	12	483733	310																								75	prime_left.png	0	483372	0	0	13	0	483373	0	483372	1	483372	20	0	-1	481873	483372	483371	0		TrialProc1	left	0		1	10	483682	-483682		0	0	TrialList2	target_both.png	0	dl	-1	3	483422	260	l	298	483720															7	1	36	comp			300
1 ver1_main_procedure	20	1	20	<?xml version="1.0"?>\n<Clock xmlns:dt="urn:schemas-microsoft-com:datatypes"><Description dt:dt="string">E-Prime Primary Realtime Clock</Description><StartTime><Timestamp dt:dt="int">0</Timestamp><DateUtc dt:dt="string">2015-08-12T15:37:17Z</DateUtc></StartTime><FrequencyChanges><FrequencyChange><Frequency dt:dt="r8">3418037</Frequency><Timestamp dt:dt="r8">809453599</Timestamp><Current dt:dt="r8">0</Current><DateUtc dt:dt="string">2015-08-12T15:37:17Z</DateUtc></FrequencyChange></FrequencyChanges></Clock>\n	1 ver1_main_procedure-20-1	99.876	1.0.0.880	2	kr	810107911	prawa	1	2.0.10.182	08-12-2015	2015-08-12 15:37:17	17:37:17	mezczyzna	2.0.10.92	3	4	1	1																							l	{SPACE}		no	BlockProc2		BlockList									37	Cued	d	color_orange.png		-1	9	486354	310																			1					75	prime_left.png	0	485854	0	0	13	0	485854	0	485854	1	485854	20	0	-1	484354	485854	485853	0	prime_left.png	TrialProc1	left	0		0	10	486164	-486164		0	0	TrialList2	target_left.png	1	d	-1	3	485904	260	d	440	486344															2	1	37	neut			300
1 ver1_main_procedure	20	1	20	<?xml version="1.0"?>\n<Clock xmlns:dt="urn:schemas-microsoft-com:datatypes"><Description dt:dt="string">E-Prime Primary Realtime Clock</Description><StartTime><Timestamp dt:dt="int">0</Timestamp><DateUtc dt:dt="string">2015-08-12T15:37:17Z</DateUtc></StartTime><FrequencyChanges><FrequencyChange><Frequency dt:dt="r8">3418037</Frequency><Timestamp dt:dt="r8">809453599</Timestamp><Current dt:dt="r8">0</Current><DateUtc dt:dt="string">2015-08-12T15:37:17Z</DateUtc></FrequencyChange></FrequencyChanges></Clock>\n	1 ver1_main_procedure-20-1	99.876	1.0.0.880	2	kr	810107911	prawa	1	2.0.10.182	08-12-2015	2015-08-12 15:37:17	17:37:17	mezczyzna	2.0.10.92	3	4	1	1																							l	{SPACE}		no	BlockProc2		BlockList									38	Free	dl	color_purple.png		-1	17	488826	460																								75	prime_right.png	0	488476	0	0	13	0	488476	0	488476	1	488476	20	0	-1	486976	488476	488475	0		TrialProc1	left	0		0	10	488786	-488786		0	0	TrialList2	target_both.png	0	dl	-1	3	488526	260	l	282	488808															9	1	38	incomp			450
1 ver1_main_procedure	20	1	20	<?xml version="1.0"?>\n<Clock xmlns:dt="urn:schemas-microsoft-com:datatypes"><Description dt:dt="string">E-Prime Primary Realtime Clock</Description><StartTime><Timestamp dt:dt="int">0</Timestamp><DateUtc dt:dt="string">2015-08-12T15:37:17Z</DateUtc></StartTime><FrequencyChanges><FrequencyChange><Frequency dt:dt="r8">3418037</Frequency><Timestamp dt:dt="r8">809453599</Timestamp><Current dt:dt="r8">0</Current><DateUtc dt:dt="string">2015-08-12T15:37:17Z</DateUtc></FrequencyChange></FrequencyChanges></Clock>\n	1 ver1_main_procedure-20-1	99.876	1.0.0.880	2	kr	810107911	prawa	1	2.0.10.182	08-12-2015	2015-08-12 15:37:17	17:37:17	mezczyzna	2.0.10.92	3	4	1	1																							l	{SPACE}		no	BlockProc2		BlockList									39	Free	dl	color_orange.png		-1	9	491417	461																			2					25	prime_right.png	0	491097	0	0	13	0	491098	0	491097	1	491097	20	0	-1	489598	491097	491096	0	prime_right.png	TrialProc1	left	0		-999999	10	491407	0		0	0	TrialList2	target_both.png	0	dl	-1	3	491147	0	d	253	491400															8	1	39	neut			450
1 ver1_main_procedure	20	1	20	<?xml version="1.0"?>\n<Clock xmlns:dt="urn:schemas-microsoft-com:datatypes"><Description dt:dt="string">E-Prime Primary Realtime Clock</Description><StartTime><Timestamp dt:dt="int">0</Timestamp><DateUtc dt:dt="string">2015-08-12T15:37:17Z</DateUtc></StartTime><FrequencyChanges><FrequencyChange><Frequency dt:dt="r8">3418037</Frequency><Timestamp dt:dt="r8">809453599</Timestamp><Current dt:dt="r8">0</Current><DateUtc dt:dt="string">2015-08-12T15:37:17Z</DateUtc></FrequencyChange></FrequencyChanges></Clock>\n	1 ver1_main_procedure-20-1	99.876	1.0.0.880	2	kr	810107911	prawa	1	2.0.10.182	08-12-2015	2015-08-12 15:37:17	17:37:17	mezczyzna	2.0.10.92	3	4	1	1																							l	{SPACE}		no	BlockProc2		BlockList									40	Free	dl	color_yellow.png		-1	14	493959	160																								25	prime_right.png	0	493689	0	0	13	0	493689	0	493689	1	493689	20	0	-1	492189	493689	493688	0		TrialProc1	left	0		0	0	0	0		0	0	TrialList2	target_both.png	0	dl	-999999	3	493739	0	d	205	493944															9	1	40	incomp			150
1 ver1_main_procedure	20	1	20	<?xml version="1.0"?>\n<Clock xmlns:dt="urn:schemas-microsoft-com:datatypes"><Description dt:dt="string">E-Prime Primary Realtime Clock</Description><StartTime><Timestamp dt:dt="int">0</Timestamp><DateUtc dt:dt="string">2015-08-12T15:37:17Z</DateUtc></StartTime><FrequencyChanges><FrequencyChange><Frequency dt:dt="r8">3418037</Frequency><Timestamp dt:dt="r8">809453599</Timestamp><Current dt:dt="r8">0</Current><DateUtc dt:dt="string">2015-08-12T15:37:17Z</DateUtc></FrequencyChange></FrequencyChanges></Clock>\n	1 ver1_main_procedure-20-1	99.876	1.0.0.880	2	kr	810107911	prawa	1	2.0.10.182	08-12-2015	2015-08-12 15:37:17	17:37:17	mezczyzna	2.0.10.92	3	4	1	1																							l	{SPACE}		no	BlockProc2		BlockList									41	Free	dl	color_yellow.png		-1	7	496280	161																								25	prime_right.png	0	495930	0	0	13	1	495931	1	495931	1	495930	20	0	-1	494431	495930	495929	0		TrialProc1	left	0		1	10	496240	-496240		0	0	TrialList2	target_both.png	0	dl	-1	3	495980	260	d	292	496272															9	1	41	incomp			150
1 ver1_main_procedure	20	1	20	<?xml version="1.0"?>\n<Clock xmlns:dt="urn:schemas-microsoft-com:datatypes"><Description dt:dt="string">E-Prime Primary Realtime Clock</Description><StartTime><Timestamp dt:dt="int">0</Timestamp><DateUtc dt:dt="string">2015-08-12T15:37:17Z</DateUtc></StartTime><FrequencyChanges><FrequencyChange><Frequency dt:dt="r8">3418037</Frequency><Timestamp dt:dt="r8">809453599</Timestamp><Current dt:dt="r8">0</Current><DateUtc dt:dt="string">2015-08-12T15:37:17Z</DateUtc></FrequencyChange></FrequencyChanges></Clock>\n	1 ver1_main_procedure-20-1	99.876	1.0.0.880	2	kr	810107911	prawa	1	2.0.10.182	08-12-2015	2015-08-12 15:37:17	17:37:17	mezczyzna	2.0.10.92	3	4	1	1																							l	{SPACE}		no	BlockProc2		BlockList									42	Free	dl	color_orange.png		-1	10	498572	460																			1					25	prime_left.png	0	498252	0	0	13	0	498252	0	498252	1	498252	20	0	-1	496753	498252	498251	0	prime_left.png	TrialProc1	right	0		-999999	10	498562	0		0	0	TrialList2	target_both.png	0	dl	-1	3	498302	0	d	258	498560															11	1	42	neut			450
1 ver1_main_procedure	20	1	20	<?xml version="1.0"?>\n<Clock xmlns:dt="urn:schemas-microsoft-com:datatypes"><Description dt:dt="string">E-Prime Primary Realtime Clock</Description><StartTime><Timestamp dt:dt="int">0</Timestamp><DateUtc dt:dt="string">2015-08-12T15:37:17Z</DateUtc></StartTime><FrequencyChanges><FrequencyChange><Frequency dt:dt="r8">3418037</Frequency><Timestamp dt:dt="r8">809453599</Timestamp><Current dt:dt="r8">0</Current><DateUtc dt:dt="string">2015-08-12T15:37:17Z</DateUtc></FrequencyChange></FrequencyChanges></Clock>\n	1 ver1_main_procedure-20-1	99.876	1.0.0.880	2	kr	810107911	prawa	1	2.0.10.182	08-12-2015	2015-08-12 15:37:17	17:37:17	mezczyzna	2.0.10.92	3	4	1	1																							l	{SPACE}		no	BlockProc2		BlockList									43	Free	dl	color_blue.png		-1	9	501114	310																			2					75	prime_right.png	1	500844	0	0	13	1	500844	1	500844	1	500843	20	0	-1	499344	500843	500842	0	prime_right.png	TrialProc1	left	0		0	0	0	0		0	0	TrialList2	target_both.png	0	dl	-999999	3	500893	0	l	211	501104															8	1	43	neut			300
1 ver1_main_procedure	20	1	20	<?xml version="1.0"?>\n<Clock xmlns:dt="urn:schemas-microsoft-com:datatypes"><Description dt:dt="string">E-Prime Primary Realtime Clock</Description><StartTime><Timestamp dt:dt="int">0</Timestamp><DateUtc dt:dt="string">2015-08-12T15:37:17Z</DateUtc></StartTime><FrequencyChanges><FrequencyChange><Frequency dt:dt="r8">3418037</Frequency><Timestamp dt:dt="r8">809453599</Timestamp><Current dt:dt="r8">0</Current><DateUtc dt:dt="string">2015-08-12T15:37:17Z</DateUtc></FrequencyChange></FrequencyChanges></Clock>\n	1 ver1_main_procedure-20-1	99.876	1.0.0.880	2	kr	810107911	prawa	1	2.0.10.182	08-12-2015	2015-08-12 15:37:17	17:37:17	mezczyzna	2.0.10.92	3	4	1	1																							l	{SPACE}		no	BlockProc2		BlockList									44	Free	dl	color_yellow.png		-1	12	503605	310																								75	prime_right.png	0	503235	0	0	13	0	503235	0	503235	1	503235	20	0	-1	501735	503235	503234	0		TrialProc1	left	0		0	10	503545	-503545		0	0	TrialList2	target_both.png	0	dl	-1	3	503285	260	d	307	503592															9	1	44	incomp			300
1 ver1_main_procedure	20	1	20	<?xml version="1.0"?>\n<Clock xmlns:dt="urn:schemas-microsoft-com:datatypes"><Description dt:dt="string">E-Prime Primary Realtime Clock</Description><StartTime><Timestamp dt:dt="int">0</Timestamp><DateUtc dt:dt="string">2015-08-12T15:37:17Z</DateUtc></StartTime><FrequencyChanges><FrequencyChange><Frequency dt:dt="r8">3418037</Frequency><Timestamp dt:dt="r8">809453599</Timestamp><Current dt:dt="r8">0</Current><DateUtc dt:dt="string">2015-08-12T15:37:17Z</DateUtc></FrequencyChange></FrequencyChanges></Clock>\n	1 ver1_main_procedure-20-1	99.876	1.0.0.880	2	kr	810107911	prawa	1	2.0.10.182	08-12-2015	2015-08-12 15:37:17	17:37:17	mezczyzna	2.0.10.92	3	4	1	1																							l	{SPACE}		no	BlockProc2		BlockList									45	Free	dl	color_orange.png		-1	12	506037	310																			1					75	prime_left.png	1	505727	0	0	13	1	505727	1	505727	0	505726	21	0	-1	504227	505726	505726	0	prime_left.png	TrialProc1	left	0		0	0	0	0		0	0	TrialList2	target_both.png	0	dl	-999999	3	505777	0	d	247	506024															8	1	45	neut			300
1 ver1_main_procedure	20	1	20	<?xml version="1.0"?>\n<Clock xmlns:dt="urn:schemas-microsoft-com:datatypes"><Description dt:dt="string">E-Prime Primary Realtime Clock</Description><StartTime><Timestamp dt:dt="int">0</Timestamp><DateUtc dt:dt="string">2015-08-12T15:37:17Z</DateUtc></StartTime><FrequencyChanges><FrequencyChange><Frequency dt:dt="r8">3418037</Frequency><Timestamp dt:dt="r8">809453599</Timestamp><Current dt:dt="r8">0</Current><DateUtc dt:dt="string">2015-08-12T15:37:17Z</DateUtc></FrequencyChange></FrequencyChanges></Clock>\n	1 ver1_main_procedure-20-1	99.876	1.0.0.880	2	kr	810107911	prawa	1	2.0.10.182	08-12-2015	2015-08-12 15:37:17	17:37:17	mezczyzna	2.0.10.92	3	4	1	1																							l	{SPACE}		no	BlockProc2		BlockList									46	Free	dl	color_purple.png		-1	15	508568	461																								25	prime_right.png	0	508158	0	0	13	0	508158	0	508158	1	508158	20	0	-1	506659	508158	508157	0		TrialProc1	left	0		0	10	508468	-508468		0	0	TrialList2	target_both.png	0	dl	-1	3	508208	260	l	344	508552															9	1	46	incomp			450
1 ver1_main_procedure	20	1	20	<?xml version="1.0"?>\n<Clock xmlns:dt="urn:schemas-microsoft-com:datatypes"><Description dt:dt="string">E-Prime Primary Realtime Clock</Description><StartTime><Timestamp dt:dt="int">0</Timestamp><DateUtc dt:dt="string">2015-08-12T15:37:17Z</DateUtc></StartTime><FrequencyChanges><FrequencyChange><Frequency dt:dt="r8">3418037</Frequency><Timestamp dt:dt="r8">809453599</Timestamp><Current dt:dt="r8">0</Current><DateUtc dt:dt="string">2015-08-12T15:37:17Z</DateUtc></FrequencyChange></FrequencyChanges></Clock>\n	1 ver1_main_procedure-20-1	99.876	1.0.0.880	2	kr	810107911	prawa	1	2.0.10.182	08-12-2015	2015-08-12 15:37:17	17:37:17	mezczyzna	2.0.10.92	3	4	1	1																							l	{SPACE}		no	BlockProc2		BlockList									47	Cued	l	color_purple.png		-1	11	511260	460																								25	prime_right.png	0	510840	0	0	13	0	510840	0	510840	1	510840	20	0	-1	509340	510840	510839	0		TrialProc1	right	0		0	10	511150	-511150		0	0	TrialList2	target_right.png	1	l	-1	3	510890	260	l	358	511248															4	1	47	comp			450
1 ver1_main_procedure	20	1	20	<?xml version="1.0"?>\n<Clock xmlns:dt="urn:schemas-microsoft-com:datatypes"><Description dt:dt="string">E-Prime Primary Realtime Clock</Description><StartTime><Timestamp dt:dt="int">0</Timestamp><DateUtc dt:dt="string">2015-08-12T15:37:17Z</DateUtc></StartTime><FrequencyChanges><FrequencyChange><Frequency dt:dt="r8">3418037</Frequency><Timestamp dt:dt="r8">809453599</Timestamp><Current dt:dt="r8">0</Current><DateUtc dt:dt="string">2015-08-12T15:37:17Z</DateUtc></FrequencyChange></FrequencyChanges></Clock>\n	1 ver1_main_procedure-20-1	99.876	1.0.0.880	2	kr	810107911	prawa	1	2.0.10.182	08-12-2015	2015-08-12 15:37:17	17:37:17	mezczyzna	2.0.10.92	3	4	1	1																							l	{SPACE}		no	BlockProc2		BlockList									48	Free	dl	color_green.png		-1	10	513852	310																								75	prime_left.png	1	513532	0	0	13	1	513532	1	513532	0	513531	21	0	-1	512032	513531	513531	0		TrialProc1	left	0		-999999	10	513842	0		0	0	TrialList2	target_both.png	0	dl	-1	3	513582	0	d	258	513840															7	1	48	comp			300
1 ver1_main_procedure	20	1	20	<?xml version="1.0"?>\n<Clock xmlns:dt="urn:schemas-microsoft-com:datatypes"><Description dt:dt="string">E-Prime Primary Realtime Clock</Description><StartTime><Timestamp dt:dt="int">0</Timestamp><DateUtc dt:dt="string">2015-08-12T15:37:17Z</DateUtc></StartTime><FrequencyChanges><FrequencyChange><Frequency dt:dt="r8">3418037</Frequency><Timestamp dt:dt="r8">809453599</Timestamp><Current dt:dt="r8">0</Current><DateUtc dt:dt="string">2015-08-12T15:37:17Z</DateUtc></FrequencyChange></FrequencyChanges></Clock>\n	1 ver1_main_procedure-20-1	99.876	1.0.0.880	2	kr	810107911	prawa	1	2.0.10.182	08-12-2015	2015-08-12 15:37:17	17:37:17	mezczyzna	2.0.10.92	3	4	1	1																							l	{SPACE}		no	BlockProc2		BlockList									49	Free	dl	color_purple.png		-1	16	516393	160																								25	prime_right.png	0	515973	0	0	13	0	515973	0	515973	1	515973	20	0	-1	514474	515973	515972	0		TrialProc1	right	0		0	10	516283	-516283		0	0	TrialList2	target_both.png	0	dl	-1	3	516023	260	l	353	516376															10	1	49	comp			150
1 ver1_main_procedure	20	1	20	<?xml version="1.0"?>\n<Clock xmlns:dt="urn:schemas-microsoft-com:datatypes"><Description dt:dt="string">E-Prime Primary Realtime Clock</Description><StartTime><Timestamp dt:dt="int">0</Timestamp><DateUtc dt:dt="string">2015-08-12T15:37:17Z</DateUtc></StartTime><FrequencyChanges><FrequencyChange><Frequency dt:dt="r8">3418037</Frequency><Timestamp dt:dt="r8">809453599</Timestamp><Current dt:dt="r8">0</Current><DateUtc dt:dt="string">2015-08-12T15:37:17Z</DateUtc></FrequencyChange></FrequencyChanges></Clock>\n	1 ver1_main_procedure-20-1	99.876	1.0.0.880	2	kr	810107911	prawa	1	2.0.10.182	08-12-2015	2015-08-12 15:37:17	17:37:17	mezczyzna	2.0.10.92	3	4	1	1																							l	{SPACE}		no	BlockProc2		BlockList									50	Free	dl	color_green.png		-1	19	518795	160																								75	prime_left.png	0	518365	0	0	13	0	518365	0	518365	1	518365	20	0	-1	516865	518365	518364	0		TrialProc1	left	0		0	10	518675	-518675		0	0	TrialList2	target_both.png	0	dl	-1	3	518415	260	d	361	518776															7	1	50	comp			150
1 ver1_main_procedure	20	1	20	<?xml version="1.0"?>\n<Clock xmlns:dt="urn:schemas-microsoft-com:datatypes"><Description dt:dt="string">E-Prime Primary Realtime Clock</Description><StartTime><Timestamp dt:dt="int">0</Timestamp><DateUtc dt:dt="string">2015-08-12T15:37:17Z</DateUtc></StartTime><FrequencyChanges><FrequencyChange><Frequency dt:dt="r8">3418037</Frequency><Timestamp dt:dt="r8">809453599</Timestamp><Current dt:dt="r8">0</Current><DateUtc dt:dt="string">2015-08-12T15:37:17Z</DateUtc></FrequencyChange></FrequencyChanges></Clock>\n	1 ver1_main_procedure-20-1	99.876	1.0.0.880	2	kr	810107911	prawa	1	2.0.10.182	08-12-2015	2015-08-12 15:37:17	17:37:17	mezczyzna	2.0.10.92	3	4	1	1																							l	{SPACE}		no	BlockProc2		BlockList									51	Free	dl	color_yellow.png		-1	10	521186	311																								75	prime_right.png	0	520766	0	0	13	0	520766	0	520766	1	520766	20	0	-1	519267	520766	520765	0		TrialProc1	left	0		0	10	521076	-521076		0	0	TrialList2	target_both.png	0	dl	-1	3	520816	260	d	360	521176															9	1	51	incomp			300
1 ver1_main_procedure	20	1	20	<?xml version="1.0"?>\n<Clock xmlns:dt="urn:schemas-microsoft-com:datatypes"><Description dt:dt="string">E-Prime Primary Realtime Clock</Description><StartTime><Timestamp dt:dt="int">0</Timestamp><DateUtc dt:dt="string">2015-08-12T15:37:17Z</DateUtc></StartTime><FrequencyChanges><FrequencyChange><Frequency dt:dt="r8">3418037</Frequency><Timestamp dt:dt="r8">809453599</Timestamp><Current dt:dt="r8">0</Current><DateUtc dt:dt="string">2015-08-12T15:37:17Z</DateUtc></FrequencyChange></FrequencyChanges></Clock>\n	1 ver1_main_procedure-20-1	99.876	1.0.0.880	2	kr	810107911	prawa	1	2.0.10.182	08-12-2015	2015-08-12 15:37:17	17:37:17	mezczyzna	2.0.10.92	3	4	1	1																							l	{SPACE}		no	BlockProc2		BlockList									52	Cued	l	color_blue.png		-1	16	523648	160																			2					75	prime_right.png	0	523308	0	0	13	0	523308	0	523308	1	523308	20	0	-1	521808	523308	523307	0	prime_right.png	TrialProc1	right	0		0	10	523618	-523618		0	0	TrialList2	target_right.png	1	l	-1	3	523358	260	l	274	523632															5	1	52	neut			150
1 ver1_main_procedure	20	1	20	<?xml version="1.0"?>\n<Clock xmlns:dt="urn:schemas-microsoft-com:datatypes"><Description dt:dt="string">E-Prime Primary Realtime Clock</Description><StartTime><Timestamp dt:dt="int">0</Timestamp><DateUtc dt:dt="string">2015-08-12T15:37:17Z</DateUtc></StartTime><FrequencyChanges><FrequencyChange><Frequency dt:dt="r8">3418037</Frequency><Timestamp dt:dt="r8">809453599</Timestamp><Current dt:dt="r8">0</Current><DateUtc dt:dt="string">2015-08-12T15:37:17Z</DateUtc></FrequencyChange></FrequencyChanges></Clock>\n	1 ver1_main_procedure-20-1	99.876	1.0.0.880	2	kr	810107911	prawa	1	2.0.10.182	08-12-2015	2015-08-12 15:37:17	17:37:17	mezczyzna	2.0.10.92	3	4	1	1																							l	{SPACE}		no	BlockProc2		BlockList									53	Free	dl	color_green.png		-1	9	526170	160																								25	prime_left.png	0	525619	0	0	13	0	525619	0	525619	1	525619	20	0	-1	524120	525619	525618	0		TrialProc1	left	0		1	10	525929	-525929		0	0	TrialList2	target_both.png	0	dl	-1	3	525669	260	d	491	526160															7	1	53	comp			150
1 ver1_main_procedure	20	1	20	<?xml version="1.0"?>\n<Clock xmlns:dt="urn:schemas-microsoft-com:datatypes"><Description dt:dt="string">E-Prime Primary Realtime Clock</Description><StartTime><Timestamp dt:dt="int">0</Timestamp><DateUtc dt:dt="string">2015-08-12T15:37:17Z</DateUtc></StartTime><FrequencyChanges><FrequencyChange><Frequency dt:dt="r8">3418037</Frequency><Timestamp dt:dt="r8">809453599</Timestamp><Current dt:dt="r8">0</Current><DateUtc dt:dt="string">2015-08-12T15:37:17Z</DateUtc></FrequencyChange></FrequencyChanges></Clock>\n	1 ver1_main_procedure-20-1	99.876	1.0.0.880	2	kr	810107911	prawa	1	2.0.10.182	08-12-2015	2015-08-12 15:37:17	17:37:17	mezczyzna	2.0.10.92	3	4	1	1																							l	{SPACE}		no	BlockProc2		BlockList									54	Free	dl	color_blue.png		-1	17	528481	310																			1					75	prime_left.png	0	528141	0	0	13	0	528141	0	528141	1	528141	20	0	-1	526641	528141	528140	0	prime_left.png	TrialProc1	left	0		0	10	528451	-528451		0	0	TrialList2	target_both.png	0	dl	-1	3	528191	260	l	273	528464															8	1	54	neut			300
1 ver1_main_procedure	20	1	20	<?xml version="1.0"?>\n<Clock xmlns:dt="urn:schemas-microsoft-com:datatypes"><Description dt:dt="string">E-Prime Primary Realtime Clock</Description><StartTime><Timestamp dt:dt="int">0</Timestamp><DateUtc dt:dt="string">2015-08-12T15:37:17Z</DateUtc></StartTime><FrequencyChanges><FrequencyChange><Frequency dt:dt="r8">3418037</Frequency><Timestamp dt:dt="r8">809453599</Timestamp><Current dt:dt="r8">0</Current><DateUtc dt:dt="string">2015-08-12T15:37:17Z</DateUtc></FrequencyChange></FrequencyChanges></Clock>\n	1 ver1_main_procedure-20-1	99.876	1.0.0.880	2	kr	810107911	prawa	1	2.0.10.182	08-12-2015	2015-08-12 15:37:17	17:37:17	mezczyzna	2.0.10.92	3	4	1	1																							l	{SPACE}		no	BlockProc2		BlockList									55	Free	dl	color_green.png		-1	10	530923	460																								75	prime_left.png	0	530602	0	0	13	1	530603	1	530603	1	530602	20	0	-1	529103	530602	530601	0		TrialProc1	right	0		-999999	11	530913	0		0	0	TrialList2	target_both.png	0	dl	-1	3	530652	0	d	252	530904															12	1	55	incomp			450
1 ver1_main_procedure	20	1	20	<?xml version="1.0"?>\n<Clock xmlns:dt="urn:schemas-microsoft-com:datatypes"><Description dt:dt="string">E-Prime Primary Realtime Clock</Description><StartTime><Timestamp dt:dt="int">0</Timestamp><DateUtc dt:dt="string">2015-08-12T15:37:17Z</DateUtc></StartTime><FrequencyChanges><FrequencyChange><Frequency dt:dt="r8">3418037</Frequency><Timestamp dt:dt="r8">809453599</Timestamp><Current dt:dt="r8">0</Current><DateUtc dt:dt="string">2015-08-12T15:37:17Z</DateUtc></FrequencyChange></FrequencyChanges></Clock>\n	1 ver1_main_procedure-20-1	99.876	1.0.0.880	2	kr	810107911	prawa	1	2.0.10.182	08-12-2015	2015-08-12 15:37:17	17:37:17	mezczyzna	2.0.10.92	3	4	1	1																							l	{SPACE}		no	BlockProc2		BlockList									56	Cued	d			-1	12	533524	160																			2					75	prime_right.png	0	533194	0	0	13	0	533194	0	533194	1	533194	20	0	-1	531695	533194	533193	0	prime_right.png	TrialProc1	left	0		0	10	533504	-533504		0	0	TrialList2	target_left.png	0	d	-1	3	533244	260	l	268	533512															2	1	56	neut			150
1 ver1_main_procedure	20	1	20	<?xml version="1.0"?>\n<Clock xmlns:dt="urn:schemas-microsoft-com:datatypes"><Description dt:dt="string">E-Prime Primary Realtime Clock</Description><StartTime><Timestamp dt:dt="int">0</Timestamp><DateUtc dt:dt="string">2015-08-12T15:37:17Z</DateUtc></StartTime><FrequencyChanges><FrequencyChange><Frequency dt:dt="r8">3418037</Frequency><Timestamp dt:dt="r8">809453599</Timestamp><Current dt:dt="r8">0</Current><DateUtc dt:dt="string">2015-08-12T15:37:17Z</DateUtc></FrequencyChange></FrequencyChanges></Clock>\n	1 ver1_main_procedure-20-1	99.876	1.0.0.880	2	kr	810107911	prawa	1	2.0.10.182	08-12-2015	2015-08-12 15:37:17	17:37:17	mezczyzna	2.0.10.92	3	4	1	1																							l	{SPACE}		no	BlockProc2		BlockList									57	Free	dl	color_purple.png		-1	8	536016	460																								75	prime_right.png	1	535496	0	0	13	1	535496	1	535496	0	535495	20	0	-1	533996	535495	535495	0		TrialProc1	right	0		0	10	535806	-535806		0	0	TrialList2	target_both.png	0	dl	-1	4	535546	260	l	461	536007															10	1	57	comp			450
1 ver1_main_procedure	20	1	20	<?xml version="1.0"?>\n<Clock xmlns:dt="urn:schemas-microsoft-com:datatypes"><Description dt:dt="string">E-Prime Primary Realtime Clock</Description><StartTime><Timestamp dt:dt="int">0</Timestamp><DateUtc dt:dt="string">2015-08-12T15:37:17Z</DateUtc></StartTime><FrequencyChanges><FrequencyChange><Frequency dt:dt="r8">3418037</Frequency><Timestamp dt:dt="r8">809453599</Timestamp><Current dt:dt="r8">0</Current><DateUtc dt:dt="string">2015-08-12T15:37:17Z</DateUtc></FrequencyChange></FrequencyChanges></Clock>\n	1 ver1_main_procedure-20-1	99.876	1.0.0.880	2	kr	810107911	prawa	1	2.0.10.182	08-12-2015	2015-08-12 15:37:17	17:37:17	mezczyzna	2.0.10.92	3	4	1	1																							l	{SPACE}		no	BlockProc2		BlockList									58	Free	dl	color_green.png		-1	11	538547	161																								75	prime_left.png	0	538287	0	0	13	0	538288	0	538287	1	538287	20	0	-1	536788	538287	538286	0		TrialProc1	right	0		0	0	0	0		0	0	TrialList2	target_both.png	0	dl	-999999	3	538337	0	d	198	538535															12	1	58	incomp			150
1 ver1_main_procedure	20	1	20	<?xml version="1.0"?>\n<Clock xmlns:dt="urn:schemas-microsoft-com:datatypes"><Description dt:dt="string">E-Prime Primary Realtime Clock</Description><StartTime><Timestamp dt:dt="int">0</Timestamp><DateUtc dt:dt="string">2015-08-12T15:37:17Z</DateUtc></StartTime><FrequencyChanges><FrequencyChange><Frequency dt:dt="r8">3418037</Frequency><Timestamp dt:dt="r8">809453599</Timestamp><Current dt:dt="r8">0</Current><DateUtc dt:dt="string">2015-08-12T15:37:17Z</DateUtc></FrequencyChange></FrequencyChanges></Clock>\n	1 ver1_main_procedure-20-1	99.876	1.0.0.880	2	kr	810107911	prawa	1	2.0.10.182	08-12-2015	2015-08-12 15:37:17	17:37:17	mezczyzna	2.0.10.92	3	4	1	1																							l	{SPACE}		no	BlockProc2		BlockList									59	Cued	d	color_green.png		-1	9	540889	460																								25	prime_left.png	0	540519	0	0	13	0	540519	0	540519	1	540519	20	0	-1	539019	540519	540518	0		TrialProc1	left	0		0	10	540829	-540829		0	0	TrialList2	target_left.png	1	d	-1	3	540569	260	d	310	540879															1	1	59	comp			450
1 ver1_main_procedure	20	1	20	<?xml version="1.0"?>\n<Clock xmlns:dt="urn:schemas-microsoft-com:datatypes"><Description dt:dt="string">E-Prime Primary Realtime Clock</Description><StartTime><Timestamp dt:dt="int">0</Timestamp><DateUtc dt:dt="string">2015-08-12T15:37:17Z</DateUtc></StartTime><FrequencyChanges><FrequencyChange><Frequency dt:dt="r8">3418037</Frequency><Timestamp dt:dt="r8">809453599</Timestamp><Current dt:dt="r8">0</Current><DateUtc dt:dt="string">2015-08-12T15:37:17Z</DateUtc></FrequencyChange></FrequencyChanges></Clock>\n	1 ver1_main_procedure-20-1	99.876	1.0.0.880	2	kr	810107911	prawa	1	2.0.10.182	08-12-2015	2015-08-12 15:37:17	17:37:17	mezczyzna	2.0.10.92	3	4	1	1																							l	{SPACE}		no	BlockProc2		BlockList									60	Free	dl	color_green.png		-1	11	543451	460																								25	prime_left.png	1	543161	0	0	13	1	543161	1	543161	1	543160	20	0	-1	541661	543160	543159	0		TrialProc1	left	0		0	0	0	0		0	0	TrialList2	target_both.png	0	dl	-999999	3	543210	0	d	229	543439															7	1	60	comp			450
1 ver1_main_procedure	20	1	20	<?xml version="1.0"?>\n<Clock xmlns:dt="urn:schemas-microsoft-com:datatypes"><Description dt:dt="string">E-Prime Primary Realtime Clock</Description><StartTime><Timestamp dt:dt="int">0</Timestamp><DateUtc dt:dt="string">2015-08-12T15:37:17Z</DateUtc></StartTime><FrequencyChanges><FrequencyChange><Frequency dt:dt="r8">3418037</Frequency><Timestamp dt:dt="r8">809453599</Timestamp><Current dt:dt="r8">0</Current><DateUtc dt:dt="string">2015-08-12T15:37:17Z</DateUtc></FrequencyChange></FrequencyChanges></Clock>\n	1 ver1_main_procedure-20-1	99.876	1.0.0.880	2	kr	810107911	prawa	1	2.0.10.182	08-12-2015	2015-08-12 15:37:17	17:37:17	mezczyzna	2.0.10.92	3	4	1	1																							l	{SPACE}		no	BlockProc2		BlockList									61	Cued	d	color_green.png		-1	14	546022	460																								75	prime_left.png	0	545722	0	0	13	0	545722	0	545722	1	545722	20	0	-1	544223	545722	545721	0		TrialProc1	left	0		0	0	0	0		0	0	TrialList2	target_left.png	1	d	-999999	3	545772	0	d	235	546007															1	1	61	comp			450
1 ver1_main_procedure	20	1	20	<?xml version="1.0"?>\n<Clock xmlns:dt="urn:schemas-microsoft-com:datatypes"><Description dt:dt="string">E-Prime Primary Realtime Clock</Description><StartTime><Timestamp dt:dt="int">0</Timestamp><DateUtc dt:dt="string">2015-08-12T15:37:17Z</DateUtc></StartTime><FrequencyChanges><FrequencyChange><Frequency dt:dt="r8">3418037</Frequency><Timestamp dt:dt="r8">809453599</Timestamp><Current dt:dt="r8">0</Current><DateUtc dt:dt="string">2015-08-12T15:37:17Z</DateUtc></FrequencyChange></FrequencyChanges></Clock>\n	1 ver1_main_procedure-20-1	99.876	1.0.0.880	2	kr	810107911	prawa	1	2.0.10.182	08-12-2015	2015-08-12 15:37:17	17:37:17	mezczyzna	2.0.10.92	3	4	1	1																							l	{SPACE}		no	BlockProc2		BlockList									62	Cued	l			-1	10	548614	160																								75	prime_left.png	0	548294	0	0	13	0	548294	0	548294	1	548294	20	0	-1	546794	548294	548293	0		TrialProc1	right	0		-999999	10	548604	0		0	0	TrialList2	target_right.png	0	l	-1	3	548344	0	d	255	548599															6	1	62	incomp			150
1 ver1_main_procedure	20	1	20	<?xml version="1.0"?>\n<Clock xmlns:dt="urn:schemas-microsoft-com:datatypes"><Description dt:dt="string">E-Prime Primary Realtime Clock</Description><StartTime><Timestamp dt:dt="int">0</Timestamp><DateUtc dt:dt="string">2015-08-12T15:37:17Z</DateUtc></StartTime><FrequencyChanges><FrequencyChange><Frequency dt:dt="r8">3418037</Frequency><Timestamp dt:dt="r8">809453599</Timestamp><Current dt:dt="r8">0</Current><DateUtc dt:dt="string">2015-08-12T15:37:17Z</DateUtc></FrequencyChange></FrequencyChanges></Clock>\n	1 ver1_main_procedure-20-1	99.876	1.0.0.880	2	kr	810107911	prawa	1	2.0.10.182	08-12-2015	2015-08-12 15:37:17	17:37:17	mezczyzna	2.0.10.92	3	4	1	1																							l	{SPACE}		no	BlockProc2		BlockList									63	Cued	d	color_yellow.png		-1	11	550955	311																								75	prime_right.png	0	550585	0	0	13	0	550585	0	550585	1	550585	20	0	-1	549086	550585	550584	0		TrialProc1	left	0		1	10	550895	-550895		0	0	TrialList2	target_left.png	1	d	-1	3	550635	260	d	308	550943															3	1	63	incomp			300
1 ver1_main_procedure	20	1	20	<?xml version="1.0"?>\n<Clock xmlns:dt="urn:schemas-microsoft-com:datatypes"><Description dt:dt="string">E-Prime Primary Realtime Clock</Description><StartTime><Timestamp dt:dt="int">0</Timestamp><DateUtc dt:dt="string">2015-08-12T15:37:17Z</DateUtc></StartTime><FrequencyChanges><FrequencyChange><Frequency dt:dt="r8">3418037</Frequency><Timestamp dt:dt="r8">809453599</Timestamp><Current dt:dt="r8">0</Current><DateUtc dt:dt="string">2015-08-12T15:37:17Z</DateUtc></FrequencyChange></FrequencyChanges></Clock>\n	1 ver1_main_procedure-20-1	99.876	1.0.0.880	2	kr	810107911	prawa	1	2.0.10.182	08-12-2015	2015-08-12 15:37:17	17:37:17	mezczyzna	2.0.10.92	3	4	1	1																							l	{SPACE}		no	BlockProc2		BlockList									64	Free	dl	color_purple.png		-1	11	553507	310																								25	prime_right.png	0	553077	0	0	13	0	553077	0	553077	1	553077	20	0	-1	551577	553077	553076	0		TrialProc1	left	0		0	10	553387	-553387		0	0	TrialList2	target_both.png	0	dl	-1	3	553127	260	l	368	553495															9	1	64	incomp			300
1 ver1_main_procedure	20	1	20	<?xml version="1.0"?>\n<Clock xmlns:dt="urn:schemas-microsoft-com:datatypes"><Description dt:dt="string">E-Prime Primary Realtime Clock</Description><StartTime><Timestamp dt:dt="int">0</Timestamp><DateUtc dt:dt="string">2015-08-12T15:37:17Z</DateUtc></StartTime><FrequencyChanges><FrequencyChange><Frequency dt:dt="r8">3418037</Frequency><Timestamp dt:dt="r8">809453599</Timestamp><Current dt:dt="r8">0</Current><DateUtc dt:dt="string">2015-08-12T15:37:17Z</DateUtc></FrequencyChange></FrequencyChanges></Clock>\n	1 ver1_main_procedure-20-1	99.876	1.0.0.880	2	kr	810107911	prawa	1	2.0.10.182	08-12-2015	2015-08-12 15:37:17	17:37:17	mezczyzna	2.0.10.92	3	4	1	1																							l	{SPACE}		no	BlockProc2		BlockList									65	Free	dl	color_orange.png		-1	17	555969	460																			1					25	prime_left.png	0	555628	0	0	13	1	555629	1	555629	1	555628	20	0	-1	554129	555628	555627	0	prime_left.png	TrialProc1	left	0		0	11	555939	-555939		0	0	TrialList2	target_both.png	0	dl	-1	3	555678	261	d	273	555951															8	1	65	neut			450
1 ver1_main_procedure	20	1	20	<?xml version="1.0"?>\n<Clock xmlns:dt="urn:schemas-microsoft-com:datatypes"><Description dt:dt="string">E-Prime Primary Realtime Clock</Description><StartTime><Timestamp dt:dt="int">0</Timestamp><DateUtc dt:dt="string">2015-08-12T15:37:17Z</DateUtc></StartTime><FrequencyChanges><FrequencyChange><Frequency dt:dt="r8">3418037</Frequency><Timestamp dt:dt="r8">809453599</Timestamp><Current dt:dt="r8">0</Current><DateUtc dt:dt="string">2015-08-12T15:37:17Z</DateUtc></FrequencyChange></FrequencyChanges></Clock>\n	1 ver1_main_procedure-20-1	99.876	1.0.0.880	2	kr	810107911	prawa	1	2.0.10.182	08-12-2015	2015-08-12 15:37:17	17:37:17	mezczyzna	2.0.10.92	3	4	1	1																							l	{SPACE}		no	BlockProc2		BlockList									66	Free	dl	color_orange.png		-1	10	558610	461																			2					75	prime_right.png	0	558240	0	0	13	0	558240	0	558240	1	558240	20	0	-1	556740	558240	558239	0	prime_right.png	TrialProc1	right	0		0	10	558550	-558550		0	0	TrialList2	target_both.png	0	dl	-1	3	558290	260	d	309	558599															11	1	66	neut			450
1 ver1_main_procedure	20	1	20	<?xml version="1.0"?>\n<Clock xmlns:dt="urn:schemas-microsoft-com:datatypes"><Description dt:dt="string">E-Prime Primary Realtime Clock</Description><StartTime><Timestamp dt:dt="int">0</Timestamp><DateUtc dt:dt="string">2015-08-12T15:37:17Z</DateUtc></StartTime><FrequencyChanges><FrequencyChange><Frequency dt:dt="r8">3418037</Frequency><Timestamp dt:dt="r8">809453599</Timestamp><Current dt:dt="r8">0</Current><DateUtc dt:dt="string">2015-08-12T15:37:17Z</DateUtc></FrequencyChange></FrequencyChanges></Clock>\n	1 ver1_main_procedure-20-1	99.876	1.0.0.880	2	kr	810107911	prawa	1	2.0.10.182	08-12-2015	2015-08-12 15:37:17	17:37:17	mezczyzna	2.0.10.92	3	4	1	1																							l	{SPACE}		no	BlockProc2		BlockList									67	Cued	l			-1	12	561332	310																			1					75	prime_left.png	0	560882	0	0	13	0	560882	0	560882	1	560882	20	0	-1	559382	560882	560881	0	prime_left.png	TrialProc1	right	0		0	10	561192	-561192		0	0	TrialList2	target_right.png	0	l	-1	3	560932	260	d	387	561319															5	1	67	neut			300
1 ver1_main_procedure	20	1	20	<?xml version="1.0"?>\n<Clock xmlns:dt="urn:schemas-microsoft-com:datatypes"><Description dt:dt="string">E-Prime Primary Realtime Clock</Description><StartTime><Timestamp dt:dt="int">0</Timestamp><DateUtc dt:dt="string">2015-08-12T15:37:17Z</DateUtc></StartTime><FrequencyChanges><FrequencyChange><Frequency dt:dt="r8">3418037</Frequency><Timestamp dt:dt="r8">809453599</Timestamp><Current dt:dt="r8">0</Current><DateUtc dt:dt="string">2015-08-12T15:37:17Z</DateUtc></FrequencyChange></FrequencyChanges></Clock>\n	1 ver1_main_procedure-20-1	99.876	1.0.0.880	2	kr	810107911	prawa	1	2.0.10.182	08-12-2015	2015-08-12 15:37:17	17:37:17	mezczyzna	2.0.10.92	3	4	1	1																							l	{SPACE}		no	BlockProc2		BlockList									68	Cued	d	color_green.png		-1	12	563964	160																								25	prime_left.png	0	563453	0	0	13	1	563454	1	563454	1	563453	20	0	-1	561954	563453	563452	0		TrialProc1	left	0		0	11	563764	-563764		0	0	TrialList2	target_left.png	1	d	-1	3	563503	261	d	448	563951															1	1	68	comp			150
1 ver1_main_procedure	20	1	20	<?xml version="1.0"?>\n<Clock xmlns:dt="urn:schemas-microsoft-com:datatypes"><Description dt:dt="string">E-Prime Primary Realtime Clock</Description><StartTime><Timestamp dt:dt="int">0</Timestamp><DateUtc dt:dt="string">2015-08-12T15:37:17Z</DateUtc></StartTime><FrequencyChanges><FrequencyChange><Frequency dt:dt="r8">3418037</Frequency><Timestamp dt:dt="r8">809453599</Timestamp><Current dt:dt="r8">0</Current><DateUtc dt:dt="string">2015-08-12T15:37:17Z</DateUtc></FrequencyChange></FrequencyChanges></Clock>\n	1 ver1_main_procedure-20-1	99.876	1.0.0.880	2	kr	810107911	prawa	1	2.0.10.182	08-12-2015	2015-08-12 15:37:17	17:37:17	mezczyzna	2.0.10.92	3	4	1	1																							l	{SPACE}		no	BlockProc2		BlockList									69	Free	dl	color_yellow.png		-1	7	566335	310																								75	prime_right.png	0	565935	0	0	13	0	565935	0	565935	1	565935	20	0	-1	564436	565935	565934	0		TrialProc1	right	0		0	10	566245	-566245		0	0	TrialList2	target_both.png	0	dl	-1	3	565985	260	d	342	566327															10	1	69	comp			300
1 ver1_main_procedure	20	1	20	<?xml version="1.0"?>\n<Clock xmlns:dt="urn:schemas-microsoft-com:datatypes"><Description dt:dt="string">E-Prime Primary Realtime Clock</Description><StartTime><Timestamp dt:dt="int">0</Timestamp><DateUtc dt:dt="string">2015-08-12T15:37:17Z</DateUtc></StartTime><FrequencyChanges><FrequencyChange><Frequency dt:dt="r8">3418037</Frequency><Timestamp dt:dt="r8">809453599</Timestamp><Current dt:dt="r8">0</Current><DateUtc dt:dt="string">2015-08-12T15:37:17Z</DateUtc></FrequencyChange></FrequencyChanges></Clock>\n	1 ver1_main_procedure-20-1	99.876	1.0.0.880	2	kr	810107911	prawa	1	2.0.10.182	08-12-2015	2015-08-12 15:37:17	17:37:17	mezczyzna	2.0.10.92	3	4	1	1																							l	{SPACE}		no	BlockProc2		BlockList									70	Free	dl	color_yellow.png		-1	13	568877	160																								75	prime_right.png	1	568457	0	0	13	1	568457	1	568457	0	568456	20	0	-1	566957	568456	568456	0		TrialProc1	left	0		0	10	568767	-568767		0	0	TrialList2	target_both.png	0	dl	-1	4	568507	260	d	356	568863															9	1	70	incomp			150
1 ver1_main_procedure	20	1	20	<?xml version="1.0"?>\n<Clock xmlns:dt="urn:schemas-microsoft-com:datatypes"><Description dt:dt="string">E-Prime Primary Realtime Clock</Description><StartTime><Timestamp dt:dt="int">0</Timestamp><DateUtc dt:dt="string">2015-08-12T15:37:17Z</DateUtc></StartTime><FrequencyChanges><FrequencyChange><Frequency dt:dt="r8">3418037</Frequency><Timestamp dt:dt="r8">809453599</Timestamp><Current dt:dt="r8">0</Current><DateUtc dt:dt="string">2015-08-12T15:37:17Z</DateUtc></FrequencyChange></FrequencyChanges></Clock>\n	1 ver1_main_procedure-20-1	99.876	1.0.0.880	2	kr	810107911	prawa	1	2.0.10.182	08-12-2015	2015-08-12 15:37:17	17:37:17	mezczyzna	2.0.10.92	3	4	1	1																							l	{SPACE}		no	BlockProc2		BlockList									71	Free	dl	color_blue.png		-1	8	571248	310																			2					75	prime_right.png	0	570848	0	0	13	0	570848	0	570848	1	570848	20	0	-1	569349	570848	570847	0	prime_right.png	TrialProc1	right	0		0	10	571158	-571158		0	0	TrialList2	target_both.png	0	dl	-1	3	570898	260	l	341	571239															11	1	71	neut			300
1 ver1_main_procedure	20	1	20	<?xml version="1.0"?>\n<Clock xmlns:dt="urn:schemas-microsoft-com:datatypes"><Description dt:dt="string">E-Prime Primary Realtime Clock</Description><StartTime><Timestamp dt:dt="int">0</Timestamp><DateUtc dt:dt="string">2015-08-12T15:37:17Z</DateUtc></StartTime><FrequencyChanges><FrequencyChange><Frequency dt:dt="r8">3418037</Frequency><Timestamp dt:dt="r8">809453599</Timestamp><Current dt:dt="r8">0</Current><DateUtc dt:dt="string">2015-08-12T15:37:17Z</DateUtc></FrequencyChange></FrequencyChanges></Clock>\n	1 ver1_main_procedure-20-1	99.876	1.0.0.880	2	kr	810107911	prawa	1	2.0.10.182	08-12-2015	2015-08-12 15:37:17	17:37:17	mezczyzna	2.0.10.92	3	4	1	1																							l	{SPACE}		no	BlockProc2		BlockList									72	Cued	l			-1	10	573770	160																								25	prime_left.png	0	573370	0	0	13	0	573370	0	573370	1	573370	20	0	-1	571870	573370	573369	0		TrialProc1	right	0		0	10	573680	-573680		0	0	TrialList2	target_right.png	0	l	-1	3	573420	260	d	339	573759															6	1	72	incomp			150
1 ver1_main_procedure	20	1	20	<?xml version="1.0"?>\n<Clock xmlns:dt="urn:schemas-microsoft-com:datatypes"><Description dt:dt="string">E-Prime Primary Realtime Clock</Description><StartTime><Timestamp dt:dt="int">0</Timestamp><DateUtc dt:dt="string">2015-08-12T15:37:17Z</DateUtc></StartTime><FrequencyChanges><FrequencyChange><Frequency dt:dt="r8">3418037</Frequency><Timestamp dt:dt="r8">809453599</Timestamp><Current dt:dt="r8">0</Current><DateUtc dt:dt="string">2015-08-12T15:37:17Z</DateUtc></FrequencyChange></FrequencyChanges></Clock>\n	1 ver1_main_procedure-20-1	99.876	1.0.0.880	2	kr	810107911	prawa	1	2.0.10.182	08-12-2015	2015-08-12 15:37:17	17:37:17	mezczyzna	2.0.10.92	3	4	1	1																							l	{SPACE}		no	BlockProc2		BlockList									73									6	4	5	1	2	3	color_red.png	color_blue.png	color_orange.png	color_purple.png	color_yellow.png	color_green.png	color_purple.png	color_yellow.png	color_green.png	color_blue.png	color_orange.png	color_red.png		1	1	1	47628																						DragProc											Ocena																															
1 ver1_main_procedure	20	1	20	<?xml version="1.0"?>\n<Clock xmlns:dt="urn:schemas-microsoft-com:datatypes"><Description dt:dt="string">E-Prime Primary Realtime Clock</Description><StartTime><Timestamp dt:dt="int">0</Timestamp><DateUtc dt:dt="string">2015-08-12T15:37:17Z</DateUtc></StartTime><FrequencyChanges><FrequencyChange><Frequency dt:dt="r8">3418037</Frequency><Timestamp dt:dt="r8">809453599</Timestamp><Current dt:dt="r8">0</Current><DateUtc dt:dt="string">2015-08-12T15:37:17Z</DateUtc></FrequencyChange></FrequencyChanges></Clock>\n	1 ver1_main_procedure-20-1	99.876	1.0.0.880	2	kr	810107911	prawa	1	2.0.10.182	08-12-2015	2015-08-12 15:37:17	17:37:17	mezczyzna	2.0.10.92	3	4	1	1																							l	{SPACE}		no	BlockProc2		BlockList									74															color_red.png	color_blue.png	color_orange.png	color_purple.png	color_yellow.png	color_green.png								2	1	2																							EnterProc											Ocena												10	25	34	65	80	95														
1 ver1_main_procedure	20	1	20	<?xml version="1.0"?>\n<Clock xmlns:dt="urn:schemas-microsoft-com:datatypes"><Description dt:dt="string">E-Prime Primary Realtime Clock</Description><StartTime><Timestamp dt:dt="int">0</Timestamp><DateUtc dt:dt="string">2015-08-12T15:37:17Z</DateUtc></StartTime><FrequencyChanges><FrequencyChange><Frequency dt:dt="r8">3418037</Frequency><Timestamp dt:dt="r8">809453599</Timestamp><Current dt:dt="r8">0</Current><DateUtc dt:dt="string">2015-08-12T15:37:17Z</DateUtc></FrequencyChange></FrequencyChanges></Clock>\n	1 ver1_main_procedure-20-1	99.876	1.0.0.880	2	kr	810107911	prawa	1	2.0.10.182	08-12-2015	2015-08-12 15:37:17	17:37:17	mezczyzna	2.0.10.92	4	3	1	2																							d	{SPACE}		no	BlockProc1		BlockList									1	Free	dl	color_yellow.png		-1	11	778550	160																			1					25	prime_left.png	0	777920	0	0	13	0	777920	0	777920	1	777920	20	0	-1	776421	777920	777919	0	prime_left.png	TrialProc1	left	0		0	10	778230	-778230		0	0	TrialList1	target_both.png	0	dl	-1	3	777970	260	l	569	778539												8	1	1				neut			150
1 ver1_main_procedure	20	1	20	<?xml version="1.0"?>\n<Clock xmlns:dt="urn:schemas-microsoft-com:datatypes"><Description dt:dt="string">E-Prime Primary Realtime Clock</Description><StartTime><Timestamp dt:dt="int">0</Timestamp><DateUtc dt:dt="string">2015-08-12T15:37:17Z</DateUtc></StartTime><FrequencyChanges><FrequencyChange><Frequency dt:dt="r8">3418037</Frequency><Timestamp dt:dt="r8">809453599</Timestamp><Current dt:dt="r8">0</Current><DateUtc dt:dt="string">2015-08-12T15:37:17Z</DateUtc></FrequencyChange></FrequencyChanges></Clock>\n	1 ver1_main_procedure-20-1	99.876	1.0.0.880	2	kr	810107911	prawa	1	2.0.10.182	08-12-2015	2015-08-12 15:37:17	17:37:17	mezczyzna	2.0.10.92	4	3	1	2																							d	{SPACE}		no	BlockProc1		BlockList									2	Cued	d	color_green.png		-1	9	780892	310																								75	prime_right.png	0	780522	0	0	13	0	780522	0	780522	1	780522	20	0	-1	779022	780522	780521	0		TrialProc1	left	0		0	10	780832	-780832		0	0	TrialList1	target_left.png	1	d	-1	3	780572	260	d	311	780883												3	1	2				incomp			300
1 ver1_main_procedure	20	1	20	<?xml version="1.0"?>\n<Clock xmlns:dt="urn:schemas-microsoft-com:datatypes"><Description dt:dt="string">E-Prime Primary Realtime Clock</Description><StartTime><Timestamp dt:dt="int">0</Timestamp><DateUtc dt:dt="string">2015-08-12T15:37:17Z</DateUtc></StartTime><FrequencyChanges><FrequencyChange><Frequency dt:dt="r8">3418037</Frequency><Timestamp dt:dt="r8">809453599</Timestamp><Current dt:dt="r8">0</Current><DateUtc dt:dt="string">2015-08-12T15:37:17Z</DateUtc></FrequencyChange></FrequencyChanges></Clock>\n	1 ver1_main_procedure-20-1	99.876	1.0.0.880	2	kr	810107911	prawa	1	2.0.10.182	08-12-2015	2015-08-12 15:37:17	17:37:17	mezczyzna	2.0.10.92	4	3	1	2																							d	{SPACE}		no	BlockProc1		BlockList									3	Free	dl	color_orange.png		-1	8	783484	160																								75	prime_left.png	0	783013	0	0	13	0	783014	0	783013	1	783013	20	0	-1	781514	783013	783012	0		TrialProc1	left	0		1	10	783323	-783323		0	0	TrialList1	target_both.png	0	dl	-1	3	783063	260	d	412	783475												7	1	3				comp			150
1 ver1_main_procedure	20	1	20	<?xml version="1.0"?>\n<Clock xmlns:dt="urn:schemas-microsoft-com:datatypes"><Description dt:dt="string">E-Prime Primary Realtime Clock</Description><StartTime><Timestamp dt:dt="int">0</Timestamp><DateUtc dt:dt="string">2015-08-12T15:37:17Z</DateUtc></StartTime><FrequencyChanges><FrequencyChange><Frequency dt:dt="r8">3418037</Frequency><Timestamp dt:dt="r8">809453599</Timestamp><Current dt:dt="r8">0</Current><DateUtc dt:dt="string">2015-08-12T15:37:17Z</DateUtc></FrequencyChange></FrequencyChanges></Clock>\n	1 ver1_main_procedure-20-1	99.876	1.0.0.880	2	kr	810107911	prawa	1	2.0.10.182	08-12-2015	2015-08-12 15:37:17	17:37:17	mezczyzna	2.0.10.92	4	3	1	2																							d	{SPACE}		no	BlockProc1		BlockList									4	Cued	l	color_blue.png		-1	18	785885	160																								25	prime_left.png	0	785455	0	0	13	0	785455	0	785455	1	785455	20	0	-1	783955	785455	785454	0		TrialProc1	right	0		0	10	785765	-785765		0	0	TrialList1	target_right.png	1	l	-1	3	785505	260	l	362	785867												6	1	4				incomp			150
1 ver1_main_procedure	20	1	20	<?xml version="1.0"?>\n<Clock xmlns:dt="urn:schemas-microsoft-com:datatypes"><Description dt:dt="string">E-Prime Primary Realtime Clock</Description><StartTime><Timestamp dt:dt="int">0</Timestamp><DateUtc dt:dt="string">2015-08-12T15:37:17Z</DateUtc></StartTime><FrequencyChanges><FrequencyChange><Frequency dt:dt="r8">3418037</Frequency><Timestamp dt:dt="r8">809453599</Timestamp><Current dt:dt="r8">0</Current><DateUtc dt:dt="string">2015-08-12T15:37:17Z</DateUtc></FrequencyChange></FrequencyChanges></Clock>\n	1 ver1_main_procedure-20-1	99.876	1.0.0.880	2	kr	810107911	prawa	1	2.0.10.182	08-12-2015	2015-08-12 15:37:17	17:37:17	mezczyzna	2.0.10.92	4	3	1	2																							d	{SPACE}		no	BlockProc1		BlockList									5	Cued	d			-1	8	788187	160																			2					75	prime_right.png	0	787856	0	0	13	1	787857	1	787857	1	787856	20	0	-1	786357	787856	787855	0	prime_right.png	TrialProc1	left	0		0	11	788167	-788167		0	0	TrialList1	target_left.png	0	d	-1	3	787906	261	l	272	788178												2	1	5				neut			150
1 ver1_main_procedure	20	1	20	<?xml version="1.0"?>\n<Clock xmlns:dt="urn:schemas-microsoft-com:datatypes"><Description dt:dt="string">E-Prime Primary Realtime Clock</Description><StartTime><Timestamp dt:dt="int">0</Timestamp><DateUtc dt:dt="string">2015-08-12T15:37:17Z</DateUtc></StartTime><FrequencyChanges><FrequencyChange><Frequency dt:dt="r8">3418037</Frequency><Timestamp dt:dt="r8">809453599</Timestamp><Current dt:dt="r8">0</Current><DateUtc dt:dt="string">2015-08-12T15:37:17Z</DateUtc></FrequencyChange></FrequencyChanges></Clock>\n	1 ver1_main_procedure-20-1	99.876	1.0.0.880	2	kr	810107911	prawa	1	2.0.10.182	08-12-2015	2015-08-12 15:37:17	17:37:17	mezczyzna	2.0.10.92	4	3	1	2																							d	{SPACE}		no	BlockProc1		BlockList									6	Free	dl	color_green.png		-1	11	790438	310																								25	prime_right.png	0	790158	0	0	13	0	790158	0	790158	1	790158	20	0	-1	788658	790158	790157	0		TrialProc1	right	0		0	0	0	0		0	0	TrialList1	target_both.png	0	dl	-999999	3	790208	0	d	218	790426												10	1	6				comp			300
1 ver1_main_procedure	20	1	20	<?xml version="1.0"?>\n<Clock xmlns:dt="urn:schemas-microsoft-com:datatypes"><Description dt:dt="string">E-Prime Primary Realtime Clock</Description><StartTime><Timestamp dt:dt="int">0</Timestamp><DateUtc dt:dt="string">2015-08-12T15:37:17Z</DateUtc></StartTime><FrequencyChanges><FrequencyChange><Frequency dt:dt="r8">3418037</Frequency><Timestamp dt:dt="r8">809453599</Timestamp><Current dt:dt="r8">0</Current><DateUtc dt:dt="string">2015-08-12T15:37:17Z</DateUtc></FrequencyChange></FrequencyChanges></Clock>\n	1 ver1_main_procedure-20-1	99.876	1.0.0.880	2	kr	810107911	prawa	1	2.0.10.182	08-12-2015	2015-08-12 15:37:17	17:37:17	mezczyzna	2.0.10.92	4	3	1	2																							d	{SPACE}		no	BlockProc1		BlockList									7	Cued	d			-1	9	792940	160																			1					75	prime_left.png	0	792559	0	0	13	1	792560	1	792560	1	792559	20	0	-1	791060	792559	792558	0	prime_left.png	TrialProc1	left	0		0	11	792870	-792870		0	0	TrialList1	target_left.png	0	d	-1	3	792609	261	l	321	792930												2	1	7				neut			150
1 ver1_main_procedure	20	1	20	<?xml version="1.0"?>\n<Clock xmlns:dt="urn:schemas-microsoft-com:datatypes"><Description dt:dt="string">E-Prime Primary Realtime Clock</Description><StartTime><Timestamp dt:dt="int">0</Timestamp><DateUtc dt:dt="string">2015-08-12T15:37:17Z</DateUtc></StartTime><FrequencyChanges><FrequencyChange><Frequency dt:dt="r8">3418037</Frequency><Timestamp dt:dt="r8">809453599</Timestamp><Current dt:dt="r8">0</Current><DateUtc dt:dt="string">2015-08-12T15:37:17Z</DateUtc></FrequencyChange></FrequencyChanges></Clock>\n	1 ver1_main_procedure-20-1	99.876	1.0.0.880	2	kr	810107911	prawa	1	2.0.10.182	08-12-2015	2015-08-12 15:37:17	17:37:17	mezczyzna	2.0.10.92	4	3	1	2																							d	{SPACE}		no	BlockProc1		BlockList									8	Cued	d	color_orange.png		-1	16	795211	460																								25	prime_left.png	0	794911	0	0	13	0	794911	0	794911	1	794911	20	0	-1	793411	794911	794910	0		TrialProc1	left	0		0	0	0	0		0	0	TrialList1	target_left.png	1	d	-999999	3	794961	0	d	233	795194												1	1	8				comp			450
1 ver1_main_procedure	20	1	20	<?xml version="1.0"?>\n<Clock xmlns:dt="urn:schemas-microsoft-com:datatypes"><Description dt:dt="string">E-Prime Primary Realtime Clock</Description><StartTime><Timestamp dt:dt="int">0</Timestamp><DateUtc dt:dt="string">2015-08-12T15:37:17Z</DateUtc></StartTime><FrequencyChanges><FrequencyChange><Frequency dt:dt="r8">3418037</Frequency><Timestamp dt:dt="r8">809453599</Timestamp><Current dt:dt="r8">0</Current><DateUtc dt:dt="string">2015-08-12T15:37:17Z</DateUtc></FrequencyChange></FrequencyChanges></Clock>\n	1 ver1_main_procedure-20-1	99.876	1.0.0.880	2	kr	810107911	prawa	1	2.0.10.182	08-12-2015	2015-08-12 15:37:17	17:37:17	mezczyzna	2.0.10.92	4	3	1	2																							d	{SPACE}		no	BlockProc1		BlockList									9	Cued	d	color_purple.png		-1	10	797813	160																			2					75	prime_right.png	0	797483	0	0	13	0	797483	0	797483	1	797483	19	0	-1	795983	797483	797482	0	prime_right.png	TrialProc1	left	0		0	10	797793	-797793		0	0	TrialList1	target_left.png	1	d	-1	4	797533	260	d	269	797802												2	1	9				neut			150
1 ver1_main_procedure	20	1	20	<?xml version="1.0"?>\n<Clock xmlns:dt="urn:schemas-microsoft-com:datatypes"><Description dt:dt="string">E-Prime Primary Realtime Clock</Description><StartTime><Timestamp dt:dt="int">0</Timestamp><DateUtc dt:dt="string">2015-08-12T15:37:17Z</DateUtc></StartTime><FrequencyChanges><FrequencyChange><Frequency dt:dt="r8">3418037</Frequency><Timestamp dt:dt="r8">809453599</Timestamp><Current dt:dt="r8">0</Current><DateUtc dt:dt="string">2015-08-12T15:37:17Z</DateUtc></FrequencyChange></FrequencyChanges></Clock>\n	1 ver1_main_procedure-20-1	99.876	1.0.0.880	2	kr	810107911	prawa	1	2.0.10.182	08-12-2015	2015-08-12 15:37:17	17:37:17	mezczyzna	2.0.10.92	4	3	1	2																							d	{SPACE}		no	BlockProc1		BlockList									10	Cued	l	color_red.png		-1	17	800084	160																								25	prime_right.png	0	799784	0	0	13	0	799784	0	799784	1	799784	20	0	-1	798284	799784	799783	0		TrialProc1	right	0		0	0	0	0		0	0	TrialList1	target_right.png	1	l	-999999	3	799834	0	l	232	800066												4	1	10				comp			150
