ExperimentName	Subject	Session	Age	Clock.Information	DataFile.Basename	Display.RefreshRate	ExperimentVersion	Group	Name	RandomSeed	Recznosc	ResearcherID	RuntimeVersion	SessionDate	SessionStartDateTimeUtc	SessionTime	Sex	StudioVersion	Block	BlockList	BlockList.Cycle	BlockList.Sample	BlockNumber	GoodBye.RESP	GoodBye2.RESP	GoodByeList	GoodByeList.Cycle	GoodByeList.Sample	InstrList	InstrList.Cycle	InstrList.Sample	Instructions3.RESP	Instructions4.RESP	Instructions5.RESP	kobieta_S1	kobieta_S2	kobieta_S3	kobieta_S4	kobieta_S5	mezczyzna_S1	mezczyzna_S2	mezczyzna_S3	mezczyzna_S4	mezczyzna_S5	NextBlock.RESP	NextBlock0.RESP	planowanie	PracticeMode	Procedure[Block]	proszenie	Running[Block]	TrainingList	TrainingList.Cycle	TrainingList.Sample	WordList	WordList1	wykonanie	zauwazenie	zrozumienie	Trial	ChoiceType	CorrectRespon	Effect	ErrorText	Fixation2.DurationError	Fixation2.OnsetDelay	Fixation2.OnsetTime	Fixation2.OnsetToOnsetTime	GoalRespInd1	GoalRespInd2	GoalRespInd3	GoalRespInd4	GoalRespInd5	GoalRespInd6	GoalRespName1	GoalRespName2	GoalRespName3	GoalRespName4	GoalRespName5	GoalRespName6	kol1	kol2	kol3	kol4	kol5	kol6	NeutralPrimeList1	Ocena	Ocena.Cycle	Ocena.Sample	OverallRT	Posit	Prime	Prime.ActionDelay	Prime.ActionTime	Prime.CustomOffsetTime	Prime.CustomOnsetTime	Prime.Duration	Prime.DurationError	Prime.FinishTime	Prime.OffsetDelay	Prime.OffsetTime	Prime.OnsetDelay	Prime.OnsetTime	Prime.OnsetToOnsetTime	Prime.PendingInputMasks	Prime.PreRelease	Prime.StartTime	Prime.TargetOffsetTime	Prime.TargetOnsetTime	Prime.TimingMode	PrimeChoice	Procedure[Trial]	Resp	RespWin.ACC	RespWin.CRESP	RespWin.DurationError	RespWin.OnsetDelay	RespWin.OnsetTime	RespWin.OnsetToOnsetTime	RespWin.RESP	RespWin.RT	RespWin.RTTime	Running[Trial]	Target	TargetSlide.ACC	TargetSlide.CRESP	TargetSlide.DurationError	TargetSlide.OnsetDelay	TargetSlide.OnsetTime	TargetSlide.OnsetToOnsetTime	TargetSlide.RESP	TargetSlide.RT	TargetSlide.RTTime	TargetTraining	TBox1	TBox2	TBox3	TBox4	TBox5	TBox6	TrainingList1	TrainingList1.Cycle	TrainingList1.Sample	TrCorrectResp	TrialList1	TrialList1.Cycle	TrialList1.Sample	TrialList2	TrialList2.Cycle	TrialList2.Sample	TrialType	TrPosit	TrWaitTime	WaitTime
1 ver1_main_procedure	26	1	19	<?xml version="1.0"?>\n<Clock xmlns:dt="urn:schemas-microsoft-com:datatypes"><Description dt:dt="string">E-Prime Primary Realtime Clock</Description><StartTime><Timestamp dt:dt="int">0</Timestamp><DateUtc dt:dt="string">2015-08-14T12:35:26Z</DateUtc></StartTime><FrequencyChanges><FrequencyChange><Frequency dt:dt="r8">2441416</Frequency><Timestamp dt:dt="r8">25560152917</Timestamp><Current dt:dt="r8">0</Current><DateUtc dt:dt="string">2015-08-14T12:35:26Z</DateUtc></FrequencyChange></FrequencyChanges></Clock>\n	1 ver1_main_procedure-26-1	99.924	1.0.0.880	2	nś	-209173707	prawa	1	2.0.10.356	08-14-2015	2015-08-14 12:35:26	14:35:26	kobieta	2.0.10.92	1										1	1	1	{SPACE}	{SPACE}	l	poproszona	planowała	zrozumiałaś	wykonała		poproszony	planował	zrozumiałeś	wykonał				planowała		InstrProc	poproszona	InstrList				1		wykonała		zrozumiałaś																																																																																																
1 ver1_main_procedure	26	1	19	<?xml version="1.0"?>\n<Clock xmlns:dt="urn:schemas-microsoft-com:datatypes"><Description dt:dt="string">E-Prime Primary Realtime Clock</Description><StartTime><Timestamp dt:dt="int">0</Timestamp><DateUtc dt:dt="string">2015-08-14T12:35:26Z</DateUtc></StartTime><FrequencyChanges><FrequencyChange><Frequency dt:dt="r8">2441416</Frequency><Timestamp dt:dt="r8">25560152917</Timestamp><Current dt:dt="r8">0</Current><DateUtc dt:dt="string">2015-08-14T12:35:26Z</DateUtc></FrequencyChange></FrequencyChanges></Clock>\n	1 ver1_main_procedure-26-1	99.924	1.0.0.880	2	nś	-209173707	prawa	1	2.0.10.356	08-14-2015	2015-08-14 12:35:26	14:35:26	kobieta	2.0.10.92	2																														TrainingProc1		TrainingList	1	1	1						1																																																					TrainProc											TrainingList1											target_left.png							1	1	1	d								25	300	
1 ver1_main_procedure	26	1	19	<?xml version="1.0"?>\n<Clock xmlns:dt="urn:schemas-microsoft-com:datatypes"><Description dt:dt="string">E-Prime Primary Realtime Clock</Description><StartTime><Timestamp dt:dt="int">0</Timestamp><DateUtc dt:dt="string">2015-08-14T12:35:26Z</DateUtc></StartTime><FrequencyChanges><FrequencyChange><Frequency dt:dt="r8">2441416</Frequency><Timestamp dt:dt="r8">25560152917</Timestamp><Current dt:dt="r8">0</Current><DateUtc dt:dt="string">2015-08-14T12:35:26Z</DateUtc></FrequencyChange></FrequencyChanges></Clock>\n	1 ver1_main_procedure-26-1	99.924	1.0.0.880	2	nś	-209173707	prawa	1	2.0.10.356	08-14-2015	2015-08-14 12:35:26	14:35:26	kobieta	2.0.10.92	2																														TrainingProc1		TrainingList	1	1	1						2																																																					TrainProc											TrainingList1											target_both.png							3	1	2	dl								75	150	
1 ver1_main_procedure	26	1	19	<?xml version="1.0"?>\n<Clock xmlns:dt="urn:schemas-microsoft-com:datatypes"><Description dt:dt="string">E-Prime Primary Realtime Clock</Description><StartTime><Timestamp dt:dt="int">0</Timestamp><DateUtc dt:dt="string">2015-08-14T12:35:26Z</DateUtc></StartTime><FrequencyChanges><FrequencyChange><Frequency dt:dt="r8">2441416</Frequency><Timestamp dt:dt="r8">25560152917</Timestamp><Current dt:dt="r8">0</Current><DateUtc dt:dt="string">2015-08-14T12:35:26Z</DateUtc></FrequencyChange></FrequencyChanges></Clock>\n	1 ver1_main_procedure-26-1	99.924	1.0.0.880	2	nś	-209173707	prawa	1	2.0.10.356	08-14-2015	2015-08-14 12:35:26	14:35:26	kobieta	2.0.10.92	2																														TrainingProc1		TrainingList	1	1	1						3																																																					TrainProc											TrainingList1											target_both.png							3	1	3	dl								75	150	
1 ver1_main_procedure	26	1	19	<?xml version="1.0"?>\n<Clock xmlns:dt="urn:schemas-microsoft-com:datatypes"><Description dt:dt="string">E-Prime Primary Realtime Clock</Description><StartTime><Timestamp dt:dt="int">0</Timestamp><DateUtc dt:dt="string">2015-08-14T12:35:26Z</DateUtc></StartTime><FrequencyChanges><FrequencyChange><Frequency dt:dt="r8">2441416</Frequency><Timestamp dt:dt="r8">25560152917</Timestamp><Current dt:dt="r8">0</Current><DateUtc dt:dt="string">2015-08-14T12:35:26Z</DateUtc></FrequencyChange></FrequencyChanges></Clock>\n	1 ver1_main_procedure-26-1	99.924	1.0.0.880	2	nś	-209173707	prawa	1	2.0.10.356	08-14-2015	2015-08-14 12:35:26	14:35:26	kobieta	2.0.10.92	2																														TrainingProc1		TrainingList	1	1	1						4																																																					TrainProc											TrainingList1											target_right.png							2	1	4	l								75	150	
1 ver1_main_procedure	26	1	19	<?xml version="1.0"?>\n<Clock xmlns:dt="urn:schemas-microsoft-com:datatypes"><Description dt:dt="string">E-Prime Primary Realtime Clock</Description><StartTime><Timestamp dt:dt="int">0</Timestamp><DateUtc dt:dt="string">2015-08-14T12:35:26Z</DateUtc></StartTime><FrequencyChanges><FrequencyChange><Frequency dt:dt="r8">2441416</Frequency><Timestamp dt:dt="r8">25560152917</Timestamp><Current dt:dt="r8">0</Current><DateUtc dt:dt="string">2015-08-14T12:35:26Z</DateUtc></FrequencyChange></FrequencyChanges></Clock>\n	1 ver1_main_procedure-26-1	99.924	1.0.0.880	2	nś	-209173707	prawa	1	2.0.10.356	08-14-2015	2015-08-14 12:35:26	14:35:26	kobieta	2.0.10.92	2																														TrainingProc1		TrainingList	1	1	1						5																																																					TrainProc											TrainingList1											target_right.png							2	1	5	l								75	450	
1 ver1_main_procedure	26	1	19	<?xml version="1.0"?>\n<Clock xmlns:dt="urn:schemas-microsoft-com:datatypes"><Description dt:dt="string">E-Prime Primary Realtime Clock</Description><StartTime><Timestamp dt:dt="int">0</Timestamp><DateUtc dt:dt="string">2015-08-14T12:35:26Z</DateUtc></StartTime><FrequencyChanges><FrequencyChange><Frequency dt:dt="r8">2441416</Frequency><Timestamp dt:dt="r8">25560152917</Timestamp><Current dt:dt="r8">0</Current><DateUtc dt:dt="string">2015-08-14T12:35:26Z</DateUtc></FrequencyChange></FrequencyChanges></Clock>\n	1 ver1_main_procedure-26-1	99.924	1.0.0.880	2	nś	-209173707	prawa	1	2.0.10.356	08-14-2015	2015-08-14 12:35:26	14:35:26	kobieta	2.0.10.92	2																														TrainingProc1		TrainingList	1	1	1						6																																																					TrainProc											TrainingList1											target_left.png							1	1	6	d								75	450	
1 ver1_main_procedure	26	1	19	<?xml version="1.0"?>\n<Clock xmlns:dt="urn:schemas-microsoft-com:datatypes"><Description dt:dt="string">E-Prime Primary Realtime Clock</Description><StartTime><Timestamp dt:dt="int">0</Timestamp><DateUtc dt:dt="string">2015-08-14T12:35:26Z</DateUtc></StartTime><FrequencyChanges><FrequencyChange><Frequency dt:dt="r8">2441416</Frequency><Timestamp dt:dt="r8">25560152917</Timestamp><Current dt:dt="r8">0</Current><DateUtc dt:dt="string">2015-08-14T12:35:26Z</DateUtc></FrequencyChange></FrequencyChanges></Clock>\n	1 ver1_main_procedure-26-1	99.924	1.0.0.880	2	nś	-209173707	prawa	1	2.0.10.356	08-14-2015	2015-08-14 12:35:26	14:35:26	kobieta	2.0.10.92	2																														TrainingProc1		TrainingList	1	1	1						7																																																					TrainProc											TrainingList1											target_both.png							3	1	7	dl								75	150	
1 ver1_main_procedure	26	1	19	<?xml version="1.0"?>\n<Clock xmlns:dt="urn:schemas-microsoft-com:datatypes"><Description dt:dt="string">E-Prime Primary Realtime Clock</Description><StartTime><Timestamp dt:dt="int">0</Timestamp><DateUtc dt:dt="string">2015-08-14T12:35:26Z</DateUtc></StartTime><FrequencyChanges><FrequencyChange><Frequency dt:dt="r8">2441416</Frequency><Timestamp dt:dt="r8">25560152917</Timestamp><Current dt:dt="r8">0</Current><DateUtc dt:dt="string">2015-08-14T12:35:26Z</DateUtc></FrequencyChange></FrequencyChanges></Clock>\n	1 ver1_main_procedure-26-1	99.924	1.0.0.880	2	nś	-209173707	prawa	1	2.0.10.356	08-14-2015	2015-08-14 12:35:26	14:35:26	kobieta	2.0.10.92	2																														TrainingProc1		TrainingList	1	1	1						8																																																					TrainProc											TrainingList1											target_right.png							2	1	8	l								25	450	
1 ver1_main_procedure	26	1	19	<?xml version="1.0"?>\n<Clock xmlns:dt="urn:schemas-microsoft-com:datatypes"><Description dt:dt="string">E-Prime Primary Realtime Clock</Description><StartTime><Timestamp dt:dt="int">0</Timestamp><DateUtc dt:dt="string">2015-08-14T12:35:26Z</DateUtc></StartTime><FrequencyChanges><FrequencyChange><Frequency dt:dt="r8">2441416</Frequency><Timestamp dt:dt="r8">25560152917</Timestamp><Current dt:dt="r8">0</Current><DateUtc dt:dt="string">2015-08-14T12:35:26Z</DateUtc></FrequencyChange></FrequencyChanges></Clock>\n	1 ver1_main_procedure-26-1	99.924	1.0.0.880	2	nś	-209173707	prawa	1	2.0.10.356	08-14-2015	2015-08-14 12:35:26	14:35:26	kobieta	2.0.10.92	2																														TrainingProc1		TrainingList	1	1	1						9																																																					TrainProc											TrainingList1											target_left.png							1	1	9	d								25	300	
1 ver1_main_procedure	26	1	19	<?xml version="1.0"?>\n<Clock xmlns:dt="urn:schemas-microsoft-com:datatypes"><Description dt:dt="string">E-Prime Primary Realtime Clock</Description><StartTime><Timestamp dt:dt="int">0</Timestamp><DateUtc dt:dt="string">2015-08-14T12:35:26Z</DateUtc></StartTime><FrequencyChanges><FrequencyChange><Frequency dt:dt="r8">2441416</Frequency><Timestamp dt:dt="r8">25560152917</Timestamp><Current dt:dt="r8">0</Current><DateUtc dt:dt="string">2015-08-14T12:35:26Z</DateUtc></FrequencyChange></FrequencyChanges></Clock>\n	1 ver1_main_procedure-26-1	99.924	1.0.0.880	2	nś	-209173707	prawa	1	2.0.10.356	08-14-2015	2015-08-14 12:35:26	14:35:26	kobieta	2.0.10.92	3	3	1	1																							l	{SPACE}		no	BlockProc1		BlockList									1	Cued	l			0	1	73602	460																			1					25	prime_left.png	0	71781	0	0	13	0	71781	0	71781	1	71781	20	0	-1	70282	71781	71780	0	prime_left.png	TrialProc1	right	0		0	20	72101	1501		0	0	TrialList1	target_right.png	0	l	0	3	71831	270		0	0												5	1	1				neut			450
1 ver1_main_procedure	26	1	19	<?xml version="1.0"?>\n<Clock xmlns:dt="urn:schemas-microsoft-com:datatypes"><Description dt:dt="string">E-Prime Primary Realtime Clock</Description><StartTime><Timestamp dt:dt="int">0</Timestamp><DateUtc dt:dt="string">2015-08-14T12:35:26Z</DateUtc></StartTime><FrequencyChanges><FrequencyChange><Frequency dt:dt="r8">2441416</Frequency><Timestamp dt:dt="r8">25560152917</Timestamp><Current dt:dt="r8">0</Current><DateUtc dt:dt="string">2015-08-14T12:35:26Z</DateUtc></FrequencyChange></FrequencyChanges></Clock>\n	1 ver1_main_procedure-26-1	99.924	1.0.0.880	2	nś	-209173707	prawa	1	2.0.10.356	08-14-2015	2015-08-14 12:35:26	14:35:26	kobieta	2.0.10.92	3	3	1	1																							l	{SPACE}		no	BlockProc1		BlockList									2	Cued	l			0	9	76584	461																								75	prime_right.png	0	75874	0	0	13	0	75874	0	75874	1	75874	20	0	-1	74375	75874	75873	0		TrialProc1	right	0		0	10	76184	-76184		0	0	TrialList1	target_right.png	0	l	0	3	75924	260	d	651	76575												4	1	2				comp			450
1 ver1_main_procedure	26	1	19	<?xml version="1.0"?>\n<Clock xmlns:dt="urn:schemas-microsoft-com:datatypes"><Description dt:dt="string">E-Prime Primary Realtime Clock</Description><StartTime><Timestamp dt:dt="int">0</Timestamp><DateUtc dt:dt="string">2015-08-14T12:35:26Z</DateUtc></StartTime><FrequencyChanges><FrequencyChange><Frequency dt:dt="r8">2441416</Frequency><Timestamp dt:dt="r8">25560152917</Timestamp><Current dt:dt="r8">0</Current><DateUtc dt:dt="string">2015-08-14T12:35:26Z</DateUtc></FrequencyChange></FrequencyChanges></Clock>\n	1 ver1_main_procedure-26-1	99.924	1.0.0.880	2	nś	-209173707	prawa	1	2.0.10.356	08-14-2015	2015-08-14 12:35:26	14:35:26	kobieta	2.0.10.92	3	3	1	1																							l	{SPACE}		no	BlockProc1		BlockList									3	Free	dl			0	1	80667	311																								75	prime_right.png	0	78856	0	0	13	0	78856	0	78856	1	78856	20	0	-1	77357	78856	78855	0		TrialProc1	right	0		0	10	79166	1501		0	0	TrialList1	target_both.png	0	dl	0	3	78906	260		0	0												10	1	3				comp			300
1 ver1_main_procedure	26	1	19	<?xml version="1.0"?>\n<Clock xmlns:dt="urn:schemas-microsoft-com:datatypes"><Description dt:dt="string">E-Prime Primary Realtime Clock</Description><StartTime><Timestamp dt:dt="int">0</Timestamp><DateUtc dt:dt="string">2015-08-14T12:35:26Z</DateUtc></StartTime><FrequencyChanges><FrequencyChange><Frequency dt:dt="r8">2441416</Frequency><Timestamp dt:dt="r8">25560152917</Timestamp><Current dt:dt="r8">0</Current><DateUtc dt:dt="string">2015-08-14T12:35:26Z</DateUtc></FrequencyChange></FrequencyChanges></Clock>\n	1 ver1_main_procedure-26-1	99.924	1.0.0.880	2	nś	-209173707	prawa	1	2.0.10.356	08-14-2015	2015-08-14 12:35:26	14:35:26	kobieta	2.0.10.92	3	3	1	1																							l	{SPACE}		no	BlockProc1		BlockList									4	Cued	d	color_yellow.png		0	10	83159	461																			2					75	prime_right.png	0	82789	0	0	13	0	82789	0	82789	1	82789	20	0	-1	81290	82789	82788	0	prime_right.png	TrialProc1	left	0		0	10	83099	-83099		0	0	TrialList1	target_left.png	1	d	0	3	82839	260	d	310	83149												2	1	4				neut			450
1 ver1_main_procedure	26	1	19	<?xml version="1.0"?>\n<Clock xmlns:dt="urn:schemas-microsoft-com:datatypes"><Description dt:dt="string">E-Prime Primary Realtime Clock</Description><StartTime><Timestamp dt:dt="int">0</Timestamp><DateUtc dt:dt="string">2015-08-14T12:35:26Z</DateUtc></StartTime><FrequencyChanges><FrequencyChange><Frequency dt:dt="r8">2441416</Frequency><Timestamp dt:dt="r8">25560152917</Timestamp><Current dt:dt="r8">0</Current><DateUtc dt:dt="string">2015-08-14T12:35:26Z</DateUtc></FrequencyChange></FrequencyChanges></Clock>\n	1 ver1_main_procedure-26-1	99.924	1.0.0.880	2	nś	-209173707	prawa	1	2.0.10.356	08-14-2015	2015-08-14 12:35:26	14:35:26	kobieta	2.0.10.92	3	3	1	1																							l	{SPACE}		no	BlockProc1		BlockList									5	Cued	d	color_yellow.png		0	6	85791	160																			1					75	prime_left.png	0	85431	0	0	13	0	85431	0	85431	1	85431	20	0	-1	83932	85431	85430	0	prime_left.png	TrialProc1	left	0		0	10	85741	-85741		0	0	TrialList1	target_left.png	1	d	0	3	85481	260	d	304	85785												2	1	5				neut			150
1 ver1_main_procedure	26	1	19	<?xml version="1.0"?>\n<Clock xmlns:dt="urn:schemas-microsoft-com:datatypes"><Description dt:dt="string">E-Prime Primary Realtime Clock</Description><StartTime><Timestamp dt:dt="int">0</Timestamp><DateUtc dt:dt="string">2015-08-14T12:35:26Z</DateUtc></StartTime><FrequencyChanges><FrequencyChange><Frequency dt:dt="r8">2441416</Frequency><Timestamp dt:dt="r8">25560152917</Timestamp><Current dt:dt="r8">0</Current><DateUtc dt:dt="string">2015-08-14T12:35:26Z</DateUtc></FrequencyChange></FrequencyChanges></Clock>\n	1 ver1_main_procedure-26-1	99.924	1.0.0.880	2	nś	-209173707	prawa	1	2.0.10.356	08-14-2015	2015-08-14 12:35:26	14:35:26	kobieta	2.0.10.92	3	3	1	1																							l	{SPACE}		no	BlockProc1		BlockList									6	Cued	d	color_yellow.png		0	13	88133	160																			2					75	prime_right.png	0	87763	0	0	13	0	87763	0	87763	2	87763	20	0	-1	86264	87763	87761	0	prime_right.png	TrialProc1	left	0		0	10	88073	-88073		0	0	TrialList1	target_left.png	1	d	0	3	87813	260	d	307	88120												2	1	6				neut			150
1 ver1_main_procedure	26	1	19	<?xml version="1.0"?>\n<Clock xmlns:dt="urn:schemas-microsoft-com:datatypes"><Description dt:dt="string">E-Prime Primary Realtime Clock</Description><StartTime><Timestamp dt:dt="int">0</Timestamp><DateUtc dt:dt="string">2015-08-14T12:35:26Z</DateUtc></StartTime><FrequencyChanges><FrequencyChange><Frequency dt:dt="r8">2441416</Frequency><Timestamp dt:dt="r8">25560152917</Timestamp><Current dt:dt="r8">0</Current><DateUtc dt:dt="string">2015-08-14T12:35:26Z</DateUtc></FrequencyChange></FrequencyChanges></Clock>\n	1 ver1_main_procedure-26-1	99.924	1.0.0.880	2	nś	-209173707	prawa	1	2.0.10.356	08-14-2015	2015-08-14 12:35:26	14:35:26	kobieta	2.0.10.92	3	3	1	1																							l	{SPACE}		no	BlockProc1		BlockList									7	Free	dl	color_orange.png		0	15	90375	460																								75	prime_left.png	0	90104	0	0	13	1	90105	1	90105	1	90104	20	0	-1	88605	90104	90103	0		TrialProc1	right	0		0	0	0	0		0	0	TrialList1	target_both.png	0	dl	-999999	3	90154	0	d	206	90360												12	1	7				incomp			450
1 ver1_main_procedure	26	1	19	<?xml version="1.0"?>\n<Clock xmlns:dt="urn:schemas-microsoft-com:datatypes"><Description dt:dt="string">E-Prime Primary Realtime Clock</Description><StartTime><Timestamp dt:dt="int">0</Timestamp><DateUtc dt:dt="string">2015-08-14T12:35:26Z</DateUtc></StartTime><FrequencyChanges><FrequencyChange><Frequency dt:dt="r8">2441416</Frequency><Timestamp dt:dt="r8">25560152917</Timestamp><Current dt:dt="r8">0</Current><DateUtc dt:dt="string">2015-08-14T12:35:26Z</DateUtc></FrequencyChange></FrequencyChanges></Clock>\n	1 ver1_main_procedure-26-1	99.924	1.0.0.880	2	nś	-209173707	prawa	1	2.0.10.356	08-14-2015	2015-08-14 12:35:26	14:35:26	kobieta	2.0.10.92	3	3	1	1																							l	{SPACE}		no	BlockProc1		BlockList									8	Cued	d	color_orange.png		0	13	93027	160																								75	prime_left.png	0	92646	0	0	13	0	92646	0	92646	1	92646	20	0	-1	91147	92646	92645	0		TrialProc1	left	0		1	10	92956	-92956		0	0	TrialList1	target_left.png	1	d	0	3	92696	260	d	318	93014												1	1	8				comp			150
1 ver1_main_procedure	26	1	19	<?xml version="1.0"?>\n<Clock xmlns:dt="urn:schemas-microsoft-com:datatypes"><Description dt:dt="string">E-Prime Primary Realtime Clock</Description><StartTime><Timestamp dt:dt="int">0</Timestamp><DateUtc dt:dt="string">2015-08-14T12:35:26Z</DateUtc></StartTime><FrequencyChanges><FrequencyChange><Frequency dt:dt="r8">2441416</Frequency><Timestamp dt:dt="r8">25560152917</Timestamp><Current dt:dt="r8">0</Current><DateUtc dt:dt="string">2015-08-14T12:35:26Z</DateUtc></FrequencyChange></FrequencyChanges></Clock>\n	1 ver1_main_procedure-26-1	99.924	1.0.0.880	2	nś	-209173707	prawa	1	2.0.10.356	08-14-2015	2015-08-14 12:35:26	14:35:26	kobieta	2.0.10.92	3	3	1	1																							l	{SPACE}		no	BlockProc1		BlockList									9	Cued	l	color_blue.png		0	8	95398	310																								75	prime_left.png	0	94998	0	0	13	0	94998	0	94998	1	94998	20	0	-1	93499	94998	94997	0		TrialProc1	right	0		0	10	95308	-95308		0	0	TrialList1	target_right.png	1	l	0	3	95048	260	l	342	95390												6	1	9				incomp			300
1 ver1_main_procedure	26	1	19	<?xml version="1.0"?>\n<Clock xmlns:dt="urn:schemas-microsoft-com:datatypes"><Description dt:dt="string">E-Prime Primary Realtime Clock</Description><StartTime><Timestamp dt:dt="int">0</Timestamp><DateUtc dt:dt="string">2015-08-14T12:35:26Z</DateUtc></StartTime><FrequencyChanges><FrequencyChange><Frequency dt:dt="r8">2441416</Frequency><Timestamp dt:dt="r8">25560152917</Timestamp><Current dt:dt="r8">0</Current><DateUtc dt:dt="string">2015-08-14T12:35:26Z</DateUtc></FrequencyChange></FrequencyChanges></Clock>\n	1 ver1_main_procedure-26-1	99.924	1.0.0.880	2	nś	-209173707	prawa	1	2.0.10.356	08-14-2015	2015-08-14 12:35:26	14:35:26	kobieta	2.0.10.92	3	3	1	1																							l	{SPACE}		no	BlockProc1		BlockList									10	Cued	l	color_green.png		0	9	97870	160																			1					75	prime_left.png	0	97520	0	0	13	0	97520	0	97520	1	97520	20	0	-1	96021	97520	97519	0	prime_left.png	TrialProc1	right	0		0	10	97830	-97830		0	0	TrialList1	target_right.png	1	l	0	3	97570	260	l	291	97861												5	1	10				neut			150
1 ver1_main_procedure	26	1	19	<?xml version="1.0"?>\n<Clock xmlns:dt="urn:schemas-microsoft-com:datatypes"><Description dt:dt="string">E-Prime Primary Realtime Clock</Description><StartTime><Timestamp dt:dt="int">0</Timestamp><DateUtc dt:dt="string">2015-08-14T12:35:26Z</DateUtc></StartTime><FrequencyChanges><FrequencyChange><Frequency dt:dt="r8">2441416</Frequency><Timestamp dt:dt="r8">25560152917</Timestamp><Current dt:dt="r8">0</Current><DateUtc dt:dt="string">2015-08-14T12:35:26Z</DateUtc></FrequencyChange></FrequencyChanges></Clock>\n	1 ver1_main_procedure-26-1	99.924	1.0.0.880	2	nś	-209173707	prawa	1	2.0.10.356	08-14-2015	2015-08-14 12:35:26	14:35:26	kobieta	2.0.10.92	3	3	1	1																							l	{SPACE}		no	BlockProc1		BlockList									11	Free	dl	color_purple.png		0	11	100232	310																								25	prime_right.png	0	99842	0	0	13	0	99842	0	99842	2	99842	20	0	-1	98343	99842	99840	0		TrialProc1	left	0		0	10	100152	-100152		0	0	TrialList1	target_both.png	0	dl	0	3	99892	260	d	329	100221												9	1	11				incomp			300
1 ver1_main_procedure	26	1	19	<?xml version="1.0"?>\n<Clock xmlns:dt="urn:schemas-microsoft-com:datatypes"><Description dt:dt="string">E-Prime Primary Realtime Clock</Description><StartTime><Timestamp dt:dt="int">0</Timestamp><DateUtc dt:dt="string">2015-08-14T12:35:26Z</DateUtc></StartTime><FrequencyChanges><FrequencyChange><Frequency dt:dt="r8">2441416</Frequency><Timestamp dt:dt="r8">25560152917</Timestamp><Current dt:dt="r8">0</Current><DateUtc dt:dt="string">2015-08-14T12:35:26Z</DateUtc></FrequencyChange></FrequencyChanges></Clock>\n	1 ver1_main_procedure-26-1	99.924	1.0.0.880	2	nś	-209173707	prawa	1	2.0.10.356	08-14-2015	2015-08-14 12:35:26	14:35:26	kobieta	2.0.10.92	3	3	1	1																							l	{SPACE}		no	BlockProc1		BlockList									12	Cued	d	color_purple.png		0	13	102754	460																								75	prime_right.png	0	102353	0	0	13	1	102354	1	102354	1	102353	20	0	-1	100854	102353	102352	0		TrialProc1	left	0		0	11	102664	-102664		0	0	TrialList1	target_left.png	1	d	0	3	102403	261	d	338	102741												3	1	12				incomp			450
1 ver1_main_procedure	26	1	19	<?xml version="1.0"?>\n<Clock xmlns:dt="urn:schemas-microsoft-com:datatypes"><Description dt:dt="string">E-Prime Primary Realtime Clock</Description><StartTime><Timestamp dt:dt="int">0</Timestamp><DateUtc dt:dt="string">2015-08-14T12:35:26Z</DateUtc></StartTime><FrequencyChanges><FrequencyChange><Frequency dt:dt="r8">2441416</Frequency><Timestamp dt:dt="r8">25560152917</Timestamp><Current dt:dt="r8">0</Current><DateUtc dt:dt="string">2015-08-14T12:35:26Z</DateUtc></FrequencyChange></FrequencyChanges></Clock>\n	1 ver1_main_procedure-26-1	99.924	1.0.0.880	2	nś	-209173707	prawa	1	2.0.10.356	08-14-2015	2015-08-14 12:35:26	14:35:26	kobieta	2.0.10.92	3	3	1	1																							l	{SPACE}		no	BlockProc1		BlockList									13	Cued	l	color_red.png		0	6	105316	310																								25	prime_right.png	0	105025	0	0	13	1	105026	1	105026	1	105025	20	0	-1	103527	105025	105024	0		TrialProc1	right	0		0	0	0	0		0	0	TrialList1	target_right.png	1	l	-999999	3	105075	0	l	235	105310												4	1	13				comp			300
1 ver1_main_procedure	26	1	19	<?xml version="1.0"?>\n<Clock xmlns:dt="urn:schemas-microsoft-com:datatypes"><Description dt:dt="string">E-Prime Primary Realtime Clock</Description><StartTime><Timestamp dt:dt="int">0</Timestamp><DateUtc dt:dt="string">2015-08-14T12:35:26Z</DateUtc></StartTime><FrequencyChanges><FrequencyChange><Frequency dt:dt="r8">2441416</Frequency><Timestamp dt:dt="r8">25560152917</Timestamp><Current dt:dt="r8">0</Current><DateUtc dt:dt="string">2015-08-14T12:35:26Z</DateUtc></FrequencyChange></FrequencyChanges></Clock>\n	1 ver1_main_procedure-26-1	99.924	1.0.0.880	2	nś	-209173707	prawa	1	2.0.10.356	08-14-2015	2015-08-14 12:35:26	14:35:26	kobieta	2.0.10.92	3	3	1	1																							l	{SPACE}		no	BlockProc1		BlockList									14	Cued	d			0	11	107697	311																								25	prime_right.png	0	107437	0	0	13	0	107437	0	107437	1	107437	20	0	-1	105938	107437	107436	0		TrialProc1	left	0		0	0	0	0		0	0	TrialList1	target_left.png	0	d	-999999	3	107487	0	l	199	107686												3	1	14				incomp			300
1 ver1_main_procedure	26	1	19	<?xml version="1.0"?>\n<Clock xmlns:dt="urn:schemas-microsoft-com:datatypes"><Description dt:dt="string">E-Prime Primary Realtime Clock</Description><StartTime><Timestamp dt:dt="int">0</Timestamp><DateUtc dt:dt="string">2015-08-14T12:35:26Z</DateUtc></StartTime><FrequencyChanges><FrequencyChange><Frequency dt:dt="r8">2441416</Frequency><Timestamp dt:dt="r8">25560152917</Timestamp><Current dt:dt="r8">0</Current><DateUtc dt:dt="string">2015-08-14T12:35:26Z</DateUtc></FrequencyChange></FrequencyChanges></Clock>\n	1 ver1_main_procedure-26-1	99.924	1.0.0.880	2	nś	-209173707	prawa	1	2.0.10.356	08-14-2015	2015-08-14 12:35:26	14:35:26	kobieta	2.0.10.92	3	3	1	1																							l	{SPACE}		no	BlockProc1		BlockList									15	Free	dl	color_blue.png		0	7	110259	310																								25	prime_left.png	0	109819	0	0	13	0	109819	0	109819	1	109819	20	0	-1	108320	109819	109818	0		TrialProc1	right	0		0	10	110129	-110129		0	0	TrialList1	target_both.png	0	dl	0	3	109869	260	l	383	110252												12	1	15				incomp			300
1 ver1_main_procedure	26	1	19	<?xml version="1.0"?>\n<Clock xmlns:dt="urn:schemas-microsoft-com:datatypes"><Description dt:dt="string">E-Prime Primary Realtime Clock</Description><StartTime><Timestamp dt:dt="int">0</Timestamp><DateUtc dt:dt="string">2015-08-14T12:35:26Z</DateUtc></StartTime><FrequencyChanges><FrequencyChange><Frequency dt:dt="r8">2441416</Frequency><Timestamp dt:dt="r8">25560152917</Timestamp><Current dt:dt="r8">0</Current><DateUtc dt:dt="string">2015-08-14T12:35:26Z</DateUtc></FrequencyChange></FrequencyChanges></Clock>\n	1 ver1_main_procedure-26-1	99.924	1.0.0.880	2	nś	-209173707	prawa	1	2.0.10.356	08-14-2015	2015-08-14 12:35:26	14:35:26	kobieta	2.0.10.92	3	3	1	1																							l	{SPACE}		no	BlockProc1		BlockList									16	Cued	l	color_green.png		0	13	112711	310																			2					25	prime_right.png	0	112381	0	0	13	0	112381	0	112381	1	112381	20	0	-1	110882	112381	112380	0	prime_right.png	TrialProc1	right	0		0	10	112691	-112691		0	0	TrialList1	target_right.png	1	l	0	3	112431	260	l	267	112698												5	1	16				neut			300
1 ver1_main_procedure	26	1	19	<?xml version="1.0"?>\n<Clock xmlns:dt="urn:schemas-microsoft-com:datatypes"><Description dt:dt="string">E-Prime Primary Realtime Clock</Description><StartTime><Timestamp dt:dt="int">0</Timestamp><DateUtc dt:dt="string">2015-08-14T12:35:26Z</DateUtc></StartTime><FrequencyChanges><FrequencyChange><Frequency dt:dt="r8">2441416</Frequency><Timestamp dt:dt="r8">25560152917</Timestamp><Current dt:dt="r8">0</Current><DateUtc dt:dt="string">2015-08-14T12:35:26Z</DateUtc></FrequencyChange></FrequencyChanges></Clock>\n	1 ver1_main_procedure-26-1	99.924	1.0.0.880	2	nś	-209173707	prawa	1	2.0.10.356	08-14-2015	2015-08-14 12:35:26	14:35:26	kobieta	2.0.10.92	3	3	1	1																							l	{SPACE}		no	BlockProc1		BlockList									17	Cued	d			0	11	115113	310																								25	prime_right.png	0	114833	0	0	13	0	114833	0	114833	1	114833	20	0	-1	113334	114833	114832	0		TrialProc1	left	0		0	0	0	0		0	0	TrialList1	target_left.png	0	d	-999999	3	114883	0	l	219	115102												3	1	17				incomp			300
1 ver1_main_procedure	26	1	19	<?xml version="1.0"?>\n<Clock xmlns:dt="urn:schemas-microsoft-com:datatypes"><Description dt:dt="string">E-Prime Primary Realtime Clock</Description><StartTime><Timestamp dt:dt="int">0</Timestamp><DateUtc dt:dt="string">2015-08-14T12:35:26Z</DateUtc></StartTime><FrequencyChanges><FrequencyChange><Frequency dt:dt="r8">2441416</Frequency><Timestamp dt:dt="r8">25560152917</Timestamp><Current dt:dt="r8">0</Current><DateUtc dt:dt="string">2015-08-14T12:35:26Z</DateUtc></FrequencyChange></FrequencyChanges></Clock>\n	1 ver1_main_procedure-26-1	99.924	1.0.0.880	2	nś	-209173707	prawa	1	2.0.10.356	08-14-2015	2015-08-14 12:35:26	14:35:26	kobieta	2.0.10.92	3	3	1	1																							l	{SPACE}		no	BlockProc1		BlockList									18	Cued	d			0	15	117545	460																								75	prime_right.png	0	117234	0	0	13	1	117235	1	117235	1	117234	20	0	-1	115736	117234	117233	0		TrialProc1	left	0		0	0	0	0		0	0	TrialList1	target_left.png	0	d	-999999	3	117284	0	l	246	117530												3	1	18				incomp			450
1 ver1_main_procedure	26	1	19	<?xml version="1.0"?>\n<Clock xmlns:dt="urn:schemas-microsoft-com:datatypes"><Description dt:dt="string">E-Prime Primary Realtime Clock</Description><StartTime><Timestamp dt:dt="int">0</Timestamp><DateUtc dt:dt="string">2015-08-14T12:35:26Z</DateUtc></StartTime><FrequencyChanges><FrequencyChange><Frequency dt:dt="r8">2441416</Frequency><Timestamp dt:dt="r8">25560152917</Timestamp><Current dt:dt="r8">0</Current><DateUtc dt:dt="string">2015-08-14T12:35:26Z</DateUtc></FrequencyChange></FrequencyChanges></Clock>\n	1 ver1_main_procedure-26-1	99.924	1.0.0.880	2	nś	-209173707	prawa	1	2.0.10.356	08-14-2015	2015-08-14 12:35:26	14:35:26	kobieta	2.0.10.92	3	3	1	1																							l	{SPACE}		no	BlockProc1		BlockList									19	Free	dl	color_yellow.png		0	11	120277	310																			1					25	prime_left.png	0	119816	0	0	13	0	119817	0	119816	1	119816	20	0	-1	118317	119816	119815	0	prime_left.png	TrialProc1	right	0		0	11	120127	-120127		0	0	TrialList1	target_both.png	0	dl	0	3	119866	261	d	400	120266												11	1	19				neut			300
1 ver1_main_procedure	26	1	19	<?xml version="1.0"?>\n<Clock xmlns:dt="urn:schemas-microsoft-com:datatypes"><Description dt:dt="string">E-Prime Primary Realtime Clock</Description><StartTime><Timestamp dt:dt="int">0</Timestamp><DateUtc dt:dt="string">2015-08-14T12:35:26Z</DateUtc></StartTime><FrequencyChanges><FrequencyChange><Frequency dt:dt="r8">2441416</Frequency><Timestamp dt:dt="r8">25560152917</Timestamp><Current dt:dt="r8">0</Current><DateUtc dt:dt="string">2015-08-14T12:35:26Z</DateUtc></FrequencyChange></FrequencyChanges></Clock>\n	1 ver1_main_procedure-26-1	99.924	1.0.0.880	2	nś	-209173707	prawa	1	2.0.10.356	08-14-2015	2015-08-14 12:35:26	14:35:26	kobieta	2.0.10.92	3	3	1	1																							l	{SPACE}		no	BlockProc1		BlockList									20	Free	dl	color_green.png		0	9	122658	161																			2					25	prime_right.png	0	122398	0	0	13	0	122398	0	122398	1	122398	20	0	-1	120899	122398	122397	0	prime_right.png	TrialProc1	left	0		0	0	0	0		0	0	TrialList1	target_both.png	0	dl	-999999	3	122448	0	l	201	122649												8	1	20				neut			150
1 ver1_main_procedure	26	1	19	<?xml version="1.0"?>\n<Clock xmlns:dt="urn:schemas-microsoft-com:datatypes"><Description dt:dt="string">E-Prime Primary Realtime Clock</Description><StartTime><Timestamp dt:dt="int">0</Timestamp><DateUtc dt:dt="string">2015-08-14T12:35:26Z</DateUtc></StartTime><FrequencyChanges><FrequencyChange><Frequency dt:dt="r8">2441416</Frequency><Timestamp dt:dt="r8">25560152917</Timestamp><Current dt:dt="r8">0</Current><DateUtc dt:dt="string">2015-08-14T12:35:26Z</DateUtc></FrequencyChange></FrequencyChanges></Clock>\n	1 ver1_main_procedure-26-1	99.924	1.0.0.880	2	nś	-209173707	prawa	1	2.0.10.356	08-14-2015	2015-08-14 12:35:26	14:35:26	kobieta	2.0.10.92	3	3	1	1																							l	{SPACE}		no	BlockProc1		BlockList									21	Cued	d	color_orange.png		0	10	124950	310																								75	prime_left.png	0	124630	0	0	13	0	124630	0	124630	1	124630	20	0	-1	123131	124630	124629	0		TrialProc1	left	0		-999999	10	124940	0		0	0	TrialList1	target_left.png	1	d	0	3	124680	0	d	259	124939												1	1	21				comp			300
1 ver1_main_procedure	26	1	19	<?xml version="1.0"?>\n<Clock xmlns:dt="urn:schemas-microsoft-com:datatypes"><Description dt:dt="string">E-Prime Primary Realtime Clock</Description><StartTime><Timestamp dt:dt="int">0</Timestamp><DateUtc dt:dt="string">2015-08-14T12:35:26Z</DateUtc></StartTime><FrequencyChanges><FrequencyChange><Frequency dt:dt="r8">2441416</Frequency><Timestamp dt:dt="r8">25560152917</Timestamp><Current dt:dt="r8">0</Current><DateUtc dt:dt="string">2015-08-14T12:35:26Z</DateUtc></FrequencyChange></FrequencyChanges></Clock>\n	1 ver1_main_procedure-26-1	99.924	1.0.0.880	2	nś	-209173707	prawa	1	2.0.10.356	08-14-2015	2015-08-14 12:35:26	14:35:26	kobieta	2.0.10.92	3	3	1	1																							l	{SPACE}		no	BlockProc1		BlockList									22	Cued	d	color_orange.png		0	7	127362	160																								75	prime_left.png	0	127072	0	0	13	0	127072	0	127072	1	127072	20	0	-1	125573	127072	127071	0		TrialProc1	left	0		0	0	0	0		0	0	TrialList1	target_left.png	1	d	-999999	3	127122	0	d	233	127355												1	1	22				comp			150
1 ver1_main_procedure	26	1	19	<?xml version="1.0"?>\n<Clock xmlns:dt="urn:schemas-microsoft-com:datatypes"><Description dt:dt="string">E-Prime Primary Realtime Clock</Description><StartTime><Timestamp dt:dt="int">0</Timestamp><DateUtc dt:dt="string">2015-08-14T12:35:26Z</DateUtc></StartTime><FrequencyChanges><FrequencyChange><Frequency dt:dt="r8">2441416</Frequency><Timestamp dt:dt="r8">25560152917</Timestamp><Current dt:dt="r8">0</Current><DateUtc dt:dt="string">2015-08-14T12:35:26Z</DateUtc></FrequencyChange></FrequencyChanges></Clock>\n	1 ver1_main_procedure-26-1	99.924	1.0.0.880	2	nś	-209173707	prawa	1	2.0.10.356	08-14-2015	2015-08-14 12:35:26	14:35:26	kobieta	2.0.10.92	3	3	1	1																							l	{SPACE}		no	BlockProc1		BlockList									23	Cued	l	color_green.png		0	7	129724	310																			1					25	prime_left.png	1	129334	0	0	13	1	129334	1	129334	1	129333	20	0	-1	127835	129333	129332	0	prime_left.png	TrialProc1	right	0		0	11	129644	-129644		0	0	TrialList1	target_right.png	1	l	0	3	129383	261	l	334	129717												5	1	23				neut			300
1 ver1_main_procedure	26	1	19	<?xml version="1.0"?>\n<Clock xmlns:dt="urn:schemas-microsoft-com:datatypes"><Description dt:dt="string">E-Prime Primary Realtime Clock</Description><StartTime><Timestamp dt:dt="int">0</Timestamp><DateUtc dt:dt="string">2015-08-14T12:35:26Z</DateUtc></StartTime><FrequencyChanges><FrequencyChange><Frequency dt:dt="r8">2441416</Frequency><Timestamp dt:dt="r8">25560152917</Timestamp><Current dt:dt="r8">0</Current><DateUtc dt:dt="string">2015-08-14T12:35:26Z</DateUtc></FrequencyChange></FrequencyChanges></Clock>\n	1 ver1_main_procedure-26-1	99.924	1.0.0.880	2	nś	-209173707	prawa	1	2.0.10.356	08-14-2015	2015-08-14 12:35:26	14:35:26	kobieta	2.0.10.92	3	3	1	1																							l	{SPACE}		no	BlockProc1		BlockList									24	Cued	l	color_blue.png		0	6	132195	161																								25	prime_left.png	0	131845	0	0	13	0	131845	0	131845	1	131845	20	0	-1	130346	131845	131844	0		TrialProc1	right	0		0	11	132156	-132156		0	0	TrialList1	target_right.png	1	l	0	3	131895	261	l	294	132189												6	1	24				incomp			150
1 ver1_main_procedure	26	1	19	<?xml version="1.0"?>\n<Clock xmlns:dt="urn:schemas-microsoft-com:datatypes"><Description dt:dt="string">E-Prime Primary Realtime Clock</Description><StartTime><Timestamp dt:dt="int">0</Timestamp><DateUtc dt:dt="string">2015-08-14T12:35:26Z</DateUtc></StartTime><FrequencyChanges><FrequencyChange><Frequency dt:dt="r8">2441416</Frequency><Timestamp dt:dt="r8">25560152917</Timestamp><Current dt:dt="r8">0</Current><DateUtc dt:dt="string">2015-08-14T12:35:26Z</DateUtc></FrequencyChange></FrequencyChanges></Clock>\n	1 ver1_main_procedure-26-1	99.924	1.0.0.880	2	nś	-209173707	prawa	1	2.0.10.356	08-14-2015	2015-08-14 12:35:26	14:35:26	kobieta	2.0.10.92	3	3	1	1																							l	{SPACE}		no	BlockProc1		BlockList									25	Cued	l	color_red.png		0	10	134467	160																								25	prime_right.png	0	134167	0	0	13	0	134167	0	134167	1	134167	20	0	-1	132668	134167	134166	0		TrialProc1	right	0		0	0	0	0		0	0	TrialList1	target_right.png	1	l	-999999	3	134217	0	l	240	134457												4	1	25				comp			150
1 ver1_main_procedure	26	1	19	<?xml version="1.0"?>\n<Clock xmlns:dt="urn:schemas-microsoft-com:datatypes"><Description dt:dt="string">E-Prime Primary Realtime Clock</Description><StartTime><Timestamp dt:dt="int">0</Timestamp><DateUtc dt:dt="string">2015-08-14T12:35:26Z</DateUtc></StartTime><FrequencyChanges><FrequencyChange><Frequency dt:dt="r8">2441416</Frequency><Timestamp dt:dt="r8">25560152917</Timestamp><Current dt:dt="r8">0</Current><DateUtc dt:dt="string">2015-08-14T12:35:26Z</DateUtc></FrequencyChange></FrequencyChanges></Clock>\n	1 ver1_main_procedure-26-1	99.924	1.0.0.880	2	nś	-209173707	prawa	1	2.0.10.356	08-14-2015	2015-08-14 12:35:26	14:35:26	kobieta	2.0.10.92	3	3	1	1																							l	{SPACE}		no	BlockProc1		BlockList									26	Cued	d	color_yellow.png		0	10	136729	310																			2					75	prime_right.png	0	136439	0	0	13	0	136439	0	136439	1	136439	20	0	-1	134940	136439	136438	0	prime_right.png	TrialProc1	left	0		0	0	0	0		0	0	TrialList1	target_left.png	1	d	-999999	3	136489	0	d	229	136718												2	1	26				neut			300
1 ver1_main_procedure	26	1	19	<?xml version="1.0"?>\n<Clock xmlns:dt="urn:schemas-microsoft-com:datatypes"><Description dt:dt="string">E-Prime Primary Realtime Clock</Description><StartTime><Timestamp dt:dt="int">0</Timestamp><DateUtc dt:dt="string">2015-08-14T12:35:26Z</DateUtc></StartTime><FrequencyChanges><FrequencyChange><Frequency dt:dt="r8">2441416</Frequency><Timestamp dt:dt="r8">25560152917</Timestamp><Current dt:dt="r8">0</Current><DateUtc dt:dt="string">2015-08-14T12:35:26Z</DateUtc></FrequencyChange></FrequencyChanges></Clock>\n	1 ver1_main_procedure-26-1	99.924	1.0.0.880	2	nś	-209173707	prawa	1	2.0.10.356	08-14-2015	2015-08-14 12:35:26	14:35:26	kobieta	2.0.10.92	3	3	1	1																							l	{SPACE}		no	BlockProc1		BlockList									27	Cued	l	color_blue.png		0	14	139091	460																								25	prime_left.png	0	138850	0	0	13	1	138851	1	138851	1	138850	20	0	-1	137352	138850	138849	0		TrialProc1	right	0		0	0	0	0		0	0	TrialList1	target_right.png	1	l	-999999	3	138900	0	l	177	139077												6	1	27				incomp			450
1 ver1_main_procedure	26	1	19	<?xml version="1.0"?>\n<Clock xmlns:dt="urn:schemas-microsoft-com:datatypes"><Description dt:dt="string">E-Prime Primary Realtime Clock</Description><StartTime><Timestamp dt:dt="int">0</Timestamp><DateUtc dt:dt="string">2015-08-14T12:35:26Z</DateUtc></StartTime><FrequencyChanges><FrequencyChange><Frequency dt:dt="r8">2441416</Frequency><Timestamp dt:dt="r8">25560152917</Timestamp><Current dt:dt="r8">0</Current><DateUtc dt:dt="string">2015-08-14T12:35:26Z</DateUtc></FrequencyChange></FrequencyChanges></Clock>\n	1 ver1_main_procedure-26-1	99.924	1.0.0.880	2	nś	-209173707	prawa	1	2.0.10.356	08-14-2015	2015-08-14 12:35:26	14:35:26	kobieta	2.0.10.92	3	3	1	1																							l	{SPACE}		no	BlockProc1		BlockList									28	Cued	d	color_orange.png		0	8	141683	460																								75	prime_left.png	0	141362	0	0	13	0	141362	0	141362	1	141362	20	0	-1	139863	141362	141361	0		TrialProc1	left	0		0	11	141673	-141673		0	0	TrialList1	target_left.png	1	d	0	3	141412	261	d	263	141675												1	1	28				comp			450
1 ver1_main_procedure	26	1	19	<?xml version="1.0"?>\n<Clock xmlns:dt="urn:schemas-microsoft-com:datatypes"><Description dt:dt="string">E-Prime Primary Realtime Clock</Description><StartTime><Timestamp dt:dt="int">0</Timestamp><DateUtc dt:dt="string">2015-08-14T12:35:26Z</DateUtc></StartTime><FrequencyChanges><FrequencyChange><Frequency dt:dt="r8">2441416</Frequency><Timestamp dt:dt="r8">25560152917</Timestamp><Current dt:dt="r8">0</Current><DateUtc dt:dt="string">2015-08-14T12:35:26Z</DateUtc></FrequencyChange></FrequencyChanges></Clock>\n	1 ver1_main_procedure-26-1	99.924	1.0.0.880	2	nś	-209173707	prawa	1	2.0.10.356	08-14-2015	2015-08-14 12:35:26	14:35:26	kobieta	2.0.10.92	3	3	1	1																							l	{SPACE}		no	BlockProc1		BlockList									29	Cued	l	color_red.png		0	14	144315	160																								75	prime_right.png	0	143954	0	0	13	0	143954	0	143954	1	143954	20	0	-1	142455	143954	143953	0		TrialProc1	right	0		1	10	144264	-144264		0	0	TrialList1	target_right.png	1	l	0	3	144004	260	l	297	144301												4	1	29				comp			150
1 ver1_main_procedure	26	1	19	<?xml version="1.0"?>\n<Clock xmlns:dt="urn:schemas-microsoft-com:datatypes"><Description dt:dt="string">E-Prime Primary Realtime Clock</Description><StartTime><Timestamp dt:dt="int">0</Timestamp><DateUtc dt:dt="string">2015-08-14T12:35:26Z</DateUtc></StartTime><FrequencyChanges><FrequencyChange><Frequency dt:dt="r8">2441416</Frequency><Timestamp dt:dt="r8">25560152917</Timestamp><Current dt:dt="r8">0</Current><DateUtc dt:dt="string">2015-08-14T12:35:26Z</DateUtc></FrequencyChange></FrequencyChanges></Clock>\n	1 ver1_main_procedure-26-1	99.924	1.0.0.880	2	nś	-209173707	prawa	1	2.0.10.356	08-14-2015	2015-08-14 12:35:26	14:35:26	kobieta	2.0.10.92	3	3	1	1																							l	{SPACE}		no	BlockProc1		BlockList									30	Cued	d	color_purple.png		0	9	146616	310																								75	prime_right.png	0	146286	0	0	13	0	146286	0	146286	1	146286	20	0	-1	144787	146286	146285	0		TrialProc1	left	0		0	10	146596	-146596		0	0	TrialList1	target_left.png	1	d	0	3	146336	260	d	271	146607												3	1	30				incomp			300
1 ver1_main_procedure	26	1	19	<?xml version="1.0"?>\n<Clock xmlns:dt="urn:schemas-microsoft-com:datatypes"><Description dt:dt="string">E-Prime Primary Realtime Clock</Description><StartTime><Timestamp dt:dt="int">0</Timestamp><DateUtc dt:dt="string">2015-08-14T12:35:26Z</DateUtc></StartTime><FrequencyChanges><FrequencyChange><Frequency dt:dt="r8">2441416</Frequency><Timestamp dt:dt="r8">25560152917</Timestamp><Current dt:dt="r8">0</Current><DateUtc dt:dt="string">2015-08-14T12:35:26Z</DateUtc></FrequencyChange></FrequencyChanges></Clock>\n	1 ver1_main_procedure-26-1	99.924	1.0.0.880	2	nś	-209173707	prawa	1	2.0.10.356	08-14-2015	2015-08-14 12:35:26	14:35:26	kobieta	2.0.10.92	3	3	1	1																							l	{SPACE}		no	BlockProc1		BlockList									31	Cued	l	color_green.png		0	9	149098	460																			1					75	prime_left.png	0	148738	0	0	13	0	148738	0	148738	1	148738	20	0	-1	147239	148738	148737	0	prime_left.png	TrialProc1	right	0		0	10	149048	-149048		0	0	TrialList1	target_right.png	1	l	0	3	148788	260	l	301	149089												5	1	31				neut			450
1 ver1_main_procedure	26	1	19	<?xml version="1.0"?>\n<Clock xmlns:dt="urn:schemas-microsoft-com:datatypes"><Description dt:dt="string">E-Prime Primary Realtime Clock</Description><StartTime><Timestamp dt:dt="int">0</Timestamp><DateUtc dt:dt="string">2015-08-14T12:35:26Z</DateUtc></StartTime><FrequencyChanges><FrequencyChange><Frequency dt:dt="r8">2441416</Frequency><Timestamp dt:dt="r8">25560152917</Timestamp><Current dt:dt="r8">0</Current><DateUtc dt:dt="string">2015-08-14T12:35:26Z</DateUtc></FrequencyChange></FrequencyChanges></Clock>\n	1 ver1_main_procedure-26-1	99.924	1.0.0.880	2	nś	-209173707	prawa	1	2.0.10.356	08-14-2015	2015-08-14 12:35:26	14:35:26	kobieta	2.0.10.92	3	3	1	1																							l	{SPACE}		no	BlockProc1		BlockList									32	Cued	d	color_yellow.png		0	9	151720	460																			2					75	prime_right.png	0	151370	0	0	13	0	151370	0	151370	1	151370	20	0	-1	149871	151370	151369	0	prime_right.png	TrialProc1	left	0		0	10	151680	-151680		0	0	TrialList1	target_left.png	1	d	0	3	151420	260	d	291	151711												2	1	32				neut			450
1 ver1_main_procedure	26	1	19	<?xml version="1.0"?>\n<Clock xmlns:dt="urn:schemas-microsoft-com:datatypes"><Description dt:dt="string">E-Prime Primary Realtime Clock</Description><StartTime><Timestamp dt:dt="int">0</Timestamp><DateUtc dt:dt="string">2015-08-14T12:35:26Z</DateUtc></StartTime><FrequencyChanges><FrequencyChange><Frequency dt:dt="r8">2441416</Frequency><Timestamp dt:dt="r8">25560152917</Timestamp><Current dt:dt="r8">0</Current><DateUtc dt:dt="string">2015-08-14T12:35:26Z</DateUtc></FrequencyChange></FrequencyChanges></Clock>\n	1 ver1_main_procedure-26-1	99.924	1.0.0.880	2	nś	-209173707	prawa	1	2.0.10.356	08-14-2015	2015-08-14 12:35:26	14:35:26	kobieta	2.0.10.92	3	3	1	1																							l	{SPACE}		no	BlockProc1		BlockList									33	Cued	l	color_green.png		0	12	154352	460																			1					75	prime_left.png	0	153992	0	0	13	0	153992	0	153992	1	153992	20	0	-1	152493	153992	153991	0	prime_left.png	TrialProc1	right	0		0	10	154302	-154302		0	0	TrialList1	target_right.png	1	l	0	3	154042	260	l	298	154340												5	1	33				neut			450
1 ver1_main_procedure	26	1	19	<?xml version="1.0"?>\n<Clock xmlns:dt="urn:schemas-microsoft-com:datatypes"><Description dt:dt="string">E-Prime Primary Realtime Clock</Description><StartTime><Timestamp dt:dt="int">0</Timestamp><DateUtc dt:dt="string">2015-08-14T12:35:26Z</DateUtc></StartTime><FrequencyChanges><FrequencyChange><Frequency dt:dt="r8">2441416</Frequency><Timestamp dt:dt="r8">25560152917</Timestamp><Current dt:dt="r8">0</Current><DateUtc dt:dt="string">2015-08-14T12:35:26Z</DateUtc></FrequencyChange></FrequencyChanges></Clock>\n	1 ver1_main_procedure-26-1	99.924	1.0.0.880	2	nś	-209173707	prawa	1	2.0.10.356	08-14-2015	2015-08-14 12:35:26	14:35:26	kobieta	2.0.10.92	3	3	1	1																							l	{SPACE}		no	BlockProc1		BlockList									34	Cued	d	color_orange.png		0	12	156904	310																								75	prime_left.png	0	156624	0	0	13	0	156624	0	156624	1	156624	20	0	-1	155125	156624	156623	0		TrialProc1	left	0		0	0	0	0		0	0	TrialList1	target_left.png	1	d	-999999	3	156674	0	d	218	156892												1	1	34				comp			300
1 ver1_main_procedure	26	1	19	<?xml version="1.0"?>\n<Clock xmlns:dt="urn:schemas-microsoft-com:datatypes"><Description dt:dt="string">E-Prime Primary Realtime Clock</Description><StartTime><Timestamp dt:dt="int">0</Timestamp><DateUtc dt:dt="string">2015-08-14T12:35:26Z</DateUtc></StartTime><FrequencyChanges><FrequencyChange><Frequency dt:dt="r8">2441416</Frequency><Timestamp dt:dt="r8">25560152917</Timestamp><Current dt:dt="r8">0</Current><DateUtc dt:dt="string">2015-08-14T12:35:26Z</DateUtc></FrequencyChange></FrequencyChanges></Clock>\n	1 ver1_main_procedure-26-1	99.924	1.0.0.880	2	nś	-209173707	prawa	1	2.0.10.356	08-14-2015	2015-08-14 12:35:26	14:35:26	kobieta	2.0.10.92	3	3	1	1																							l	{SPACE}		no	BlockProc1		BlockList									35	Cued	l	color_blue.png		0	6	159406	160																								25	prime_left.png	0	159025	0	0	13	1	159026	1	159026	1	159025	20	0	-1	157527	159025	159024	0		TrialProc1	right	0		0	11	159336	-159336		0	0	TrialList1	target_right.png	1	l	0	3	159075	261	l	325	159400												6	1	35				incomp			150
1 ver1_main_procedure	26	1	19	<?xml version="1.0"?>\n<Clock xmlns:dt="urn:schemas-microsoft-com:datatypes"><Description dt:dt="string">E-Prime Primary Realtime Clock</Description><StartTime><Timestamp dt:dt="int">0</Timestamp><DateUtc dt:dt="string">2015-08-14T12:35:26Z</DateUtc></StartTime><FrequencyChanges><FrequencyChange><Frequency dt:dt="r8">2441416</Frequency><Timestamp dt:dt="r8">25560152917</Timestamp><Current dt:dt="r8">0</Current><DateUtc dt:dt="string">2015-08-14T12:35:26Z</DateUtc></FrequencyChange></FrequencyChanges></Clock>\n	1 ver1_main_procedure-26-1	99.924	1.0.0.880	2	nś	-209173707	prawa	1	2.0.10.356	08-14-2015	2015-08-14 12:35:26	14:35:26	kobieta	2.0.10.92	3	3	1	1																							l	{SPACE}		no	BlockProc1		BlockList									36	Cued	l	color_blue.png		0	9	161667	311																								25	prime_left.png	0	161377	0	0	13	0	161377	0	161377	1	161377	20	0	-1	159878	161377	161376	0		TrialProc1	right	0		0	0	0	0		0	0	TrialList1	target_right.png	1	l	-999999	3	161427	0	l	231	161658												6	1	36				incomp			300
1 ver1_main_procedure	26	1	19	<?xml version="1.0"?>\n<Clock xmlns:dt="urn:schemas-microsoft-com:datatypes"><Description dt:dt="string">E-Prime Primary Realtime Clock</Description><StartTime><Timestamp dt:dt="int">0</Timestamp><DateUtc dt:dt="string">2015-08-14T12:35:26Z</DateUtc></StartTime><FrequencyChanges><FrequencyChange><Frequency dt:dt="r8">2441416</Frequency><Timestamp dt:dt="r8">25560152917</Timestamp><Current dt:dt="r8">0</Current><DateUtc dt:dt="string">2015-08-14T12:35:26Z</DateUtc></FrequencyChange></FrequencyChanges></Clock>\n	1 ver1_main_procedure-26-1	99.924	1.0.0.880	2	nś	-209173707	prawa	1	2.0.10.356	08-14-2015	2015-08-14 12:35:26	14:35:26	kobieta	2.0.10.92	3	3	1	1																							l	{SPACE}		no	BlockProc1		BlockList									37	Cued	d	color_yellow.png		0	11	164179	160																			2					25	prime_right.png	0	163789	0	0	13	0	163789	0	163789	1	163789	20	0	-1	162290	163789	163788	0	prime_right.png	TrialProc1	left	0		0	10	164099	-164099		0	0	TrialList1	target_left.png	1	d	0	3	163839	260	d	329	164168												2	1	37				neut			150
1 ver1_main_procedure	26	1	19	<?xml version="1.0"?>\n<Clock xmlns:dt="urn:schemas-microsoft-com:datatypes"><Description dt:dt="string">E-Prime Primary Realtime Clock</Description><StartTime><Timestamp dt:dt="int">0</Timestamp><DateUtc dt:dt="string">2015-08-14T12:35:26Z</DateUtc></StartTime><FrequencyChanges><FrequencyChange><Frequency dt:dt="r8">2441416</Frequency><Timestamp dt:dt="r8">25560152917</Timestamp><Current dt:dt="r8">0</Current><DateUtc dt:dt="string">2015-08-14T12:35:26Z</DateUtc></FrequencyChange></FrequencyChanges></Clock>\n	1 ver1_main_procedure-26-1	99.924	1.0.0.880	2	nś	-209173707	prawa	1	2.0.10.356	08-14-2015	2015-08-14 12:35:26	14:35:26	kobieta	2.0.10.92	3	3	1	1																							l	{SPACE}		no	BlockProc1		BlockList									38	Cued	l	color_red.png		0	7	166461	310																								25	prime_right.png	0	166151	0	0	13	0	166151	0	166151	1	166151	20	0	-1	164652	166151	166150	0		TrialProc1	right	0		-999999	0	0	0		0	0	TrialList1	target_right.png	1	l	0	3	166201	0	l	253	166454												4	1	38				comp			300
1 ver1_main_procedure	26	1	19	<?xml version="1.0"?>\n<Clock xmlns:dt="urn:schemas-microsoft-com:datatypes"><Description dt:dt="string">E-Prime Primary Realtime Clock</Description><StartTime><Timestamp dt:dt="int">0</Timestamp><DateUtc dt:dt="string">2015-08-14T12:35:26Z</DateUtc></StartTime><FrequencyChanges><FrequencyChange><Frequency dt:dt="r8">2441416</Frequency><Timestamp dt:dt="r8">25560152917</Timestamp><Current dt:dt="r8">0</Current><DateUtc dt:dt="string">2015-08-14T12:35:26Z</DateUtc></FrequencyChange></FrequencyChanges></Clock>\n	1 ver1_main_procedure-26-1	99.924	1.0.0.880	2	nś	-209173707	prawa	1	2.0.10.356	08-14-2015	2015-08-14 12:35:26	14:35:26	kobieta	2.0.10.92	3	3	1	1																							l	{SPACE}		no	BlockProc1		BlockList									39	Cued	d	color_orange.png		0	9	168823	460																								25	prime_left.png	0	168583	0	0	13	0	168583	0	168583	2	168583	20	0	-1	167084	168583	168581	0		TrialProc1	left	0		0	0	0	0		0	0	TrialList1	target_left.png	1	d	-999999	3	168633	0	d	181	168814												1	1	39				comp			450
1 ver1_main_procedure	26	1	19	<?xml version="1.0"?>\n<Clock xmlns:dt="urn:schemas-microsoft-com:datatypes"><Description dt:dt="string">E-Prime Primary Realtime Clock</Description><StartTime><Timestamp dt:dt="int">0</Timestamp><DateUtc dt:dt="string">2015-08-14T12:35:26Z</DateUtc></StartTime><FrequencyChanges><FrequencyChange><Frequency dt:dt="r8">2441416</Frequency><Timestamp dt:dt="r8">25560152917</Timestamp><Current dt:dt="r8">0</Current><DateUtc dt:dt="string">2015-08-14T12:35:26Z</DateUtc></FrequencyChange></FrequencyChanges></Clock>\n	1 ver1_main_procedure-26-1	99.924	1.0.0.880	2	nś	-209173707	prawa	1	2.0.10.356	08-14-2015	2015-08-14 12:35:26	14:35:26	kobieta	2.0.10.92	3	3	1	1																							l	{SPACE}		no	BlockProc1		BlockList									40	Free	dl	color_red.png		0	10	171385	160																								75	prime_right.png	0	171094	0	0	13	1	171095	1	171095	1	171094	20	0	-1	169595	171094	171093	0		TrialProc1	left	0		0	0	0	0		0	0	TrialList1	target_both.png	0	dl	-999999	3	171144	0	l	231	171375												9	1	40				incomp			150
1 ver1_main_procedure	26	1	19	<?xml version="1.0"?>\n<Clock xmlns:dt="urn:schemas-microsoft-com:datatypes"><Description dt:dt="string">E-Prime Primary Realtime Clock</Description><StartTime><Timestamp dt:dt="int">0</Timestamp><DateUtc dt:dt="string">2015-08-14T12:35:26Z</DateUtc></StartTime><FrequencyChanges><FrequencyChange><Frequency dt:dt="r8">2441416</Frequency><Timestamp dt:dt="r8">25560152917</Timestamp><Current dt:dt="r8">0</Current><DateUtc dt:dt="string">2015-08-14T12:35:26Z</DateUtc></FrequencyChange></FrequencyChanges></Clock>\n	1 ver1_main_procedure-26-1	99.924	1.0.0.880	2	nś	-209173707	prawa	1	2.0.10.356	08-14-2015	2015-08-14 12:35:26	14:35:26	kobieta	2.0.10.92	3	3	1	1																							l	{SPACE}		no	BlockProc1		BlockList									41	Cued	d	color_orange.png		0	7	173616	461																								25	prime_left.png	0	173356	0	0	13	0	173356	0	173356	1	173356	20	0	-1	171857	173356	173355	0		TrialProc1	left	0		0	0	0	0		0	0	TrialList1	target_left.png	1	d	-999999	3	173406	0	d	203	173609												1	1	41				comp			450
1 ver1_main_procedure	26	1	19	<?xml version="1.0"?>\n<Clock xmlns:dt="urn:schemas-microsoft-com:datatypes"><Description dt:dt="string">E-Prime Primary Realtime Clock</Description><StartTime><Timestamp dt:dt="int">0</Timestamp><DateUtc dt:dt="string">2015-08-14T12:35:26Z</DateUtc></StartTime><FrequencyChanges><FrequencyChange><Frequency dt:dt="r8">2441416</Frequency><Timestamp dt:dt="r8">25560152917</Timestamp><Current dt:dt="r8">0</Current><DateUtc dt:dt="string">2015-08-14T12:35:26Z</DateUtc></FrequencyChange></FrequencyChanges></Clock>\n	1 ver1_main_procedure-26-1	99.924	1.0.0.880	2	nś	-209173707	prawa	1	2.0.10.356	08-14-2015	2015-08-14 12:35:26	14:35:26	kobieta	2.0.10.92	3	3	1	1																							l	{SPACE}		no	BlockProc1		BlockList									42	Free	dl	color_green.png		0	9	176158	460																			1					75	prime_left.png	0	175888	0	0	13	0	175888	0	175888	1	175888	20	0	-1	174389	175888	175887	0	prime_left.png	TrialProc1	left	0		0	0	0	0		0	0	TrialList1	target_both.png	0	dl	-999999	3	175938	0	l	210	176148												8	1	42				neut			450
1 ver1_main_procedure	26	1	19	<?xml version="1.0"?>\n<Clock xmlns:dt="urn:schemas-microsoft-com:datatypes"><Description dt:dt="string">E-Prime Primary Realtime Clock</Description><StartTime><Timestamp dt:dt="int">0</Timestamp><DateUtc dt:dt="string">2015-08-14T12:35:26Z</DateUtc></StartTime><FrequencyChanges><FrequencyChange><Frequency dt:dt="r8">2441416</Frequency><Timestamp dt:dt="r8">25560152917</Timestamp><Current dt:dt="r8">0</Current><DateUtc dt:dt="string">2015-08-14T12:35:26Z</DateUtc></FrequencyChange></FrequencyChanges></Clock>\n	1 ver1_main_procedure-26-1	99.924	1.0.0.880	2	nś	-209173707	prawa	1	2.0.10.356	08-14-2015	2015-08-14 12:35:26	14:35:26	kobieta	2.0.10.92	3	3	1	1																							l	{SPACE}		no	BlockProc1		BlockList									43	Cued	d	color_yellow.png		0	13	178810	160																			2					75	prime_right.png	0	178430	0	0	13	0	178430	0	178430	1	178430	20	0	-1	176931	178430	178429	0	prime_right.png	TrialProc1	left	0		0	10	178740	-178740		0	0	TrialList1	target_left.png	1	d	0	3	178480	260	d	316	178796												2	1	43				neut			150
1 ver1_main_procedure	26	1	19	<?xml version="1.0"?>\n<Clock xmlns:dt="urn:schemas-microsoft-com:datatypes"><Description dt:dt="string">E-Prime Primary Realtime Clock</Description><StartTime><Timestamp dt:dt="int">0</Timestamp><DateUtc dt:dt="string">2015-08-14T12:35:26Z</DateUtc></StartTime><FrequencyChanges><FrequencyChange><Frequency dt:dt="r8">2441416</Frequency><Timestamp dt:dt="r8">25560152917</Timestamp><Current dt:dt="r8">0</Current><DateUtc dt:dt="string">2015-08-14T12:35:26Z</DateUtc></FrequencyChange></FrequencyChanges></Clock>\n	1 ver1_main_procedure-26-1	99.924	1.0.0.880	2	nś	-209173707	prawa	1	2.0.10.356	08-14-2015	2015-08-14 12:35:26	14:35:26	kobieta	2.0.10.92	3	3	1	1																							l	{SPACE}		no	BlockProc1		BlockList									44	Cued	l	color_red.png		0	10	181132	460																								25	prime_right.png	0	180782	0	0	13	0	180782	0	180782	2	180782	20	0	-1	179283	180782	180780	0		TrialProc1	right	0		0	10	181092	-181092		0	0	TrialList1	target_right.png	1	l	0	3	180832	260	l	290	181122												4	1	44				comp			450
1 ver1_main_procedure	26	1	19	<?xml version="1.0"?>\n<Clock xmlns:dt="urn:schemas-microsoft-com:datatypes"><Description dt:dt="string">E-Prime Primary Realtime Clock</Description><StartTime><Timestamp dt:dt="int">0</Timestamp><DateUtc dt:dt="string">2015-08-14T12:35:26Z</DateUtc></StartTime><FrequencyChanges><FrequencyChange><Frequency dt:dt="r8">2441416</Frequency><Timestamp dt:dt="r8">25560152917</Timestamp><Current dt:dt="r8">0</Current><DateUtc dt:dt="string">2015-08-14T12:35:26Z</DateUtc></FrequencyChange></FrequencyChanges></Clock>\n	1 ver1_main_procedure-26-1	99.924	1.0.0.880	2	nś	-209173707	prawa	1	2.0.10.356	08-14-2015	2015-08-14 12:35:26	14:35:26	kobieta	2.0.10.92	3	3	1	1																							l	{SPACE}		no	BlockProc1		BlockList									45	Cued	l	color_red.png		0	10	183744	460																								25	prime_right.png	0	183404	0	0	13	0	183404	0	183404	2	183404	20	0	-1	181905	183404	183402	0		TrialProc1	right	0		0	10	183714	-183714		0	0	TrialList1	target_right.png	1	l	0	3	183454	260	l	280	183734												4	1	45				comp			450
1 ver1_main_procedure	26	1	19	<?xml version="1.0"?>\n<Clock xmlns:dt="urn:schemas-microsoft-com:datatypes"><Description dt:dt="string">E-Prime Primary Realtime Clock</Description><StartTime><Timestamp dt:dt="int">0</Timestamp><DateUtc dt:dt="string">2015-08-14T12:35:26Z</DateUtc></StartTime><FrequencyChanges><FrequencyChange><Frequency dt:dt="r8">2441416</Frequency><Timestamp dt:dt="r8">25560152917</Timestamp><Current dt:dt="r8">0</Current><DateUtc dt:dt="string">2015-08-14T12:35:26Z</DateUtc></FrequencyChange></FrequencyChanges></Clock>\n	1 ver1_main_procedure-26-1	99.924	1.0.0.880	2	nś	-209173707	prawa	1	2.0.10.356	08-14-2015	2015-08-14 12:35:26	14:35:26	kobieta	2.0.10.92	3	3	1	1																							l	{SPACE}		no	BlockProc1		BlockList									46	Free	dl	color_yellow.png		0	8	186336	310																			1					25	prime_left.png	0	186015	0	0	13	1	186016	1	186016	1	186015	20	0	-1	184517	186015	186014	0	prime_left.png	TrialProc1	right	0		0	11	186326	-186326		0	0	TrialList1	target_both.png	0	dl	0	3	186065	261	d	263	186328												11	1	46				neut			300
1 ver1_main_procedure	26	1	19	<?xml version="1.0"?>\n<Clock xmlns:dt="urn:schemas-microsoft-com:datatypes"><Description dt:dt="string">E-Prime Primary Realtime Clock</Description><StartTime><Timestamp dt:dt="int">0</Timestamp><DateUtc dt:dt="string">2015-08-14T12:35:26Z</DateUtc></StartTime><FrequencyChanges><FrequencyChange><Frequency dt:dt="r8">2441416</Frequency><Timestamp dt:dt="r8">25560152917</Timestamp><Current dt:dt="r8">0</Current><DateUtc dt:dt="string">2015-08-14T12:35:26Z</DateUtc></FrequencyChange></FrequencyChanges></Clock>\n	1 ver1_main_procedure-26-1	99.924	1.0.0.880	2	nś	-209173707	prawa	1	2.0.10.356	08-14-2015	2015-08-14 12:35:26	14:35:26	kobieta	2.0.10.92	3	3	1	1																							l	{SPACE}		no	BlockProc1		BlockList									47	Cued	d	color_orange.png		0	7	188777	311																								25	prime_left.png	0	188457	0	0	13	0	188457	0	188457	1	188457	20	0	-1	186958	188457	188456	0		TrialProc1	left	0		1	10	188767	-188767		0	0	TrialList1	target_left.png	1	d	0	3	188507	260	d	263	188770												1	1	47				comp			300
1 ver1_main_procedure	26	1	19	<?xml version="1.0"?>\n<Clock xmlns:dt="urn:schemas-microsoft-com:datatypes"><Description dt:dt="string">E-Prime Primary Realtime Clock</Description><StartTime><Timestamp dt:dt="int">0</Timestamp><DateUtc dt:dt="string">2015-08-14T12:35:26Z</DateUtc></StartTime><FrequencyChanges><FrequencyChange><Frequency dt:dt="r8">2441416</Frequency><Timestamp dt:dt="r8">25560152917</Timestamp><Current dt:dt="r8">0</Current><DateUtc dt:dt="string">2015-08-14T12:35:26Z</DateUtc></FrequencyChange></FrequencyChanges></Clock>\n	1 ver1_main_procedure-26-1	99.924	1.0.0.880	2	nś	-209173707	prawa	1	2.0.10.356	08-14-2015	2015-08-14 12:35:26	14:35:26	kobieta	2.0.10.92	3	3	1	1																							l	{SPACE}		no	BlockProc1		BlockList									48	Cued	d			0	10	191169	461																			2					75	prime_right.png	0	190899	0	0	13	0	190899	0	190899	1	190899	20	0	-1	189400	190899	190898	0	prime_right.png	TrialProc1	left	0		0	0	0	0		0	0	TrialList1	target_left.png	0	d	-999999	3	190949	0	l	210	191159												2	1	48				neut			450
1 ver1_main_procedure	26	1	19	<?xml version="1.0"?>\n<Clock xmlns:dt="urn:schemas-microsoft-com:datatypes"><Description dt:dt="string">E-Prime Primary Realtime Clock</Description><StartTime><Timestamp dt:dt="int">0</Timestamp><DateUtc dt:dt="string">2015-08-14T12:35:26Z</DateUtc></StartTime><FrequencyChanges><FrequencyChange><Frequency dt:dt="r8">2441416</Frequency><Timestamp dt:dt="r8">25560152917</Timestamp><Current dt:dt="r8">0</Current><DateUtc dt:dt="string">2015-08-14T12:35:26Z</DateUtc></FrequencyChange></FrequencyChanges></Clock>\n	1 ver1_main_procedure-26-1	99.924	1.0.0.880	2	nś	-209173707	prawa	1	2.0.10.356	08-14-2015	2015-08-14 12:35:26	14:35:26	kobieta	2.0.10.92	3	3	1	1																							l	{SPACE}		no	BlockProc1		BlockList									49	Free	dl	color_yellow.png		0	8	193731	310																			1					25	prime_left.png	0	193441	0	0	13	0	193441	0	193441	1	193441	20	0	-1	191942	193441	193440	0	prime_left.png	TrialProc1	left	0		0	0	0	0		0	0	TrialList1	target_both.png	0	dl	-999999	3	193491	0	d	232	193723												8	1	49				neut			300
1 ver1_main_procedure	26	1	19	<?xml version="1.0"?>\n<Clock xmlns:dt="urn:schemas-microsoft-com:datatypes"><Description dt:dt="string">E-Prime Primary Realtime Clock</Description><StartTime><Timestamp dt:dt="int">0</Timestamp><DateUtc dt:dt="string">2015-08-14T12:35:26Z</DateUtc></StartTime><FrequencyChanges><FrequencyChange><Frequency dt:dt="r8">2441416</Frequency><Timestamp dt:dt="r8">25560152917</Timestamp><Current dt:dt="r8">0</Current><DateUtc dt:dt="string">2015-08-14T12:35:26Z</DateUtc></FrequencyChange></FrequencyChanges></Clock>\n	1 ver1_main_procedure-26-1	99.924	1.0.0.880	2	nś	-209173707	prawa	1	2.0.10.356	08-14-2015	2015-08-14 12:35:26	14:35:26	kobieta	2.0.10.92	3	3	1	1																							l	{SPACE}		no	BlockProc1		BlockList									50	Cued	l	color_blue.png		0	14	196253	460																								25	prime_left.png	0	195853	0	0	13	0	195853	0	195853	1	195853	20	0	-1	194354	195853	195852	0		TrialProc1	right	0		0	10	196163	-196163		0	0	TrialList1	target_right.png	1	l	0	3	195903	260	l	336	196239												6	1	50				incomp			450
1 ver1_main_procedure	26	1	19	<?xml version="1.0"?>\n<Clock xmlns:dt="urn:schemas-microsoft-com:datatypes"><Description dt:dt="string">E-Prime Primary Realtime Clock</Description><StartTime><Timestamp dt:dt="int">0</Timestamp><DateUtc dt:dt="string">2015-08-14T12:35:26Z</DateUtc></StartTime><FrequencyChanges><FrequencyChange><Frequency dt:dt="r8">2441416</Frequency><Timestamp dt:dt="r8">25560152917</Timestamp><Current dt:dt="r8">0</Current><DateUtc dt:dt="string">2015-08-14T12:35:26Z</DateUtc></FrequencyChange></FrequencyChanges></Clock>\n	1 ver1_main_procedure-26-1	99.924	1.0.0.880	2	nś	-209173707	prawa	1	2.0.10.356	08-14-2015	2015-08-14 12:35:26	14:35:26	kobieta	2.0.10.92	3	3	1	1																							l	{SPACE}		no	BlockProc1		BlockList									51	Free	dl	color_red.png		0	6	198905	310																								25	prime_right.png	0	198525	0	0	13	0	198525	0	198525	1	198525	20	0	-1	197026	198525	198524	0		TrialProc1	right	0		0	10	198835	-198835		0	0	TrialList1	target_both.png	0	dl	0	3	198575	260	l	324	198899												10	1	51				comp			300
1 ver1_main_procedure	26	1	19	<?xml version="1.0"?>\n<Clock xmlns:dt="urn:schemas-microsoft-com:datatypes"><Description dt:dt="string">E-Prime Primary Realtime Clock</Description><StartTime><Timestamp dt:dt="int">0</Timestamp><DateUtc dt:dt="string">2015-08-14T12:35:26Z</DateUtc></StartTime><FrequencyChanges><FrequencyChange><Frequency dt:dt="r8">2441416</Frequency><Timestamp dt:dt="r8">25560152917</Timestamp><Current dt:dt="r8">0</Current><DateUtc dt:dt="string">2015-08-14T12:35:26Z</DateUtc></FrequencyChange></FrequencyChanges></Clock>\n	1 ver1_main_procedure-26-1	99.924	1.0.0.880	2	nś	-209173707	prawa	1	2.0.10.356	08-14-2015	2015-08-14 12:35:26	14:35:26	kobieta	2.0.10.92	3	3	1	1																							l	{SPACE}		no	BlockProc1		BlockList									52	Cued	l	color_red.png		0	6	201317	160																								75	prime_right.png	0	201027	0	0	13	0	201027	0	201027	2	201027	20	0	-1	199528	201027	201025	0		TrialProc1	right	0		0	0	0	0		0	0	TrialList1	target_right.png	1	l	-999999	3	201077	0	l	234	201311												4	1	52				comp			150
1 ver1_main_procedure	26	1	19	<?xml version="1.0"?>\n<Clock xmlns:dt="urn:schemas-microsoft-com:datatypes"><Description dt:dt="string">E-Prime Primary Realtime Clock</Description><StartTime><Timestamp dt:dt="int">0</Timestamp><DateUtc dt:dt="string">2015-08-14T12:35:26Z</DateUtc></StartTime><FrequencyChanges><FrequencyChange><Frequency dt:dt="r8">2441416</Frequency><Timestamp dt:dt="r8">25560152917</Timestamp><Current dt:dt="r8">0</Current><DateUtc dt:dt="string">2015-08-14T12:35:26Z</DateUtc></FrequencyChange></FrequencyChanges></Clock>\n	1 ver1_main_procedure-26-1	99.924	1.0.0.880	2	nś	-209173707	prawa	1	2.0.10.356	08-14-2015	2015-08-14 12:35:26	14:35:26	kobieta	2.0.10.92	3	3	1	1																							l	{SPACE}		no	BlockProc1		BlockList									53	Cued	l	color_green.png		0	13	203618	461																			2					75	prime_right.png	0	203288	0	0	13	0	203288	0	203288	1	203288	20	0	-1	201789	203288	203287	0	prime_right.png	TrialProc1	right	0		1	10	203598	-203598		0	0	TrialList1	target_right.png	1	l	0	3	203338	260	l	267	203605												5	1	53				neut			450
1 ver1_main_procedure	26	1	19	<?xml version="1.0"?>\n<Clock xmlns:dt="urn:schemas-microsoft-com:datatypes"><Description dt:dt="string">E-Prime Primary Realtime Clock</Description><StartTime><Timestamp dt:dt="int">0</Timestamp><DateUtc dt:dt="string">2015-08-14T12:35:26Z</DateUtc></StartTime><FrequencyChanges><FrequencyChange><Frequency dt:dt="r8">2441416</Frequency><Timestamp dt:dt="r8">25560152917</Timestamp><Current dt:dt="r8">0</Current><DateUtc dt:dt="string">2015-08-14T12:35:26Z</DateUtc></FrequencyChange></FrequencyChanges></Clock>\n	1 ver1_main_procedure-26-1	99.924	1.0.0.880	2	nś	-209173707	prawa	1	2.0.10.356	08-14-2015	2015-08-14 12:35:26	14:35:26	kobieta	2.0.10.92	3	3	1	1																							l	{SPACE}		no	BlockProc1		BlockList									54	Cued	l	color_green.png		0	12	206260	311																			1					75	prime_left.png	0	205890	0	0	13	0	205890	0	205890	1	205890	20	0	-1	204391	205890	205889	0	prime_left.png	TrialProc1	right	0		1	10	206200	-206200		0	0	TrialList1	target_right.png	1	l	0	3	205940	260	l	308	206248												5	1	54				neut			300
1 ver1_main_procedure	26	1	19	<?xml version="1.0"?>\n<Clock xmlns:dt="urn:schemas-microsoft-com:datatypes"><Description dt:dt="string">E-Prime Primary Realtime Clock</Description><StartTime><Timestamp dt:dt="int">0</Timestamp><DateUtc dt:dt="string">2015-08-14T12:35:26Z</DateUtc></StartTime><FrequencyChanges><FrequencyChange><Frequency dt:dt="r8">2441416</Frequency><Timestamp dt:dt="r8">25560152917</Timestamp><Current dt:dt="r8">0</Current><DateUtc dt:dt="string">2015-08-14T12:35:26Z</DateUtc></FrequencyChange></FrequencyChanges></Clock>\n	1 ver1_main_procedure-26-1	99.924	1.0.0.880	2	nś	-209173707	prawa	1	2.0.10.356	08-14-2015	2015-08-14 12:35:26	14:35:26	kobieta	2.0.10.92	3	3	1	1																							l	{SPACE}		no	BlockProc1		BlockList									55	Cued	l	color_green.png		0	8	208672	310																			2					25	prime_right.png	0	208382	0	0	13	0	208382	0	208382	1	208382	20	0	-1	206883	208382	208381	0	prime_right.png	TrialProc1	right	0		0	0	0	0		0	0	TrialList1	target_right.png	1	l	-999999	3	208432	0	l	232	208664												5	1	55				neut			300
1 ver1_main_procedure	26	1	19	<?xml version="1.0"?>\n<Clock xmlns:dt="urn:schemas-microsoft-com:datatypes"><Description dt:dt="string">E-Prime Primary Realtime Clock</Description><StartTime><Timestamp dt:dt="int">0</Timestamp><DateUtc dt:dt="string">2015-08-14T12:35:26Z</DateUtc></StartTime><FrequencyChanges><FrequencyChange><Frequency dt:dt="r8">2441416</Frequency><Timestamp dt:dt="r8">25560152917</Timestamp><Current dt:dt="r8">0</Current><DateUtc dt:dt="string">2015-08-14T12:35:26Z</DateUtc></FrequencyChange></FrequencyChanges></Clock>\n	1 ver1_main_procedure-26-1	99.924	1.0.0.880	2	nś	-209173707	prawa	1	2.0.10.356	08-14-2015	2015-08-14 12:35:26	14:35:26	kobieta	2.0.10.92	3	3	1	1																							l	{SPACE}		no	BlockProc1		BlockList									56	Free	dl	color_yellow.png		0	10	211094	160																			1					25	prime_left.png	0	210794	0	0	13	0	210794	0	210794	1	210794	20	0	-1	209295	210794	210793	0	prime_left.png	TrialProc1	right	0		0	0	0	0		0	0	TrialList1	target_both.png	0	dl	-999999	3	210844	0	d	240	211084												11	1	56				neut			150
1 ver1_main_procedure	26	1	19	<?xml version="1.0"?>\n<Clock xmlns:dt="urn:schemas-microsoft-com:datatypes"><Description dt:dt="string">E-Prime Primary Realtime Clock</Description><StartTime><Timestamp dt:dt="int">0</Timestamp><DateUtc dt:dt="string">2015-08-14T12:35:26Z</DateUtc></StartTime><FrequencyChanges><FrequencyChange><Frequency dt:dt="r8">2441416</Frequency><Timestamp dt:dt="r8">25560152917</Timestamp><Current dt:dt="r8">0</Current><DateUtc dt:dt="string">2015-08-14T12:35:26Z</DateUtc></FrequencyChange></FrequencyChanges></Clock>\n	1 ver1_main_procedure-26-1	99.924	1.0.0.880	2	nś	-209173707	prawa	1	2.0.10.356	08-14-2015	2015-08-14 12:35:26	14:35:26	kobieta	2.0.10.92	3	3	1	1																							l	{SPACE}		no	BlockProc1		BlockList									57	Cued	d			0	14	213336	160																								75	prime_right.png	1	213066	0	0	13	1	213066	1	213066	1	213065	20	0	-1	211567	213065	213064	0		TrialProc1	left	0		0	0	0	0		0	0	TrialList1	target_left.png	0	d	-999999	4	213116	0	l	206	213322												3	1	57				incomp			150
1 ver1_main_procedure	26	1	19	<?xml version="1.0"?>\n<Clock xmlns:dt="urn:schemas-microsoft-com:datatypes"><Description dt:dt="string">E-Prime Primary Realtime Clock</Description><StartTime><Timestamp dt:dt="int">0</Timestamp><DateUtc dt:dt="string">2015-08-14T12:35:26Z</DateUtc></StartTime><FrequencyChanges><FrequencyChange><Frequency dt:dt="r8">2441416</Frequency><Timestamp dt:dt="r8">25560152917</Timestamp><Current dt:dt="r8">0</Current><DateUtc dt:dt="string">2015-08-14T12:35:26Z</DateUtc></FrequencyChange></FrequencyChanges></Clock>\n	1 ver1_main_procedure-26-1	99.924	1.0.0.880	2	nś	-209173707	prawa	1	2.0.10.356	08-14-2015	2015-08-14 12:35:26	14:35:26	kobieta	2.0.10.92	3	3	1	1																							l	{SPACE}		no	BlockProc1		BlockList									58	Free	dl	color_red.png		0	13	215577	461																								75	prime_right.png	0	215307	0	0	13	0	215307	0	215307	1	215307	20	0	-1	213808	215307	215306	0		TrialProc1	right	0		0	0	0	0		0	0	TrialList1	target_both.png	0	dl	-999999	3	215357	0	l	207	215564												10	1	58				comp			450
1 ver1_main_procedure	26	1	19	<?xml version="1.0"?>\n<Clock xmlns:dt="urn:schemas-microsoft-com:datatypes"><Description dt:dt="string">E-Prime Primary Realtime Clock</Description><StartTime><Timestamp dt:dt="int">0</Timestamp><DateUtc dt:dt="string">2015-08-14T12:35:26Z</DateUtc></StartTime><FrequencyChanges><FrequencyChange><Frequency dt:dt="r8">2441416</Frequency><Timestamp dt:dt="r8">25560152917</Timestamp><Current dt:dt="r8">0</Current><DateUtc dt:dt="string">2015-08-14T12:35:26Z</DateUtc></FrequencyChange></FrequencyChanges></Clock>\n	1 ver1_main_procedure-26-1	99.924	1.0.0.880	2	nś	-209173707	prawa	1	2.0.10.356	08-14-2015	2015-08-14 12:35:26	14:35:26	kobieta	2.0.10.92	3	3	1	1																							l	{SPACE}		no	BlockProc1		BlockList									59	Cued	d	color_purple.png		0	9	218149	310																								25	prime_right.png	0	217849	0	0	13	0	217849	0	217849	1	217849	20	0	-1	216350	217849	217848	0		TrialProc1	left	0		0	0	0	0		0	0	TrialList1	target_left.png	1	d	-999999	3	217899	0	d	241	218140												3	1	59				incomp			300
1 ver1_main_procedure	26	1	19	<?xml version="1.0"?>\n<Clock xmlns:dt="urn:schemas-microsoft-com:datatypes"><Description dt:dt="string">E-Prime Primary Realtime Clock</Description><StartTime><Timestamp dt:dt="int">0</Timestamp><DateUtc dt:dt="string">2015-08-14T12:35:26Z</DateUtc></StartTime><FrequencyChanges><FrequencyChange><Frequency dt:dt="r8">2441416</Frequency><Timestamp dt:dt="r8">25560152917</Timestamp><Current dt:dt="r8">0</Current><DateUtc dt:dt="string">2015-08-14T12:35:26Z</DateUtc></FrequencyChange></FrequencyChanges></Clock>\n	1 ver1_main_procedure-26-1	99.924	1.0.0.880	2	nś	-209173707	prawa	1	2.0.10.356	08-14-2015	2015-08-14 12:35:26	14:35:26	kobieta	2.0.10.92	3	3	1	1																							l	{SPACE}		no	BlockProc1		BlockList									60	Free	dl	color_orange.png		0	9	220561	310																								75	prime_left.png	0	220271	0	0	13	0	220271	0	220271	1	220271	20	0	-1	218772	220271	220270	0		TrialProc1	left	0		0	0	0	0		0	0	TrialList1	target_both.png	0	dl	-999999	3	220321	0	d	230	220551												7	1	60				comp			300
1 ver1_main_procedure	26	1	19	<?xml version="1.0"?>\n<Clock xmlns:dt="urn:schemas-microsoft-com:datatypes"><Description dt:dt="string">E-Prime Primary Realtime Clock</Description><StartTime><Timestamp dt:dt="int">0</Timestamp><DateUtc dt:dt="string">2015-08-14T12:35:26Z</DateUtc></StartTime><FrequencyChanges><FrequencyChange><Frequency dt:dt="r8">2441416</Frequency><Timestamp dt:dt="r8">25560152917</Timestamp><Current dt:dt="r8">0</Current><DateUtc dt:dt="string">2015-08-14T12:35:26Z</DateUtc></FrequencyChange></FrequencyChanges></Clock>\n	1 ver1_main_procedure-26-1	99.924	1.0.0.880	2	nś	-209173707	prawa	1	2.0.10.356	08-14-2015	2015-08-14 12:35:26	14:35:26	kobieta	2.0.10.92	3	3	1	1																							l	{SPACE}		no	BlockProc1		BlockList									61	Cued	d	color_purple.png		0	10	223003	160																								75	prime_right.png	0	222683	0	0	13	0	222683	0	222683	2	222683	20	0	-1	221184	222683	222681	0		TrialProc1	left	0		-999999	10	222993	0		0	0	TrialList1	target_left.png	1	d	0	3	222733	0	d	257	222990												3	1	61				incomp			150
1 ver1_main_procedure	26	1	19	<?xml version="1.0"?>\n<Clock xmlns:dt="urn:schemas-microsoft-com:datatypes"><Description dt:dt="string">E-Prime Primary Realtime Clock</Description><StartTime><Timestamp dt:dt="int">0</Timestamp><DateUtc dt:dt="string">2015-08-14T12:35:26Z</DateUtc></StartTime><FrequencyChanges><FrequencyChange><Frequency dt:dt="r8">2441416</Frequency><Timestamp dt:dt="r8">25560152917</Timestamp><Current dt:dt="r8">0</Current><DateUtc dt:dt="string">2015-08-14T12:35:26Z</DateUtc></FrequencyChange></FrequencyChanges></Clock>\n	1 ver1_main_procedure-26-1	99.924	1.0.0.880	2	nś	-209173707	prawa	1	2.0.10.356	08-14-2015	2015-08-14 12:35:26	14:35:26	kobieta	2.0.10.92	3	3	1	1																							l	{SPACE}		no	BlockProc1		BlockList									62	Cued	l	color_blue.png		0	9	225375	460																								75	prime_left.png	0	224974	0	0	13	1	224975	1	224975	1	224974	20	0	-1	223475	224974	224973	0		TrialProc1	right	0		0	11	225285	-225285		0	0	TrialList1	target_right.png	1	l	0	3	225024	261	l	342	225366												6	1	62				incomp			450
1 ver1_main_procedure	26	1	19	<?xml version="1.0"?>\n<Clock xmlns:dt="urn:schemas-microsoft-com:datatypes"><Description dt:dt="string">E-Prime Primary Realtime Clock</Description><StartTime><Timestamp dt:dt="int">0</Timestamp><DateUtc dt:dt="string">2015-08-14T12:35:26Z</DateUtc></StartTime><FrequencyChanges><FrequencyChange><Frequency dt:dt="r8">2441416</Frequency><Timestamp dt:dt="r8">25560152917</Timestamp><Current dt:dt="r8">0</Current><DateUtc dt:dt="string">2015-08-14T12:35:26Z</DateUtc></FrequencyChange></FrequencyChanges></Clock>\n	1 ver1_main_procedure-26-1	99.924	1.0.0.880	2	nś	-209173707	prawa	1	2.0.10.356	08-14-2015	2015-08-14 12:35:26	14:35:26	kobieta	2.0.10.92	3	3	1	1																							l	{SPACE}		no	BlockProc1		BlockList									63	Free	dl	color_orange.png		0	10	227916	161																								75	prime_left.png	0	227646	0	0	13	0	227646	0	227646	1	227646	20	0	-1	226147	227646	227645	0		TrialProc1	left	0		0	0	0	0		0	0	TrialList1	target_both.png	0	dl	-999999	3	227696	0	d	210	227906												7	1	63				comp			150
1 ver1_main_procedure	26	1	19	<?xml version="1.0"?>\n<Clock xmlns:dt="urn:schemas-microsoft-com:datatypes"><Description dt:dt="string">E-Prime Primary Realtime Clock</Description><StartTime><Timestamp dt:dt="int">0</Timestamp><DateUtc dt:dt="string">2015-08-14T12:35:26Z</DateUtc></StartTime><FrequencyChanges><FrequencyChange><Frequency dt:dt="r8">2441416</Frequency><Timestamp dt:dt="r8">25560152917</Timestamp><Current dt:dt="r8">0</Current><DateUtc dt:dt="string">2015-08-14T12:35:26Z</DateUtc></FrequencyChange></FrequencyChanges></Clock>\n	1 ver1_main_procedure-26-1	99.924	1.0.0.880	2	nś	-209173707	prawa	1	2.0.10.356	08-14-2015	2015-08-14 12:35:26	14:35:26	kobieta	2.0.10.92	3	3	1	1																							l	{SPACE}		no	BlockProc1		BlockList									64	Free	dl	color_orange.png		0	14	230268	461																								75	prime_left.png	0	229888	0	0	13	0	229888	0	229888	1	229888	20	0	-1	228389	229888	229887	0		TrialProc1	right	0		0	10	230198	-230198		0	0	TrialList1	target_both.png	0	dl	0	3	229938	260	d	316	230254												12	1	64				incomp			450
1 ver1_main_procedure	26	1	19	<?xml version="1.0"?>\n<Clock xmlns:dt="urn:schemas-microsoft-com:datatypes"><Description dt:dt="string">E-Prime Primary Realtime Clock</Description><StartTime><Timestamp dt:dt="int">0</Timestamp><DateUtc dt:dt="string">2015-08-14T12:35:26Z</DateUtc></StartTime><FrequencyChanges><FrequencyChange><Frequency dt:dt="r8">2441416</Frequency><Timestamp dt:dt="r8">25560152917</Timestamp><Current dt:dt="r8">0</Current><DateUtc dt:dt="string">2015-08-14T12:35:26Z</DateUtc></FrequencyChange></FrequencyChanges></Clock>\n	1 ver1_main_procedure-26-1	99.924	1.0.0.880	2	nś	-209173707	prawa	1	2.0.10.356	08-14-2015	2015-08-14 12:35:26	14:35:26	kobieta	2.0.10.92	3	3	1	1																							l	{SPACE}		no	BlockProc1		BlockList									65	Free	dl	color_purple.png		0	12	232890	310																								25	prime_right.png	0	232540	0	0	13	0	232540	0	232540	1	232540	20	0	-1	231041	232540	232539	0		TrialProc1	left	0		0	10	232850	-232850		0	0	TrialList1	target_both.png	0	dl	0	3	232590	260	d	288	232878												9	1	65				incomp			300
1 ver1_main_procedure	26	1	19	<?xml version="1.0"?>\n<Clock xmlns:dt="urn:schemas-microsoft-com:datatypes"><Description dt:dt="string">E-Prime Primary Realtime Clock</Description><StartTime><Timestamp dt:dt="int">0</Timestamp><DateUtc dt:dt="string">2015-08-14T12:35:26Z</DateUtc></StartTime><FrequencyChanges><FrequencyChange><Frequency dt:dt="r8">2441416</Frequency><Timestamp dt:dt="r8">25560152917</Timestamp><Current dt:dt="r8">0</Current><DateUtc dt:dt="string">2015-08-14T12:35:26Z</DateUtc></FrequencyChange></FrequencyChanges></Clock>\n	1 ver1_main_procedure-26-1	99.924	1.0.0.880	2	nś	-209173707	prawa	1	2.0.10.356	08-14-2015	2015-08-14 12:35:26	14:35:26	kobieta	2.0.10.92	3	3	1	1																							l	{SPACE}		no	BlockProc1		BlockList									66	Cued	d	color_orange.png		0	6	235322	160																								25	prime_left.png	0	235012	0	0	13	0	235012	0	235012	1	235012	20	0	-1	233513	235012	235011	0		TrialProc1	left	0		-999999	0	0	0		0	0	TrialList1	target_left.png	1	d	0	3	235062	0	d	254	235316												1	1	66				comp			150
1 ver1_main_procedure	26	1	19	<?xml version="1.0"?>\n<Clock xmlns:dt="urn:schemas-microsoft-com:datatypes"><Description dt:dt="string">E-Prime Primary Realtime Clock</Description><StartTime><Timestamp dt:dt="int">0</Timestamp><DateUtc dt:dt="string">2015-08-14T12:35:26Z</DateUtc></StartTime><FrequencyChanges><FrequencyChange><Frequency dt:dt="r8">2441416</Frequency><Timestamp dt:dt="r8">25560152917</Timestamp><Current dt:dt="r8">0</Current><DateUtc dt:dt="string">2015-08-14T12:35:26Z</DateUtc></FrequencyChange></FrequencyChanges></Clock>\n	1 ver1_main_procedure-26-1	99.924	1.0.0.880	2	nś	-209173707	prawa	1	2.0.10.356	08-14-2015	2015-08-14 12:35:26	14:35:26	kobieta	2.0.10.92	3	3	1	1																							l	{SPACE}		no	BlockProc1		BlockList									67	Cued	d			0	10	237614	310																								75	prime_right.png	0	237293	0	0	13	1	237294	1	237294	1	237293	20	0	-1	235795	237293	237292	0		TrialProc1	left	0		-999999	11	237604	0		0	0	TrialList1	target_left.png	0	d	0	3	237343	0	l	259	237602												3	1	67				incomp			300
1 ver1_main_procedure	26	1	19	<?xml version="1.0"?>\n<Clock xmlns:dt="urn:schemas-microsoft-com:datatypes"><Description dt:dt="string">E-Prime Primary Realtime Clock</Description><StartTime><Timestamp dt:dt="int">0</Timestamp><DateUtc dt:dt="string">2015-08-14T12:35:26Z</DateUtc></StartTime><FrequencyChanges><FrequencyChange><Frequency dt:dt="r8">2441416</Frequency><Timestamp dt:dt="r8">25560152917</Timestamp><Current dt:dt="r8">0</Current><DateUtc dt:dt="string">2015-08-14T12:35:26Z</DateUtc></FrequencyChange></FrequencyChanges></Clock>\n	1 ver1_main_procedure-26-1	99.924	1.0.0.880	2	nś	-209173707	prawa	1	2.0.10.356	08-14-2015	2015-08-14 12:35:26	14:35:26	kobieta	2.0.10.92	3	3	1	1																							l	{SPACE}		no	BlockProc1		BlockList									68	Cued	l	color_blue.png		0	5	240146	460																								25	prime_left.png	0	239735	0	0	13	0	239735	0	239735	1	239735	20	0	-1	238236	239735	239734	0		TrialProc1	right	0		1	10	240045	-240045		0	0	TrialList1	target_right.png	1	l	0	3	239785	260	l	356	240141												6	1	68				incomp			450
1 ver1_main_procedure	26	1	19	<?xml version="1.0"?>\n<Clock xmlns:dt="urn:schemas-microsoft-com:datatypes"><Description dt:dt="string">E-Prime Primary Realtime Clock</Description><StartTime><Timestamp dt:dt="int">0</Timestamp><DateUtc dt:dt="string">2015-08-14T12:35:26Z</DateUtc></StartTime><FrequencyChanges><FrequencyChange><Frequency dt:dt="r8">2441416</Frequency><Timestamp dt:dt="r8">25560152917</Timestamp><Current dt:dt="r8">0</Current><DateUtc dt:dt="string">2015-08-14T12:35:26Z</DateUtc></FrequencyChange></FrequencyChanges></Clock>\n	1 ver1_main_procedure-26-1	99.924	1.0.0.880	2	nś	-209173707	prawa	1	2.0.10.356	08-14-2015	2015-08-14 12:35:26	14:35:26	kobieta	2.0.10.92	3	3	1	1																							l	{SPACE}		no	BlockProc1		BlockList									69	Free	dl	color_orange.png		0	7	242818	310																								25	prime_left.png	0	242417	0	0	13	0	242417	0	242417	1	242417	20	0	-1	240918	242417	242416	0		TrialProc1	left	0		1	10	242727	-242727		0	0	TrialList1	target_both.png	0	dl	0	3	242467	260	d	344	242811												7	1	69				comp			300
1 ver1_main_procedure	26	1	19	<?xml version="1.0"?>\n<Clock xmlns:dt="urn:schemas-microsoft-com:datatypes"><Description dt:dt="string">E-Prime Primary Realtime Clock</Description><StartTime><Timestamp dt:dt="int">0</Timestamp><DateUtc dt:dt="string">2015-08-14T12:35:26Z</DateUtc></StartTime><FrequencyChanges><FrequencyChange><Frequency dt:dt="r8">2441416</Frequency><Timestamp dt:dt="r8">25560152917</Timestamp><Current dt:dt="r8">0</Current><DateUtc dt:dt="string">2015-08-14T12:35:26Z</DateUtc></FrequencyChange></FrequencyChanges></Clock>\n	1 ver1_main_procedure-26-1	99.924	1.0.0.880	2	nś	-209173707	prawa	1	2.0.10.356	08-14-2015	2015-08-14 12:35:26	14:35:26	kobieta	2.0.10.92	3	3	1	1																							l	{SPACE}		no	BlockProc1		BlockList									70	Cued	l			0	8	245229	160																								25	prime_left.png	0	244939	0	0	13	0	244939	0	244939	1	244939	20	0	-1	243440	244939	244938	0		TrialProc1	right	0		0	0	0	0		0	0	TrialList1	target_right.png	0	l	-999999	3	244989	0	d	232	245221												6	1	70				incomp			150
1 ver1_main_procedure	26	1	19	<?xml version="1.0"?>\n<Clock xmlns:dt="urn:schemas-microsoft-com:datatypes"><Description dt:dt="string">E-Prime Primary Realtime Clock</Description><StartTime><Timestamp dt:dt="int">0</Timestamp><DateUtc dt:dt="string">2015-08-14T12:35:26Z</DateUtc></StartTime><FrequencyChanges><FrequencyChange><Frequency dt:dt="r8">2441416</Frequency><Timestamp dt:dt="r8">25560152917</Timestamp><Current dt:dt="r8">0</Current><DateUtc dt:dt="string">2015-08-14T12:35:26Z</DateUtc></FrequencyChange></FrequencyChanges></Clock>\n	1 ver1_main_procedure-26-1	99.924	1.0.0.880	2	nś	-209173707	prawa	1	2.0.10.356	08-14-2015	2015-08-14 12:35:26	14:35:26	kobieta	2.0.10.92	3	3	1	1																							l	{SPACE}		no	BlockProc1		BlockList									71	Cued	l	color_red.png		0	12	247491	310																								75	prime_right.png	0	247201	0	0	13	0	247201	0	247201	1	247201	20	0	-1	245702	247201	247200	0		TrialProc1	right	0		0	0	0	0		0	0	TrialList1	target_right.png	1	l	-999999	3	247251	0	l	228	247479												4	1	71				comp			300
1 ver1_main_procedure	26	1	19	<?xml version="1.0"?>\n<Clock xmlns:dt="urn:schemas-microsoft-com:datatypes"><Description dt:dt="string">E-Prime Primary Realtime Clock</Description><StartTime><Timestamp dt:dt="int">0</Timestamp><DateUtc dt:dt="string">2015-08-14T12:35:26Z</DateUtc></StartTime><FrequencyChanges><FrequencyChange><Frequency dt:dt="r8">2441416</Frequency><Timestamp dt:dt="r8">25560152917</Timestamp><Current dt:dt="r8">0</Current><DateUtc dt:dt="string">2015-08-14T12:35:26Z</DateUtc></FrequencyChange></FrequencyChanges></Clock>\n	1 ver1_main_procedure-26-1	99.924	1.0.0.880	2	nś	-209173707	prawa	1	2.0.10.356	08-14-2015	2015-08-14 12:35:26	14:35:26	kobieta	2.0.10.92	3	3	1	1																							l	{SPACE}		no	BlockProc1		BlockList									72	Cued	d	color_yellow.png		0	14	249983	310																			2					25	prime_right.png	0	249613	0	0	13	0	249613	0	249613	2	249613	20	0	-1	248114	249613	249611	0	prime_right.png	TrialProc1	left	0		0	10	249923	-249923		0	0	TrialList1	target_left.png	1	d	0	3	249663	260	d	306	249969												2	1	72				neut			300
1 ver1_main_procedure	26	1	19	<?xml version="1.0"?>\n<Clock xmlns:dt="urn:schemas-microsoft-com:datatypes"><Description dt:dt="string">E-Prime Primary Realtime Clock</Description><StartTime><Timestamp dt:dt="int">0</Timestamp><DateUtc dt:dt="string">2015-08-14T12:35:26Z</DateUtc></StartTime><FrequencyChanges><FrequencyChange><Frequency dt:dt="r8">2441416</Frequency><Timestamp dt:dt="r8">25560152917</Timestamp><Current dt:dt="r8">0</Current><DateUtc dt:dt="string">2015-08-14T12:35:26Z</DateUtc></FrequencyChange></FrequencyChanges></Clock>\n	1 ver1_main_procedure-26-1	99.924	1.0.0.880	2	nś	-209173707	prawa	1	2.0.10.356	08-14-2015	2015-08-14 12:35:26	14:35:26	kobieta	2.0.10.92	3	3	1	1																							l	{SPACE}		no	BlockProc1		BlockList									73									2	3	1	5	6	4	color_red.png	color_yellow.png	color_purple.png	color_green.png	color_blue.png	color_orange.png	color_purple.png	color_red.png	color_yellow.png	color_orange.png	color_green.png	color_blue.png		1	1	1	18878																						DragProc											Ocena																															
1 ver1_main_procedure	26	1	19	<?xml version="1.0"?>\n<Clock xmlns:dt="urn:schemas-microsoft-com:datatypes"><Description dt:dt="string">E-Prime Primary Realtime Clock</Description><StartTime><Timestamp dt:dt="int">0</Timestamp><DateUtc dt:dt="string">2015-08-14T12:35:26Z</DateUtc></StartTime><FrequencyChanges><FrequencyChange><Frequency dt:dt="r8">2441416</Frequency><Timestamp dt:dt="r8">25560152917</Timestamp><Current dt:dt="r8">0</Current><DateUtc dt:dt="string">2015-08-14T12:35:26Z</DateUtc></FrequencyChange></FrequencyChanges></Clock>\n	1 ver1_main_procedure-26-1	99.924	1.0.0.880	2	nś	-209173707	prawa	1	2.0.10.356	08-14-2015	2015-08-14 12:35:26	14:35:26	kobieta	2.0.10.92	3	3	1	1																							l	{SPACE}		no	BlockProc1		BlockList									74															color_red.png	color_yellow.png	color_purple.png	color_green.png	color_blue.png	color_orange.png								2	1	2																							EnterProc											Ocena												5	7	8	15	25	40														
1 ver1_main_procedure	26	1	19	<?xml version="1.0"?>\n<Clock xmlns:dt="urn:schemas-microsoft-com:datatypes"><Description dt:dt="string">E-Prime Primary Realtime Clock</Description><StartTime><Timestamp dt:dt="int">0</Timestamp><DateUtc dt:dt="string">2015-08-14T12:35:26Z</DateUtc></StartTime><FrequencyChanges><FrequencyChange><Frequency dt:dt="r8">2441416</Frequency><Timestamp dt:dt="r8">25560152917</Timestamp><Current dt:dt="r8">0</Current><DateUtc dt:dt="string">2015-08-14T12:35:26Z</DateUtc></FrequencyChange></FrequencyChanges></Clock>\n	1 ver1_main_procedure-26-1	99.924	1.0.0.880	2	nś	-209173707	prawa	1	2.0.10.356	08-14-2015	2015-08-14 12:35:26	14:35:26	kobieta	2.0.10.92	4	6	1	2																							l	{SPACE}		no	BlockProc2		BlockList									1	Free	dl	color_blue.png		0	10	366169	460																								25	prime_right.png	0	365799	0	0	13	0	365799	0	365799	1	365799	20	0	-1	364300	365799	365798	0		TrialProc1	right	0		0	10	366109	-366109		0	0	TrialList2	target_both.png	0	dl	0	3	365849	260	l	310	366159															10	1	1	comp			450
1 ver1_main_procedure	26	1	19	<?xml version="1.0"?>\n<Clock xmlns:dt="urn:schemas-microsoft-com:datatypes"><Description dt:dt="string">E-Prime Primary Realtime Clock</Description><StartTime><Timestamp dt:dt="int">0</Timestamp><DateUtc dt:dt="string">2015-08-14T12:35:26Z</DateUtc></StartTime><FrequencyChanges><FrequencyChange><Frequency dt:dt="r8">2441416</Frequency><Timestamp dt:dt="r8">25560152917</Timestamp><Current dt:dt="r8">0</Current><DateUtc dt:dt="string">2015-08-14T12:35:26Z</DateUtc></FrequencyChange></FrequencyChanges></Clock>\n	1 ver1_main_procedure-26-1	99.924	1.0.0.880	2	nś	-209173707	prawa	1	2.0.10.356	08-14-2015	2015-08-14 12:35:26	14:35:26	kobieta	2.0.10.92	4	6	1	2																							l	{SPACE}		no	BlockProc2		BlockList									2	Free	dl	color_yellow.png		0	8	368691	310																								75	prime_left.png	0	368441	0	0	13	0	368441	0	368441	2	368441	20	0	-1	366942	368441	368439	0		TrialProc1	right	0		0	0	0	0		0	0	TrialList2	target_both.png	0	dl	-999999	3	368491	0	d	192	368683															12	1	2	incomp			300
1 ver1_main_procedure	26	1	19	<?xml version="1.0"?>\n<Clock xmlns:dt="urn:schemas-microsoft-com:datatypes"><Description dt:dt="string">E-Prime Primary Realtime Clock</Description><StartTime><Timestamp dt:dt="int">0</Timestamp><DateUtc dt:dt="string">2015-08-14T12:35:26Z</DateUtc></StartTime><FrequencyChanges><FrequencyChange><Frequency dt:dt="r8">2441416</Frequency><Timestamp dt:dt="r8">25560152917</Timestamp><Current dt:dt="r8">0</Current><DateUtc dt:dt="string">2015-08-14T12:35:26Z</DateUtc></FrequencyChange></FrequencyChanges></Clock>\n	1 ver1_main_procedure-26-1	99.924	1.0.0.880	2	nś	-209173707	prawa	1	2.0.10.356	08-14-2015	2015-08-14 12:35:26	14:35:26	kobieta	2.0.10.92	4	6	1	2																							l	{SPACE}		no	BlockProc2		BlockList									3	Free	dl	color_yellow.png		0	12	371143	160																								75	prime_left.png	0	370812	0	0	13	1	370813	1	370813	1	370812	20	0	-1	369314	370812	370811	0		TrialProc1	left	0		0	11	371123	-371123		0	0	TrialList2	target_both.png	0	dl	0	3	370862	261	d	269	371131															7	1	3	comp			150
1 ver1_main_procedure	26	1	19	<?xml version="1.0"?>\n<Clock xmlns:dt="urn:schemas-microsoft-com:datatypes"><Description dt:dt="string">E-Prime Primary Realtime Clock</Description><StartTime><Timestamp dt:dt="int">0</Timestamp><DateUtc dt:dt="string">2015-08-14T12:35:26Z</DateUtc></StartTime><FrequencyChanges><FrequencyChange><Frequency dt:dt="r8">2441416</Frequency><Timestamp dt:dt="r8">25560152917</Timestamp><Current dt:dt="r8">0</Current><DateUtc dt:dt="string">2015-08-14T12:35:26Z</DateUtc></FrequencyChange></FrequencyChanges></Clock>\n	1 ver1_main_procedure-26-1	99.924	1.0.0.880	2	nś	-209173707	prawa	1	2.0.10.356	08-14-2015	2015-08-14 12:35:26	14:35:26	kobieta	2.0.10.92	4	6	1	2																							l	{SPACE}		no	BlockProc2		BlockList									4	Free	dl	color_blue.png		0	4	373524	461																								25	prime_right.png	0	373114	0	0	13	0	373114	0	373114	1	373114	20	0	-1	371615	373114	373113	0		TrialProc1	right	0		0	10	373424	-373424		0	0	TrialList2	target_both.png	0	dl	0	3	373164	260	l	356	373520															10	1	4	comp			450
1 ver1_main_procedure	26	1	19	<?xml version="1.0"?>\n<Clock xmlns:dt="urn:schemas-microsoft-com:datatypes"><Description dt:dt="string">E-Prime Primary Realtime Clock</Description><StartTime><Timestamp dt:dt="int">0</Timestamp><DateUtc dt:dt="string">2015-08-14T12:35:26Z</DateUtc></StartTime><FrequencyChanges><FrequencyChange><Frequency dt:dt="r8">2441416</Frequency><Timestamp dt:dt="r8">25560152917</Timestamp><Current dt:dt="r8">0</Current><DateUtc dt:dt="string">2015-08-14T12:35:26Z</DateUtc></FrequencyChange></FrequencyChanges></Clock>\n	1 ver1_main_procedure-26-1	99.924	1.0.0.880	2	nś	-209173707	prawa	1	2.0.10.356	08-14-2015	2015-08-14 12:35:26	14:35:26	kobieta	2.0.10.92	4	6	1	2																							l	{SPACE}		no	BlockProc2		BlockList									5	Free	dl	color_blue.png		0	8	376196	461																								25	prime_right.png	0	375796	0	0	13	0	375796	0	375796	1	375796	20	0	-1	374297	375796	375795	0		TrialProc1	left	0		0	10	376106	-376106		0	0	TrialList2	target_both.png	0	dl	0	3	375846	260	l	342	376188															9	1	5	incomp			450
1 ver1_main_procedure	26	1	19	<?xml version="1.0"?>\n<Clock xmlns:dt="urn:schemas-microsoft-com:datatypes"><Description dt:dt="string">E-Prime Primary Realtime Clock</Description><StartTime><Timestamp dt:dt="int">0</Timestamp><DateUtc dt:dt="string">2015-08-14T12:35:26Z</DateUtc></StartTime><FrequencyChanges><FrequencyChange><Frequency dt:dt="r8">2441416</Frequency><Timestamp dt:dt="r8">25560152917</Timestamp><Current dt:dt="r8">0</Current><DateUtc dt:dt="string">2015-08-14T12:35:26Z</DateUtc></FrequencyChange></FrequencyChanges></Clock>\n	1 ver1_main_procedure-26-1	99.924	1.0.0.880	2	nś	-209173707	prawa	1	2.0.10.356	08-14-2015	2015-08-14 12:35:26	14:35:26	kobieta	2.0.10.92	4	6	1	2																							l	{SPACE}		no	BlockProc2		BlockList									6	Cued	l			0	10	378768	461																								25	prime_left.png	0	378468	0	0	13	0	378468	0	378468	1	378468	20	0	-1	376969	378468	378467	0		TrialProc1	right	0		0	0	0	0		0	0	TrialList2	target_right.png	0	l	-999999	3	378518	0	d	240	378758															6	1	6	incomp			450
1 ver1_main_procedure	26	1	19	<?xml version="1.0"?>\n<Clock xmlns:dt="urn:schemas-microsoft-com:datatypes"><Description dt:dt="string">E-Prime Primary Realtime Clock</Description><StartTime><Timestamp dt:dt="int">0</Timestamp><DateUtc dt:dt="string">2015-08-14T12:35:26Z</DateUtc></StartTime><FrequencyChanges><FrequencyChange><Frequency dt:dt="r8">2441416</Frequency><Timestamp dt:dt="r8">25560152917</Timestamp><Current dt:dt="r8">0</Current><DateUtc dt:dt="string">2015-08-14T12:35:26Z</DateUtc></FrequencyChange></FrequencyChanges></Clock>\n	1 ver1_main_procedure-26-1	99.924	1.0.0.880	2	nś	-209173707	prawa	1	2.0.10.356	08-14-2015	2015-08-14 12:35:26	14:35:26	kobieta	2.0.10.92	4	6	1	2																							l	{SPACE}		no	BlockProc2		BlockList									7	Free	dl	color_yellow.png		0	6	381390	160																								75	prime_left.png	0	381040	0	0	13	0	381040	0	381040	1	381040	20	0	-1	379541	381040	381039	0		TrialProc1	right	0		0	10	381350	-381350		0	0	TrialList2	target_both.png	0	dl	0	3	381090	260	d	294	381384															12	1	7	incomp			150
1 ver1_main_procedure	26	1	19	<?xml version="1.0"?>\n<Clock xmlns:dt="urn:schemas-microsoft-com:datatypes"><Description dt:dt="string">E-Prime Primary Realtime Clock</Description><StartTime><Timestamp dt:dt="int">0</Timestamp><DateUtc dt:dt="string">2015-08-14T12:35:26Z</DateUtc></StartTime><FrequencyChanges><FrequencyChange><Frequency dt:dt="r8">2441416</Frequency><Timestamp dt:dt="r8">25560152917</Timestamp><Current dt:dt="r8">0</Current><DateUtc dt:dt="string">2015-08-14T12:35:26Z</DateUtc></FrequencyChange></FrequencyChanges></Clock>\n	1 ver1_main_procedure-26-1	99.924	1.0.0.880	2	nś	-209173707	prawa	1	2.0.10.356	08-14-2015	2015-08-14 12:35:26	14:35:26	kobieta	2.0.10.92	4	6	1	2																							l	{SPACE}		no	BlockProc2		BlockList									8	Free	dl	color_orange.png		0	12	383752	310																								75	prime_right.png	0	383362	0	0	13	0	383362	0	383362	1	383362	20	0	-1	381863	383362	383361	0		TrialProc1	left	0		0	10	383672	-383672		0	0	TrialList2	target_both.png	0	dl	0	3	383412	260	d	327	383739															9	1	8	incomp			300
1 ver1_main_procedure	26	1	19	<?xml version="1.0"?>\n<Clock xmlns:dt="urn:schemas-microsoft-com:datatypes"><Description dt:dt="string">E-Prime Primary Realtime Clock</Description><StartTime><Timestamp dt:dt="int">0</Timestamp><DateUtc dt:dt="string">2015-08-14T12:35:26Z</DateUtc></StartTime><FrequencyChanges><FrequencyChange><Frequency dt:dt="r8">2441416</Frequency><Timestamp dt:dt="r8">25560152917</Timestamp><Current dt:dt="r8">0</Current><DateUtc dt:dt="string">2015-08-14T12:35:26Z</DateUtc></FrequencyChange></FrequencyChanges></Clock>\n	1 ver1_main_procedure-26-1	99.924	1.0.0.880	2	nś	-209173707	prawa	1	2.0.10.356	08-14-2015	2015-08-14 12:35:26	14:35:26	kobieta	2.0.10.92	4	6	1	2																							l	{SPACE}		no	BlockProc2		BlockList									9	Cued	l	color_purple.png		0	14	386244	460																			1					75	prime_left.png	1	385874	0	0	13	1	385874	1	385874	1	385873	21	0	-1	384375	385873	385872	0	prime_left.png	TrialProc1	right	0		0	10	386184	-386184		0	0	TrialList2	target_right.png	1	l	0	3	385924	260	l	305	386229															5	1	9	neut			450
1 ver1_main_procedure	26	1	19	<?xml version="1.0"?>\n<Clock xmlns:dt="urn:schemas-microsoft-com:datatypes"><Description dt:dt="string">E-Prime Primary Realtime Clock</Description><StartTime><Timestamp dt:dt="int">0</Timestamp><DateUtc dt:dt="string">2015-08-14T12:35:26Z</DateUtc></StartTime><FrequencyChanges><FrequencyChange><Frequency dt:dt="r8">2441416</Frequency><Timestamp dt:dt="r8">25560152917</Timestamp><Current dt:dt="r8">0</Current><DateUtc dt:dt="string">2015-08-14T12:35:26Z</DateUtc></FrequencyChange></FrequencyChanges></Clock>\n	1 ver1_main_procedure-26-1	99.924	1.0.0.880	2	nś	-209173707	prawa	1	2.0.10.356	08-14-2015	2015-08-14 12:35:26	14:35:26	kobieta	2.0.10.92	4	6	1	2																							l	{SPACE}		no	BlockProc2		BlockList									10	Free	dl	color_orange.png		0	10	388916	160																								25	prime_right.png	1	388516	0	0	13	1	388516	1	388516	1	388515	20	0	-1	387017	388515	388514	0		TrialProc1	right	0		0	11	388826	-388826		0	0	TrialList2	target_both.png	0	dl	0	3	388565	261	d	341	388906															10	1	10	comp			150
