ExperimentName	Subject	Session	Age	Clock.Information	DataFile.Basename	Display.RefreshRate	ExperimentVersion	Group	Name	RandomSeed	Recznosc	ResearcherID	RuntimeVersion	SessionDate	SessionStartDateTimeUtc	SessionTime	Sex	StudioVersion	Block	BlockList	BlockList.Cycle	BlockList.Sample	BlockNumber	GoodBye.RESP	GoodBye2.RESP	GoodByeList	GoodByeList.Cycle	GoodByeList.Sample	InstrList	InstrList.Cycle	InstrList.Sample	Instructions3.RESP	Instructions4.RESP	Instructions5.RESP	kobieta_S1	kobieta_S2	kobieta_S3	kobieta_S4	kobieta_S5	mezczyzna_S1	mezczyzna_S2	mezczyzna_S3	mezczyzna_S4	mezczyzna_S5	NextBlock.RESP	NextBlock0.RESP	planowanie	PracticeMode	Procedure[Block]	proszenie	Running[Block]	TrainingList	TrainingList.Cycle	TrainingList.Sample	WordList	WordList1	wykonanie	zauwazenie	zrozumienie	Trial	ChoiceType	CorrectRespon	Effect	ErrorText	Fixation2.DurationError	Fixation2.OnsetDelay	Fixation2.OnsetTime	Fixation2.OnsetToOnsetTime	GoalRespInd1	GoalRespInd2	GoalRespInd3	GoalRespInd4	GoalRespInd5	GoalRespInd6	GoalRespName1	GoalRespName2	GoalRespName3	GoalRespName4	GoalRespName5	GoalRespName6	kol1	kol2	kol3	kol4	kol5	kol6	NeutralPrimeList1	Ocena	Ocena.Cycle	Ocena.Sample	OverallRT	Posit	Prime	Prime.ActionDelay	Prime.ActionTime	Prime.CustomOffsetTime	Prime.CustomOnsetTime	Prime.Duration	Prime.DurationError	Prime.FinishTime	Prime.OffsetDelay	Prime.OffsetTime	Prime.OnsetDelay	Prime.OnsetTime	Prime.OnsetToOnsetTime	Prime.PendingInputMasks	Prime.PreRelease	Prime.StartTime	Prime.TargetOffsetTime	Prime.TargetOnsetTime	Prime.TimingMode	PrimeChoice	Procedure[Trial]	Resp	RespWin.ACC	RespWin.CRESP	RespWin.DurationError	RespWin.OnsetDelay	RespWin.OnsetTime	RespWin.OnsetToOnsetTime	RespWin.RESP	RespWin.RT	RespWin.RTTime	Running[Trial]	Target	TargetSlide.ACC	TargetSlide.CRESP	TargetSlide.DurationError	TargetSlide.OnsetDelay	TargetSlide.OnsetTime	TargetSlide.OnsetToOnsetTime	TargetSlide.RESP	TargetSlide.RT	TargetSlide.RTTime	TargetTraining	TBox1	TBox2	TBox3	TBox4	TBox5	TBox6	TrainingList1	TrainingList1.Cycle	TrainingList1.Sample	TrCorrectResp	TrialList1	TrialList1.Cycle	TrialList1.Sample	TrialList2	TrialList2.Cycle	TrialList2.Sample	TrialType	TrPosit	TrWaitTime	WaitTime
1 ver1_main_procedure	28	1	28	<?xml version="1.0"?>\n<Clock xmlns:dt="urn:schemas-microsoft-com:datatypes"><Description dt:dt="string">E-Prime Primary Realtime Clock</Description><StartTime><Timestamp dt:dt="int">0</Timestamp><DateUtc dt:dt="string">2015-08-14T13:09:43Z</DateUtc></StartTime><FrequencyChanges><FrequencyChange><Frequency dt:dt="r8">2441416</Frequency><Timestamp dt:dt="r8">30583066389</Timestamp><Current dt:dt="r8">0</Current><DateUtc dt:dt="string">2015-08-14T13:09:43Z</DateUtc></FrequencyChange></FrequencyChanges></Clock>\n	1 ver1_main_procedure-28-1	99.925	1.0.0.880	2	pj	518776876	prawa	1	2.0.10.356	08-14-2015	2015-08-14 13:09:44	15:09:44	kobieta	2.0.10.92	1										1	1	1	{SPACE}	{SPACE}	l	poproszona	planowała	zrozumiałaś	wykonała		poproszony	planował	zrozumiałeś	wykonał				planowała		InstrProc	poproszona	InstrList				1		wykonała		zrozumiałaś																																																																																																
1 ver1_main_procedure	28	1	28	<?xml version="1.0"?>\n<Clock xmlns:dt="urn:schemas-microsoft-com:datatypes"><Description dt:dt="string">E-Prime Primary Realtime Clock</Description><StartTime><Timestamp dt:dt="int">0</Timestamp><DateUtc dt:dt="string">2015-08-14T13:09:43Z</DateUtc></StartTime><FrequencyChanges><FrequencyChange><Frequency dt:dt="r8">2441416</Frequency><Timestamp dt:dt="r8">30583066389</Timestamp><Current dt:dt="r8">0</Current><DateUtc dt:dt="string">2015-08-14T13:09:43Z</DateUtc></FrequencyChange></FrequencyChanges></Clock>\n	1 ver1_main_procedure-28-1	99.925	1.0.0.880	2	pj	518776876	prawa	1	2.0.10.356	08-14-2015	2015-08-14 13:09:44	15:09:44	kobieta	2.0.10.92	2																														TrainingProc1		TrainingList	1	1	1						1																																																					TrainProc											TrainingList1											target_both.png							3	1	1	dl								25	450	
1 ver1_main_procedure	28	1	28	<?xml version="1.0"?>\n<Clock xmlns:dt="urn:schemas-microsoft-com:datatypes"><Description dt:dt="string">E-Prime Primary Realtime Clock</Description><StartTime><Timestamp dt:dt="int">0</Timestamp><DateUtc dt:dt="string">2015-08-14T13:09:43Z</DateUtc></StartTime><FrequencyChanges><FrequencyChange><Frequency dt:dt="r8">2441416</Frequency><Timestamp dt:dt="r8">30583066389</Timestamp><Current dt:dt="r8">0</Current><DateUtc dt:dt="string">2015-08-14T13:09:43Z</DateUtc></FrequencyChange></FrequencyChanges></Clock>\n	1 ver1_main_procedure-28-1	99.925	1.0.0.880	2	pj	518776876	prawa	1	2.0.10.356	08-14-2015	2015-08-14 13:09:44	15:09:44	kobieta	2.0.10.92	2																														TrainingProc1		TrainingList	1	1	1						2																																																					TrainProc											TrainingList1											target_left.png							1	1	2	d								25	150	
1 ver1_main_procedure	28	1	28	<?xml version="1.0"?>\n<Clock xmlns:dt="urn:schemas-microsoft-com:datatypes"><Description dt:dt="string">E-Prime Primary Realtime Clock</Description><StartTime><Timestamp dt:dt="int">0</Timestamp><DateUtc dt:dt="string">2015-08-14T13:09:43Z</DateUtc></StartTime><FrequencyChanges><FrequencyChange><Frequency dt:dt="r8">2441416</Frequency><Timestamp dt:dt="r8">30583066389</Timestamp><Current dt:dt="r8">0</Current><DateUtc dt:dt="string">2015-08-14T13:09:43Z</DateUtc></FrequencyChange></FrequencyChanges></Clock>\n	1 ver1_main_procedure-28-1	99.925	1.0.0.880	2	pj	518776876	prawa	1	2.0.10.356	08-14-2015	2015-08-14 13:09:44	15:09:44	kobieta	2.0.10.92	2																														TrainingProc1		TrainingList	1	1	1						3																																																					TrainProc											TrainingList1											target_both.png							3	1	3	dl								75	150	
1 ver1_main_procedure	28	1	28	<?xml version="1.0"?>\n<Clock xmlns:dt="urn:schemas-microsoft-com:datatypes"><Description dt:dt="string">E-Prime Primary Realtime Clock</Description><StartTime><Timestamp dt:dt="int">0</Timestamp><DateUtc dt:dt="string">2015-08-14T13:09:43Z</DateUtc></StartTime><FrequencyChanges><FrequencyChange><Frequency dt:dt="r8">2441416</Frequency><Timestamp dt:dt="r8">30583066389</Timestamp><Current dt:dt="r8">0</Current><DateUtc dt:dt="string">2015-08-14T13:09:43Z</DateUtc></FrequencyChange></FrequencyChanges></Clock>\n	1 ver1_main_procedure-28-1	99.925	1.0.0.880	2	pj	518776876	prawa	1	2.0.10.356	08-14-2015	2015-08-14 13:09:44	15:09:44	kobieta	2.0.10.92	2																														TrainingProc1		TrainingList	1	1	1						4																																																					TrainProc											TrainingList1											target_left.png							1	1	4	d								75	150	
1 ver1_main_procedure	28	1	28	<?xml version="1.0"?>\n<Clock xmlns:dt="urn:schemas-microsoft-com:datatypes"><Description dt:dt="string">E-Prime Primary Realtime Clock</Description><StartTime><Timestamp dt:dt="int">0</Timestamp><DateUtc dt:dt="string">2015-08-14T13:09:43Z</DateUtc></StartTime><FrequencyChanges><FrequencyChange><Frequency dt:dt="r8">2441416</Frequency><Timestamp dt:dt="r8">30583066389</Timestamp><Current dt:dt="r8">0</Current><DateUtc dt:dt="string">2015-08-14T13:09:43Z</DateUtc></FrequencyChange></FrequencyChanges></Clock>\n	1 ver1_main_procedure-28-1	99.925	1.0.0.880	2	pj	518776876	prawa	1	2.0.10.356	08-14-2015	2015-08-14 13:09:44	15:09:44	kobieta	2.0.10.92	2																														TrainingProc1		TrainingList	1	1	1						5																																																					TrainProc											TrainingList1											target_right.png							2	1	5	l								75	150	
1 ver1_main_procedure	28	1	28	<?xml version="1.0"?>\n<Clock xmlns:dt="urn:schemas-microsoft-com:datatypes"><Description dt:dt="string">E-Prime Primary Realtime Clock</Description><StartTime><Timestamp dt:dt="int">0</Timestamp><DateUtc dt:dt="string">2015-08-14T13:09:43Z</DateUtc></StartTime><FrequencyChanges><FrequencyChange><Frequency dt:dt="r8">2441416</Frequency><Timestamp dt:dt="r8">30583066389</Timestamp><Current dt:dt="r8">0</Current><DateUtc dt:dt="string">2015-08-14T13:09:43Z</DateUtc></FrequencyChange></FrequencyChanges></Clock>\n	1 ver1_main_procedure-28-1	99.925	1.0.0.880	2	pj	518776876	prawa	1	2.0.10.356	08-14-2015	2015-08-14 13:09:44	15:09:44	kobieta	2.0.10.92	2																														TrainingProc1		TrainingList	1	1	1						6																																																					TrainProc											TrainingList1											target_right.png							2	1	6	l								75	150	
1 ver1_main_procedure	28	1	28	<?xml version="1.0"?>\n<Clock xmlns:dt="urn:schemas-microsoft-com:datatypes"><Description dt:dt="string">E-Prime Primary Realtime Clock</Description><StartTime><Timestamp dt:dt="int">0</Timestamp><DateUtc dt:dt="string">2015-08-14T13:09:43Z</DateUtc></StartTime><FrequencyChanges><FrequencyChange><Frequency dt:dt="r8">2441416</Frequency><Timestamp dt:dt="r8">30583066389</Timestamp><Current dt:dt="r8">0</Current><DateUtc dt:dt="string">2015-08-14T13:09:43Z</DateUtc></FrequencyChange></FrequencyChanges></Clock>\n	1 ver1_main_procedure-28-1	99.925	1.0.0.880	2	pj	518776876	prawa	1	2.0.10.356	08-14-2015	2015-08-14 13:09:44	15:09:44	kobieta	2.0.10.92	2																														TrainingProc1		TrainingList	1	1	1						7																																																					TrainProc											TrainingList1											target_right.png							2	1	7	l								25	450	
1 ver1_main_procedure	28	1	28	<?xml version="1.0"?>\n<Clock xmlns:dt="urn:schemas-microsoft-com:datatypes"><Description dt:dt="string">E-Prime Primary Realtime Clock</Description><StartTime><Timestamp dt:dt="int">0</Timestamp><DateUtc dt:dt="string">2015-08-14T13:09:43Z</DateUtc></StartTime><FrequencyChanges><FrequencyChange><Frequency dt:dt="r8">2441416</Frequency><Timestamp dt:dt="r8">30583066389</Timestamp><Current dt:dt="r8">0</Current><DateUtc dt:dt="string">2015-08-14T13:09:43Z</DateUtc></FrequencyChange></FrequencyChanges></Clock>\n	1 ver1_main_procedure-28-1	99.925	1.0.0.880	2	pj	518776876	prawa	1	2.0.10.356	08-14-2015	2015-08-14 13:09:44	15:09:44	kobieta	2.0.10.92	2																														TrainingProc1		TrainingList	1	1	1						8																																																					TrainProc											TrainingList1											target_both.png							3	1	8	dl								25	300	
1 ver1_main_procedure	28	1	28	<?xml version="1.0"?>\n<Clock xmlns:dt="urn:schemas-microsoft-com:datatypes"><Description dt:dt="string">E-Prime Primary Realtime Clock</Description><StartTime><Timestamp dt:dt="int">0</Timestamp><DateUtc dt:dt="string">2015-08-14T13:09:43Z</DateUtc></StartTime><FrequencyChanges><FrequencyChange><Frequency dt:dt="r8">2441416</Frequency><Timestamp dt:dt="r8">30583066389</Timestamp><Current dt:dt="r8">0</Current><DateUtc dt:dt="string">2015-08-14T13:09:43Z</DateUtc></FrequencyChange></FrequencyChanges></Clock>\n	1 ver1_main_procedure-28-1	99.925	1.0.0.880	2	pj	518776876	prawa	1	2.0.10.356	08-14-2015	2015-08-14 13:09:44	15:09:44	kobieta	2.0.10.92	2																														TrainingProc1		TrainingList	1	1	1						9																																																					TrainProc											TrainingList1											target_left.png							1	1	9	d								25	300	
1 ver1_main_procedure	28	1	28	<?xml version="1.0"?>\n<Clock xmlns:dt="urn:schemas-microsoft-com:datatypes"><Description dt:dt="string">E-Prime Primary Realtime Clock</Description><StartTime><Timestamp dt:dt="int">0</Timestamp><DateUtc dt:dt="string">2015-08-14T13:09:43Z</DateUtc></StartTime><FrequencyChanges><FrequencyChange><Frequency dt:dt="r8">2441416</Frequency><Timestamp dt:dt="r8">30583066389</Timestamp><Current dt:dt="r8">0</Current><DateUtc dt:dt="string">2015-08-14T13:09:43Z</DateUtc></FrequencyChange></FrequencyChanges></Clock>\n	1 ver1_main_procedure-28-1	99.925	1.0.0.880	2	pj	518776876	prawa	1	2.0.10.356	08-14-2015	2015-08-14 13:09:44	15:09:44	kobieta	2.0.10.92	3	3	1	1																							l	{SPACE}		no	BlockProc1		BlockList									1	Cued	d	color_yellow.png		0	7	407204	460																								25	prime_left.png	0	406734	0	0	13	0	406734	0	406734	1	406734	20	0	-1	405235	406734	406733	0		TrialProc1	left	0		0	20	407054	-407054		0	0	TrialList1	target_left.png	1	d	0	3	406784	270	d	413	407197												1	1	1				comp			450
1 ver1_main_procedure	28	1	28	<?xml version="1.0"?>\n<Clock xmlns:dt="urn:schemas-microsoft-com:datatypes"><Description dt:dt="string">E-Prime Primary Realtime Clock</Description><StartTime><Timestamp dt:dt="int">0</Timestamp><DateUtc dt:dt="string">2015-08-14T13:09:43Z</DateUtc></StartTime><FrequencyChanges><FrequencyChange><Frequency dt:dt="r8">2441416</Frequency><Timestamp dt:dt="r8">30583066389</Timestamp><Current dt:dt="r8">0</Current><DateUtc dt:dt="string">2015-08-14T13:09:43Z</DateUtc></FrequencyChange></FrequencyChanges></Clock>\n	1 ver1_main_procedure-28-1	99.925	1.0.0.880	2	pj	518776876	prawa	1	2.0.10.356	08-14-2015	2015-08-14 13:09:44	15:09:44	kobieta	2.0.10.92	3	3	1	1																							l	{SPACE}		no	BlockProc1		BlockList									2	Cued	l	color_green.png		0	11	409856	460																								75	prime_right.png	0	409476	0	0	13	0	409476	0	409476	1	409476	20	0	-1	407977	409476	409475	0		TrialProc1	right	0		0	10	409786	-409786		0	0	TrialList1	target_right.png	1	l	0	3	409526	260	l	319	409845												4	1	2				comp			450
1 ver1_main_procedure	28	1	28	<?xml version="1.0"?>\n<Clock xmlns:dt="urn:schemas-microsoft-com:datatypes"><Description dt:dt="string">E-Prime Primary Realtime Clock</Description><StartTime><Timestamp dt:dt="int">0</Timestamp><DateUtc dt:dt="string">2015-08-14T13:09:43Z</DateUtc></StartTime><FrequencyChanges><FrequencyChange><Frequency dt:dt="r8">2441416</Frequency><Timestamp dt:dt="r8">30583066389</Timestamp><Current dt:dt="r8">0</Current><DateUtc dt:dt="string">2015-08-14T13:09:43Z</DateUtc></FrequencyChange></FrequencyChanges></Clock>\n	1 ver1_main_procedure-28-1	99.925	1.0.0.880	2	pj	518776876	prawa	1	2.0.10.356	08-14-2015	2015-08-14 13:09:44	15:09:44	kobieta	2.0.10.92	3	3	1	1																							l	{SPACE}		no	BlockProc1		BlockList									3	Cued	l			0	11	412468	460																								75	prime_left.png	0	412128	0	0	13	0	412128	0	412128	1	412128	20	0	-1	410629	412128	412127	0		TrialProc1	right	0		0	10	412438	-412438		0	0	TrialList1	target_right.png	0	l	0	3	412178	260	d	279	412457												6	1	3				incomp			450
1 ver1_main_procedure	28	1	28	<?xml version="1.0"?>\n<Clock xmlns:dt="urn:schemas-microsoft-com:datatypes"><Description dt:dt="string">E-Prime Primary Realtime Clock</Description><StartTime><Timestamp dt:dt="int">0</Timestamp><DateUtc dt:dt="string">2015-08-14T13:09:43Z</DateUtc></StartTime><FrequencyChanges><FrequencyChange><Frequency dt:dt="r8">2441416</Frequency><Timestamp dt:dt="r8">30583066389</Timestamp><Current dt:dt="r8">0</Current><DateUtc dt:dt="string">2015-08-14T13:09:43Z</DateUtc></FrequencyChange></FrequencyChanges></Clock>\n	1 ver1_main_procedure-28-1	99.925	1.0.0.880	2	pj	518776876	prawa	1	2.0.10.356	08-14-2015	2015-08-14 13:09:44	15:09:44	kobieta	2.0.10.92	3	3	1	1																							l	{SPACE}		no	BlockProc1		BlockList									4	Cued	l	color_purple.png		0	5	415170	310																								25	prime_left.png	0	414740	0	0	13	0	414740	0	414740	1	414740	20	0	-1	413241	414740	414739	0		TrialProc1	right	0		0	10	415050	-415050		0	0	TrialList1	target_right.png	1	l	0	3	414790	260	l	375	415165												6	1	4				incomp			300
1 ver1_main_procedure	28	1	28	<?xml version="1.0"?>\n<Clock xmlns:dt="urn:schemas-microsoft-com:datatypes"><Description dt:dt="string">E-Prime Primary Realtime Clock</Description><StartTime><Timestamp dt:dt="int">0</Timestamp><DateUtc dt:dt="string">2015-08-14T13:09:43Z</DateUtc></StartTime><FrequencyChanges><FrequencyChange><Frequency dt:dt="r8">2441416</Frequency><Timestamp dt:dt="r8">30583066389</Timestamp><Current dt:dt="r8">0</Current><DateUtc dt:dt="string">2015-08-14T13:09:43Z</DateUtc></FrequencyChange></FrequencyChanges></Clock>\n	1 ver1_main_procedure-28-1	99.925	1.0.0.880	2	pj	518776876	prawa	1	2.0.10.356	08-14-2015	2015-08-14 13:09:44	15:09:44	kobieta	2.0.10.92	3	3	1	1																							l	{SPACE}		no	BlockProc1		BlockList									5	Cued	d	color_orange.png		0	14	417732	460																			2					75	prime_right.png	0	417292	0	0	13	0	417292	0	417292	2	417292	20	0	-1	415793	417292	417290	0	prime_right.png	TrialProc1	left	0		0	10	417602	-417602		0	0	TrialList1	target_left.png	1	d	0	3	417342	260	d	376	417718												2	1	5				neut			450
1 ver1_main_procedure	28	1	28	<?xml version="1.0"?>\n<Clock xmlns:dt="urn:schemas-microsoft-com:datatypes"><Description dt:dt="string">E-Prime Primary Realtime Clock</Description><StartTime><Timestamp dt:dt="int">0</Timestamp><DateUtc dt:dt="string">2015-08-14T13:09:43Z</DateUtc></StartTime><FrequencyChanges><FrequencyChange><Frequency dt:dt="r8">2441416</Frequency><Timestamp dt:dt="r8">30583066389</Timestamp><Current dt:dt="r8">0</Current><DateUtc dt:dt="string">2015-08-14T13:09:43Z</DateUtc></FrequencyChange></FrequencyChanges></Clock>\n	1 ver1_main_procedure-28-1	99.925	1.0.0.880	2	pj	518776876	prawa	1	2.0.10.356	08-14-2015	2015-08-14 13:09:44	15:09:44	kobieta	2.0.10.92	3	3	1	1																							l	{SPACE}		no	BlockProc1		BlockList									6	Cued	d	color_red.png		0	6	420384	160																								25	prime_right.png	0	420004	0	0	13	0	420004	0	420004	2	420004	20	0	-1	418505	420004	420002	0		TrialProc1	left	0		0	10	420314	-420314		0	0	TrialList1	target_left.png	1	d	0	3	420054	260	d	323	420377												3	1	6				incomp			150
1 ver1_main_procedure	28	1	28	<?xml version="1.0"?>\n<Clock xmlns:dt="urn:schemas-microsoft-com:datatypes"><Description dt:dt="string">E-Prime Primary Realtime Clock</Description><StartTime><Timestamp dt:dt="int">0</Timestamp><DateUtc dt:dt="string">2015-08-14T13:09:43Z</DateUtc></StartTime><FrequencyChanges><FrequencyChange><Frequency dt:dt="r8">2441416</Frequency><Timestamp dt:dt="r8">30583066389</Timestamp><Current dt:dt="r8">0</Current><DateUtc dt:dt="string">2015-08-14T13:09:43Z</DateUtc></FrequencyChange></FrequencyChanges></Clock>\n	1 ver1_main_procedure-28-1	99.925	1.0.0.880	2	pj	518776876	prawa	1	2.0.10.356	08-14-2015	2015-08-14 13:09:44	15:09:44	kobieta	2.0.10.92	3	3	1	1																							l	{SPACE}		no	BlockProc1		BlockList									7	Free	dl	color_green.png		0	13	422716	160																								25	prime_right.png	0	422355	0	0	13	0	422355	0	422355	1	422355	20	0	-1	420856	422355	422354	0		TrialProc1	right	0		0	11	422666	-422666		0	0	TrialList1	target_both.png	0	dl	0	3	422405	261	l	298	422703												10	1	7				comp			150
1 ver1_main_procedure	28	1	28	<?xml version="1.0"?>\n<Clock xmlns:dt="urn:schemas-microsoft-com:datatypes"><Description dt:dt="string">E-Prime Primary Realtime Clock</Description><StartTime><Timestamp dt:dt="int">0</Timestamp><DateUtc dt:dt="string">2015-08-14T13:09:43Z</DateUtc></StartTime><FrequencyChanges><FrequencyChange><Frequency dt:dt="r8">2441416</Frequency><Timestamp dt:dt="r8">30583066389</Timestamp><Current dt:dt="r8">0</Current><DateUtc dt:dt="string">2015-08-14T13:09:43Z</DateUtc></FrequencyChange></FrequencyChanges></Clock>\n	1 ver1_main_procedure-28-1	99.925	1.0.0.880	2	pj	518776876	prawa	1	2.0.10.356	08-14-2015	2015-08-14 13:09:44	15:09:44	kobieta	2.0.10.92	3	3	1	1																							l	{SPACE}		no	BlockProc1		BlockList									8	Cued	l			0	14	425047	160																								75	prime_left.png	0	424687	0	0	13	0	424687	0	424687	1	424687	20	0	-1	423188	424687	424686	0		TrialProc1	right	0		0	10	424997	-424997		0	0	TrialList1	target_right.png	0	l	0	3	424737	260	d	296	425033												6	1	8				incomp			150
1 ver1_main_procedure	28	1	28	<?xml version="1.0"?>\n<Clock xmlns:dt="urn:schemas-microsoft-com:datatypes"><Description dt:dt="string">E-Prime Primary Realtime Clock</Description><StartTime><Timestamp dt:dt="int">0</Timestamp><DateUtc dt:dt="string">2015-08-14T13:09:43Z</DateUtc></StartTime><FrequencyChanges><FrequencyChange><Frequency dt:dt="r8">2441416</Frequency><Timestamp dt:dt="r8">30583066389</Timestamp><Current dt:dt="r8">0</Current><DateUtc dt:dt="string">2015-08-14T13:09:43Z</DateUtc></FrequencyChange></FrequencyChanges></Clock>\n	1 ver1_main_procedure-28-1	99.925	1.0.0.880	2	pj	518776876	prawa	1	2.0.10.356	08-14-2015	2015-08-14 13:09:44	15:09:44	kobieta	2.0.10.92	3	3	1	1																							l	{SPACE}		no	BlockProc1		BlockList									9	Cued	l	color_purple.png		0	12	427329	310																								75	prime_left.png	0	427019	0	0	13	0	427019	0	427019	1	427019	20	0	-1	425520	427019	427018	0		TrialProc1	right	0		0	0	0	0		0	0	TrialList1	target_right.png	1	l	-999999	3	427069	0	l	248	427317												6	1	9				incomp			300
1 ver1_main_procedure	28	1	28	<?xml version="1.0"?>\n<Clock xmlns:dt="urn:schemas-microsoft-com:datatypes"><Description dt:dt="string">E-Prime Primary Realtime Clock</Description><StartTime><Timestamp dt:dt="int">0</Timestamp><DateUtc dt:dt="string">2015-08-14T13:09:43Z</DateUtc></StartTime><FrequencyChanges><FrequencyChange><Frequency dt:dt="r8">2441416</Frequency><Timestamp dt:dt="r8">30583066389</Timestamp><Current dt:dt="r8">0</Current><DateUtc dt:dt="string">2015-08-14T13:09:43Z</DateUtc></FrequencyChange></FrequencyChanges></Clock>\n	1 ver1_main_procedure-28-1	99.925	1.0.0.880	2	pj	518776876	prawa	1	2.0.10.356	08-14-2015	2015-08-14 13:09:44	15:09:44	kobieta	2.0.10.92	3	3	1	1																							l	{SPACE}		no	BlockProc1		BlockList									10	Free	dl	color_purple.png		0	6	429861	460																								25	prime_left.png	0	429451	0	0	13	0	429451	0	429451	2	429451	20	0	-1	427952	429451	429449	0		TrialProc1	left	0		0	10	429761	-429761		0	0	TrialList1	target_both.png	0	dl	0	3	429501	260	l	354	429855												7	1	10				comp			450
1 ver1_main_procedure	28	1	28	<?xml version="1.0"?>\n<Clock xmlns:dt="urn:schemas-microsoft-com:datatypes"><Description dt:dt="string">E-Prime Primary Realtime Clock</Description><StartTime><Timestamp dt:dt="int">0</Timestamp><DateUtc dt:dt="string">2015-08-14T13:09:43Z</DateUtc></StartTime><FrequencyChanges><FrequencyChange><Frequency dt:dt="r8">2441416</Frequency><Timestamp dt:dt="r8">30583066389</Timestamp><Current dt:dt="r8">0</Current><DateUtc dt:dt="string">2015-08-14T13:09:43Z</DateUtc></FrequencyChange></FrequencyChanges></Clock>\n	1 ver1_main_procedure-28-1	99.925	1.0.0.880	2	pj	518776876	prawa	1	2.0.10.356	08-14-2015	2015-08-14 13:09:44	15:09:44	kobieta	2.0.10.92	3	3	1	1																							l	{SPACE}		no	BlockProc1		BlockList									11	Cued	l			0	14	432503	310																			1					75	prime_left.png	0	432133	0	0	13	0	432133	0	432133	2	432133	20	0	-1	430634	432133	432131	0	prime_left.png	TrialProc1	right	0		0	10	432443	-432443		0	0	TrialList1	target_right.png	0	l	0	3	432183	260	d	306	432489												5	1	11				neut			300
1 ver1_main_procedure	28	1	28	<?xml version="1.0"?>\n<Clock xmlns:dt="urn:schemas-microsoft-com:datatypes"><Description dt:dt="string">E-Prime Primary Realtime Clock</Description><StartTime><Timestamp dt:dt="int">0</Timestamp><DateUtc dt:dt="string">2015-08-14T13:09:43Z</DateUtc></StartTime><FrequencyChanges><FrequencyChange><Frequency dt:dt="r8">2441416</Frequency><Timestamp dt:dt="r8">30583066389</Timestamp><Current dt:dt="r8">0</Current><DateUtc dt:dt="string">2015-08-14T13:09:43Z</DateUtc></FrequencyChange></FrequencyChanges></Clock>\n	1 ver1_main_procedure-28-1	99.925	1.0.0.880	2	pj	518776876	prawa	1	2.0.10.356	08-14-2015	2015-08-14 13:09:44	15:09:44	kobieta	2.0.10.92	3	3	1	1																							l	{SPACE}		no	BlockProc1		BlockList									12	Cued	l	color_blue.png		0	9	435055	310																			2					25	prime_right.png	0	434624	0	0	13	1	434625	1	434625	1	434624	20	0	-1	433126	434624	434623	0	prime_right.png	TrialProc1	right	0		0	11	434935	-434935		0	0	TrialList1	target_right.png	1	l	0	3	434674	261	l	372	435046												5	1	12				neut			300
1 ver1_main_procedure	28	1	28	<?xml version="1.0"?>\n<Clock xmlns:dt="urn:schemas-microsoft-com:datatypes"><Description dt:dt="string">E-Prime Primary Realtime Clock</Description><StartTime><Timestamp dt:dt="int">0</Timestamp><DateUtc dt:dt="string">2015-08-14T13:09:43Z</DateUtc></StartTime><FrequencyChanges><FrequencyChange><Frequency dt:dt="r8">2441416</Frequency><Timestamp dt:dt="r8">30583066389</Timestamp><Current dt:dt="r8">0</Current><DateUtc dt:dt="string">2015-08-14T13:09:43Z</DateUtc></FrequencyChange></FrequencyChanges></Clock>\n	1 ver1_main_procedure-28-1	99.925	1.0.0.880	2	pj	518776876	prawa	1	2.0.10.356	08-14-2015	2015-08-14 13:09:44	15:09:44	kobieta	2.0.10.92	3	3	1	1																							l	{SPACE}		no	BlockProc1		BlockList									13	Cued	d	color_orange.png		0	15	437517	310																			1					75	prime_left.png	0	437176	0	0	13	0	437176	0	437176	1	437176	20	0	-1	435677	437176	437175	0	prime_left.png	TrialProc1	left	0		0	11	437487	-437487		0	0	TrialList1	target_left.png	1	d	0	3	437226	261	d	276	437502												2	1	13				neut			300
1 ver1_main_procedure	28	1	28	<?xml version="1.0"?>\n<Clock xmlns:dt="urn:schemas-microsoft-com:datatypes"><Description dt:dt="string">E-Prime Primary Realtime Clock</Description><StartTime><Timestamp dt:dt="int">0</Timestamp><DateUtc dt:dt="string">2015-08-14T13:09:43Z</DateUtc></StartTime><FrequencyChanges><FrequencyChange><Frequency dt:dt="r8">2441416</Frequency><Timestamp dt:dt="r8">30583066389</Timestamp><Current dt:dt="r8">0</Current><DateUtc dt:dt="string">2015-08-14T13:09:43Z</DateUtc></FrequencyChange></FrequencyChanges></Clock>\n	1 ver1_main_procedure-28-1	99.925	1.0.0.880	2	pj	518776876	prawa	1	2.0.10.356	08-14-2015	2015-08-14 13:09:44	15:09:44	kobieta	2.0.10.92	3	3	1	1																							l	{SPACE}		no	BlockProc1		BlockList									14	Cued	l	color_green.png		0	10	440078	311																								25	prime_right.png	0	439638	0	0	13	0	439638	0	439638	1	439638	20	0	-1	438139	439638	439637	0		TrialProc1	right	0		0	10	439948	-439948		0	0	TrialList1	target_right.png	1	l	0	3	439688	260	l	380	440068												4	1	14				comp			300
1 ver1_main_procedure	28	1	28	<?xml version="1.0"?>\n<Clock xmlns:dt="urn:schemas-microsoft-com:datatypes"><Description dt:dt="string">E-Prime Primary Realtime Clock</Description><StartTime><Timestamp dt:dt="int">0</Timestamp><DateUtc dt:dt="string">2015-08-14T13:09:43Z</DateUtc></StartTime><FrequencyChanges><FrequencyChange><Frequency dt:dt="r8">2441416</Frequency><Timestamp dt:dt="r8">30583066389</Timestamp><Current dt:dt="r8">0</Current><DateUtc dt:dt="string">2015-08-14T13:09:43Z</DateUtc></FrequencyChange></FrequencyChanges></Clock>\n	1 ver1_main_procedure-28-1	99.925	1.0.0.880	2	pj	518776876	prawa	1	2.0.10.356	08-14-2015	2015-08-14 13:09:44	15:09:44	kobieta	2.0.10.92	3	3	1	1																							l	{SPACE}		no	BlockProc1		BlockList									15	Cued	l	color_blue.png		0	14	442720	461																			2					25	prime_right.png	0	442200	0	0	13	0	442200	0	442200	1	442200	20	0	-1	440701	442200	442199	0	prime_right.png	TrialProc1	right	0		0	10	442510	-442510		0	0	TrialList1	target_right.png	1	l	0	3	442250	260	l	456	442706												5	1	15				neut			450
1 ver1_main_procedure	28	1	28	<?xml version="1.0"?>\n<Clock xmlns:dt="urn:schemas-microsoft-com:datatypes"><Description dt:dt="string">E-Prime Primary Realtime Clock</Description><StartTime><Timestamp dt:dt="int">0</Timestamp><DateUtc dt:dt="string">2015-08-14T13:09:43Z</DateUtc></StartTime><FrequencyChanges><FrequencyChange><Frequency dt:dt="r8">2441416</Frequency><Timestamp dt:dt="r8">30583066389</Timestamp><Current dt:dt="r8">0</Current><DateUtc dt:dt="string">2015-08-14T13:09:43Z</DateUtc></FrequencyChange></FrequencyChanges></Clock>\n	1 ver1_main_procedure-28-1	99.925	1.0.0.880	2	pj	518776876	prawa	1	2.0.10.356	08-14-2015	2015-08-14 13:09:44	15:09:44	kobieta	2.0.10.92	3	3	1	1																							l	{SPACE}		no	BlockProc1		BlockList									16	Cued	d	color_red.png		0	8	445332	311																								25	prime_right.png	0	444992	0	0	13	0	444992	0	444992	1	444992	20	0	-1	443493	444992	444991	0		TrialProc1	left	0		0	10	445302	-445302		0	0	TrialList1	target_left.png	1	d	0	3	445042	260	d	282	445324												3	1	16				incomp			300
1 ver1_main_procedure	28	1	28	<?xml version="1.0"?>\n<Clock xmlns:dt="urn:schemas-microsoft-com:datatypes"><Description dt:dt="string">E-Prime Primary Realtime Clock</Description><StartTime><Timestamp dt:dt="int">0</Timestamp><DateUtc dt:dt="string">2015-08-14T13:09:43Z</DateUtc></StartTime><FrequencyChanges><FrequencyChange><Frequency dt:dt="r8">2441416</Frequency><Timestamp dt:dt="r8">30583066389</Timestamp><Current dt:dt="r8">0</Current><DateUtc dt:dt="string">2015-08-14T13:09:43Z</DateUtc></FrequencyChange></FrequencyChanges></Clock>\n	1 ver1_main_procedure-28-1	99.925	1.0.0.880	2	pj	518776876	prawa	1	2.0.10.356	08-14-2015	2015-08-14 13:09:44	15:09:44	kobieta	2.0.10.92	3	3	1	1																							l	{SPACE}		no	BlockProc1		BlockList									17	Cued	l	color_blue.png		0	8	447884	310																			1					25	prime_left.png	0	447454	0	0	13	0	447454	0	447454	1	447454	20	0	-1	445955	447454	447453	0	prime_left.png	TrialProc1	right	0		0	10	447764	-447764		0	0	TrialList1	target_right.png	1	l	0	3	447504	260	l	372	447876												5	1	17				neut			300
1 ver1_main_procedure	28	1	28	<?xml version="1.0"?>\n<Clock xmlns:dt="urn:schemas-microsoft-com:datatypes"><Description dt:dt="string">E-Prime Primary Realtime Clock</Description><StartTime><Timestamp dt:dt="int">0</Timestamp><DateUtc dt:dt="string">2015-08-14T13:09:43Z</DateUtc></StartTime><FrequencyChanges><FrequencyChange><Frequency dt:dt="r8">2441416</Frequency><Timestamp dt:dt="r8">30583066389</Timestamp><Current dt:dt="r8">0</Current><DateUtc dt:dt="string">2015-08-14T13:09:43Z</DateUtc></FrequencyChange></FrequencyChanges></Clock>\n	1 ver1_main_procedure-28-1	99.925	1.0.0.880	2	pj	518776876	prawa	1	2.0.10.356	08-14-2015	2015-08-14 13:09:44	15:09:44	kobieta	2.0.10.92	3	3	1	1																							l	{SPACE}		no	BlockProc1		BlockList									18	Cued	l	color_purple.png		0	8	450496	160																								25	prime_left.png	0	450006	0	0	13	0	450006	0	450006	1	450006	20	0	-1	448507	450006	450005	0		TrialProc1	right	0		0	10	450316	-450316		0	0	TrialList1	target_right.png	1	l	0	3	450056	260	l	432	450488												6	1	18				incomp			150
1 ver1_main_procedure	28	1	28	<?xml version="1.0"?>\n<Clock xmlns:dt="urn:schemas-microsoft-com:datatypes"><Description dt:dt="string">E-Prime Primary Realtime Clock</Description><StartTime><Timestamp dt:dt="int">0</Timestamp><DateUtc dt:dt="string">2015-08-14T13:09:43Z</DateUtc></StartTime><FrequencyChanges><FrequencyChange><Frequency dt:dt="r8">2441416</Frequency><Timestamp dt:dt="r8">30583066389</Timestamp><Current dt:dt="r8">0</Current><DateUtc dt:dt="string">2015-08-14T13:09:43Z</DateUtc></FrequencyChange></FrequencyChanges></Clock>\n	1 ver1_main_procedure-28-1	99.925	1.0.0.880	2	pj	518776876	prawa	1	2.0.10.356	08-14-2015	2015-08-14 13:09:44	15:09:44	kobieta	2.0.10.92	3	3	1	1																							l	{SPACE}		no	BlockProc1		BlockList									19	Cued	d	color_red.png		0	11	452868	460																								75	prime_right.png	0	452468	0	0	13	0	452468	0	452468	2	452468	20	0	-1	450969	452468	452466	0		TrialProc1	left	0		0	10	452778	-452778		0	0	TrialList1	target_left.png	1	d	0	3	452518	260	d	339	452857												3	1	19				incomp			450
1 ver1_main_procedure	28	1	28	<?xml version="1.0"?>\n<Clock xmlns:dt="urn:schemas-microsoft-com:datatypes"><Description dt:dt="string">E-Prime Primary Realtime Clock</Description><StartTime><Timestamp dt:dt="int">0</Timestamp><DateUtc dt:dt="string">2015-08-14T13:09:43Z</DateUtc></StartTime><FrequencyChanges><FrequencyChange><Frequency dt:dt="r8">2441416</Frequency><Timestamp dt:dt="r8">30583066389</Timestamp><Current dt:dt="r8">0</Current><DateUtc dt:dt="string">2015-08-14T13:09:43Z</DateUtc></FrequencyChange></FrequencyChanges></Clock>\n	1 ver1_main_procedure-28-1	99.925	1.0.0.880	2	pj	518776876	prawa	1	2.0.10.356	08-14-2015	2015-08-14 13:09:44	15:09:44	kobieta	2.0.10.92	3	3	1	1																							l	{SPACE}		no	BlockProc1		BlockList									20	Cued	d	color_orange.png		0	9	455750	160																			2					25	prime_right.png	0	455140	0	0	13	0	455140	0	455140	2	455140	20	0	-1	453641	455140	455138	0	prime_right.png	TrialProc1	left	0		0	10	455450	-455450		0	0	TrialList1	target_left.png	1	d	0	3	455190	260	d	551	455741												2	1	20				neut			150
1 ver1_main_procedure	28	1	28	<?xml version="1.0"?>\n<Clock xmlns:dt="urn:schemas-microsoft-com:datatypes"><Description dt:dt="string">E-Prime Primary Realtime Clock</Description><StartTime><Timestamp dt:dt="int">0</Timestamp><DateUtc dt:dt="string">2015-08-14T13:09:43Z</DateUtc></StartTime><FrequencyChanges><FrequencyChange><Frequency dt:dt="r8">2441416</Frequency><Timestamp dt:dt="r8">30583066389</Timestamp><Current dt:dt="r8">0</Current><DateUtc dt:dt="string">2015-08-14T13:09:43Z</DateUtc></FrequencyChange></FrequencyChanges></Clock>\n	1 ver1_main_procedure-28-1	99.925	1.0.0.880	2	pj	518776876	prawa	1	2.0.10.356	08-14-2015	2015-08-14 13:09:44	15:09:44	kobieta	2.0.10.92	3	3	1	1																							l	{SPACE}		no	BlockProc1		BlockList									21	Cued	d	color_yellow.png		0	7	458232	310																								25	prime_left.png	1	457722	0	0	13	1	457722	1	457722	1	457721	20	0	-1	456223	457721	457720	0		TrialProc1	left	0		0	10	458032	-458032		0	0	TrialList1	target_left.png	1	d	0	4	457772	260	d	452	458224												1	1	21				comp			300
1 ver1_main_procedure	28	1	28	<?xml version="1.0"?>\n<Clock xmlns:dt="urn:schemas-microsoft-com:datatypes"><Description dt:dt="string">E-Prime Primary Realtime Clock</Description><StartTime><Timestamp dt:dt="int">0</Timestamp><DateUtc dt:dt="string">2015-08-14T13:09:43Z</DateUtc></StartTime><FrequencyChanges><FrequencyChange><Frequency dt:dt="r8">2441416</Frequency><Timestamp dt:dt="r8">30583066389</Timestamp><Current dt:dt="r8">0</Current><DateUtc dt:dt="string">2015-08-14T13:09:43Z</DateUtc></FrequencyChange></FrequencyChanges></Clock>\n	1 ver1_main_procedure-28-1	99.925	1.0.0.880	2	pj	518776876	prawa	1	2.0.10.356	08-14-2015	2015-08-14 13:09:44	15:09:44	kobieta	2.0.10.92	3	3	1	1																							l	{SPACE}		no	BlockProc1		BlockList									22	Free	dl	color_green.png		0	9	461024	310																								75	prime_right.png	0	460353	0	0	13	1	460354	1	460354	1	460353	20	0	-1	458855	460353	460352	0		TrialProc1	left	0		0	11	460664	-460664		0	0	TrialList1	target_both.png	0	dl	0	3	460403	261	l	611	461014												9	1	22				incomp			300
1 ver1_main_procedure	28	1	28	<?xml version="1.0"?>\n<Clock xmlns:dt="urn:schemas-microsoft-com:datatypes"><Description dt:dt="string">E-Prime Primary Realtime Clock</Description><StartTime><Timestamp dt:dt="int">0</Timestamp><DateUtc dt:dt="string">2015-08-14T13:09:43Z</DateUtc></StartTime><FrequencyChanges><FrequencyChange><Frequency dt:dt="r8">2441416</Frequency><Timestamp dt:dt="r8">30583066389</Timestamp><Current dt:dt="r8">0</Current><DateUtc dt:dt="string">2015-08-14T13:09:43Z</DateUtc></FrequencyChange></FrequencyChanges></Clock>\n	1 ver1_main_procedure-28-1	99.925	1.0.0.880	2	pj	518776876	prawa	1	2.0.10.356	08-14-2015	2015-08-14 13:09:44	15:09:44	kobieta	2.0.10.92	3	3	1	1																							l	{SPACE}		no	BlockProc1		BlockList									23	Free	dl	color_yellow.png		0	6	463826	160																								25	prime_left.png	1	463146	0	0	13	1	463146	1	463146	1	463145	20	0	-1	461647	463145	463144	0		TrialProc1	right	0		0	10	463456	-463456		0	0	TrialList1	target_both.png	0	dl	0	4	463196	260	d	624	463820												12	1	23				incomp			150
1 ver1_main_procedure	28	1	28	<?xml version="1.0"?>\n<Clock xmlns:dt="urn:schemas-microsoft-com:datatypes"><Description dt:dt="string">E-Prime Primary Realtime Clock</Description><StartTime><Timestamp dt:dt="int">0</Timestamp><DateUtc dt:dt="string">2015-08-14T13:09:43Z</DateUtc></StartTime><FrequencyChanges><FrequencyChange><Frequency dt:dt="r8">2441416</Frequency><Timestamp dt:dt="r8">30583066389</Timestamp><Current dt:dt="r8">0</Current><DateUtc dt:dt="string">2015-08-14T13:09:43Z</DateUtc></FrequencyChange></FrequencyChanges></Clock>\n	1 ver1_main_procedure-28-1	99.925	1.0.0.880	2	pj	518776876	prawa	1	2.0.10.356	08-14-2015	2015-08-14 13:09:44	15:09:44	kobieta	2.0.10.92	3	3	1	1																							l	{SPACE}		no	BlockProc1		BlockList									24	Cued	d	color_orange.png		0	14	466168	160																			1					25	prime_left.png	1	465798	0	0	13	1	465798	1	465798	1	465797	20	0	-1	464299	465797	465796	0	prime_left.png	TrialProc1	left	0		0	11	466108	-466108		0	0	TrialList1	target_left.png	1	d	0	3	465847	261	d	307	466154												2	1	24				neut			150
1 ver1_main_procedure	28	1	28	<?xml version="1.0"?>\n<Clock xmlns:dt="urn:schemas-microsoft-com:datatypes"><Description dt:dt="string">E-Prime Primary Realtime Clock</Description><StartTime><Timestamp dt:dt="int">0</Timestamp><DateUtc dt:dt="string">2015-08-14T13:09:43Z</DateUtc></StartTime><FrequencyChanges><FrequencyChange><Frequency dt:dt="r8">2441416</Frequency><Timestamp dt:dt="r8">30583066389</Timestamp><Current dt:dt="r8">0</Current><DateUtc dt:dt="string">2015-08-14T13:09:43Z</DateUtc></FrequencyChange></FrequencyChanges></Clock>\n	1 ver1_main_procedure-28-1	99.925	1.0.0.880	2	pj	518776876	prawa	1	2.0.10.356	08-14-2015	2015-08-14 13:09:44	15:09:44	kobieta	2.0.10.92	3	3	1	1																							l	{SPACE}		no	BlockProc1		BlockList									25	Cued	d	color_yellow.png		0	12	468559	311																								25	prime_left.png	0	468139	0	0	13	0	468139	0	468139	1	468139	20	0	-1	466640	468139	468138	0		TrialProc1	left	0		1	10	468449	-468449		0	0	TrialList1	target_left.png	1	d	0	3	468189	260	d	358	468547												1	1	25				comp			300
1 ver1_main_procedure	28	1	28	<?xml version="1.0"?>\n<Clock xmlns:dt="urn:schemas-microsoft-com:datatypes"><Description dt:dt="string">E-Prime Primary Realtime Clock</Description><StartTime><Timestamp dt:dt="int">0</Timestamp><DateUtc dt:dt="string">2015-08-14T13:09:43Z</DateUtc></StartTime><FrequencyChanges><FrequencyChange><Frequency dt:dt="r8">2441416</Frequency><Timestamp dt:dt="r8">30583066389</Timestamp><Current dt:dt="r8">0</Current><DateUtc dt:dt="string">2015-08-14T13:09:43Z</DateUtc></FrequencyChange></FrequencyChanges></Clock>\n	1 ver1_main_procedure-28-1	99.925	1.0.0.880	2	pj	518776876	prawa	1	2.0.10.356	08-14-2015	2015-08-14 13:09:44	15:09:44	kobieta	2.0.10.92	3	3	1	1																							l	{SPACE}		no	BlockProc1		BlockList									26	Cued	d	color_red.png		0	14	471121	311																								75	prime_right.png	0	470681	0	0	13	0	470681	0	470681	1	470681	20	0	-1	469182	470681	470680	0		TrialProc1	left	0		0	10	470991	-470991		0	0	TrialList1	target_left.png	1	d	0	3	470731	260	d	376	471107												3	1	26				incomp			300
1 ver1_main_procedure	28	1	28	<?xml version="1.0"?>\n<Clock xmlns:dt="urn:schemas-microsoft-com:datatypes"><Description dt:dt="string">E-Prime Primary Realtime Clock</Description><StartTime><Timestamp dt:dt="int">0</Timestamp><DateUtc dt:dt="string">2015-08-14T13:09:43Z</DateUtc></StartTime><FrequencyChanges><FrequencyChange><Frequency dt:dt="r8">2441416</Frequency><Timestamp dt:dt="r8">30583066389</Timestamp><Current dt:dt="r8">0</Current><DateUtc dt:dt="string">2015-08-14T13:09:43Z</DateUtc></FrequencyChange></FrequencyChanges></Clock>\n	1 ver1_main_procedure-28-1	99.925	1.0.0.880	2	pj	518776876	prawa	1	2.0.10.356	08-14-2015	2015-08-14 13:09:44	15:09:44	kobieta	2.0.10.92	3	3	1	1																							l	{SPACE}		no	BlockProc1		BlockList									27	Cued	d	color_orange.png		0	14	473693	311																			2					75	prime_right.png	0	473243	0	0	13	0	473243	0	473243	1	473243	20	0	-1	471744	473243	473242	0	prime_right.png	TrialProc1	left	0		0	10	473553	-473553		0	0	TrialList1	target_left.png	1	d	0	3	473293	260	d	386	473679												2	1	27				neut			300
1 ver1_main_procedure	28	1	28	<?xml version="1.0"?>\n<Clock xmlns:dt="urn:schemas-microsoft-com:datatypes"><Description dt:dt="string">E-Prime Primary Realtime Clock</Description><StartTime><Timestamp dt:dt="int">0</Timestamp><DateUtc dt:dt="string">2015-08-14T13:09:43Z</DateUtc></StartTime><FrequencyChanges><FrequencyChange><Frequency dt:dt="r8">2441416</Frequency><Timestamp dt:dt="r8">30583066389</Timestamp><Current dt:dt="r8">0</Current><DateUtc dt:dt="string">2015-08-14T13:09:43Z</DateUtc></FrequencyChange></FrequencyChanges></Clock>\n	1 ver1_main_procedure-28-1	99.925	1.0.0.880	2	pj	518776876	prawa	1	2.0.10.356	08-14-2015	2015-08-14 13:09:44	15:09:44	kobieta	2.0.10.92	3	3	1	1																							l	{SPACE}		no	BlockProc1		BlockList									28	Free	dl	color_red.png		0	8	476465	311																								25	prime_right.png	0	475815	0	0	13	0	475815	0	475815	1	475815	20	0	-1	474316	475815	475814	0		TrialProc1	right	0		0	10	476125	-476125		0	0	TrialList1	target_both.png	0	dl	0	3	475865	260	d	592	476457												10	1	28				comp			300
1 ver1_main_procedure	28	1	28	<?xml version="1.0"?>\n<Clock xmlns:dt="urn:schemas-microsoft-com:datatypes"><Description dt:dt="string">E-Prime Primary Realtime Clock</Description><StartTime><Timestamp dt:dt="int">0</Timestamp><DateUtc dt:dt="string">2015-08-14T13:09:43Z</DateUtc></StartTime><FrequencyChanges><FrequencyChange><Frequency dt:dt="r8">2441416</Frequency><Timestamp dt:dt="r8">30583066389</Timestamp><Current dt:dt="r8">0</Current><DateUtc dt:dt="string">2015-08-14T13:09:43Z</DateUtc></FrequencyChange></FrequencyChanges></Clock>\n	1 ver1_main_procedure-28-1	99.925	1.0.0.880	2	pj	518776876	prawa	1	2.0.10.356	08-14-2015	2015-08-14 13:09:44	15:09:44	kobieta	2.0.10.92	3	3	1	1																							l	{SPACE}		no	BlockProc1		BlockList									29	Cued	l	color_green.png		0	8	479047	160																								75	prime_right.png	0	478587	0	0	13	0	478587	0	478587	1	478587	20	0	-1	477088	478587	478586	0		TrialProc1	right	0		0	10	478897	-478897		0	0	TrialList1	target_right.png	1	l	0	3	478637	260	l	402	479039												4	1	29				comp			150
1 ver1_main_procedure	28	1	28	<?xml version="1.0"?>\n<Clock xmlns:dt="urn:schemas-microsoft-com:datatypes"><Description dt:dt="string">E-Prime Primary Realtime Clock</Description><StartTime><Timestamp dt:dt="int">0</Timestamp><DateUtc dt:dt="string">2015-08-14T13:09:43Z</DateUtc></StartTime><FrequencyChanges><FrequencyChange><Frequency dt:dt="r8">2441416</Frequency><Timestamp dt:dt="r8">30583066389</Timestamp><Current dt:dt="r8">0</Current><DateUtc dt:dt="string">2015-08-14T13:09:43Z</DateUtc></FrequencyChange></FrequencyChanges></Clock>\n	1 ver1_main_procedure-28-1	99.925	1.0.0.880	2	pj	518776876	prawa	1	2.0.10.356	08-14-2015	2015-08-14 13:09:44	15:09:44	kobieta	2.0.10.92	3	3	1	1																							l	{SPACE}		no	BlockProc1		BlockList									30	Free	dl	color_red.png		0	8	481709	160																								75	prime_right.png	0	481019	0	0	13	0	481019	0	481019	1	481019	20	0	-1	479520	481019	481018	0		TrialProc1	left	0		0	10	481329	-481329		0	0	TrialList1	target_both.png	0	dl	0	3	481069	260	d	632	481701												9	1	30				incomp			150
1 ver1_main_procedure	28	1	28	<?xml version="1.0"?>\n<Clock xmlns:dt="urn:schemas-microsoft-com:datatypes"><Description dt:dt="string">E-Prime Primary Realtime Clock</Description><StartTime><Timestamp dt:dt="int">0</Timestamp><DateUtc dt:dt="string">2015-08-14T13:09:43Z</DateUtc></StartTime><FrequencyChanges><FrequencyChange><Frequency dt:dt="r8">2441416</Frequency><Timestamp dt:dt="r8">30583066389</Timestamp><Current dt:dt="r8">0</Current><DateUtc dt:dt="string">2015-08-14T13:09:43Z</DateUtc></FrequencyChange></FrequencyChanges></Clock>\n	1 ver1_main_procedure-28-1	99.925	1.0.0.880	2	pj	518776876	prawa	1	2.0.10.356	08-14-2015	2015-08-14 13:09:44	15:09:44	kobieta	2.0.10.92	3	3	1	1																							l	{SPACE}		no	BlockProc1		BlockList									31	Cued	l	color_green.png		0	8	484111	310																								75	prime_right.png	0	483681	0	0	13	0	483681	0	483681	1	483681	20	0	-1	482182	483681	483680	0		TrialProc1	right	0		0	10	483991	-483991		0	0	TrialList1	target_right.png	1	l	0	3	483731	260	l	372	484103												4	1	31				comp			300
1 ver1_main_procedure	28	1	28	<?xml version="1.0"?>\n<Clock xmlns:dt="urn:schemas-microsoft-com:datatypes"><Description dt:dt="string">E-Prime Primary Realtime Clock</Description><StartTime><Timestamp dt:dt="int">0</Timestamp><DateUtc dt:dt="string">2015-08-14T13:09:43Z</DateUtc></StartTime><FrequencyChanges><FrequencyChange><Frequency dt:dt="r8">2441416</Frequency><Timestamp dt:dt="r8">30583066389</Timestamp><Current dt:dt="r8">0</Current><DateUtc dt:dt="string">2015-08-14T13:09:43Z</DateUtc></FrequencyChange></FrequencyChanges></Clock>\n	1 ver1_main_procedure-28-1	99.925	1.0.0.880	2	pj	518776876	prawa	1	2.0.10.356	08-14-2015	2015-08-14 13:09:44	15:09:44	kobieta	2.0.10.92	3	3	1	1																							l	{SPACE}		no	BlockProc1		BlockList									32	Free	dl	color_orange.png		0	11	486923	460																			1					75	prime_left.png	0	486233	0	0	13	0	486233	0	486233	2	486233	20	0	-1	484734	486233	486231	0	prime_left.png	TrialProc1	left	0		0	10	486543	-486543		0	0	TrialList1	target_both.png	0	dl	0	3	486283	260	d	629	486912												8	1	32				neut			450
1 ver1_main_procedure	28	1	28	<?xml version="1.0"?>\n<Clock xmlns:dt="urn:schemas-microsoft-com:datatypes"><Description dt:dt="string">E-Prime Primary Realtime Clock</Description><StartTime><Timestamp dt:dt="int">0</Timestamp><DateUtc dt:dt="string">2015-08-14T13:09:43Z</DateUtc></StartTime><FrequencyChanges><FrequencyChange><Frequency dt:dt="r8">2441416</Frequency><Timestamp dt:dt="r8">30583066389</Timestamp><Current dt:dt="r8">0</Current><DateUtc dt:dt="string">2015-08-14T13:09:43Z</DateUtc></FrequencyChange></FrequencyChanges></Clock>\n	1 ver1_main_procedure-28-1	99.925	1.0.0.880	2	pj	518776876	prawa	1	2.0.10.356	08-14-2015	2015-08-14 13:09:44	15:09:44	kobieta	2.0.10.92	3	3	1	1																							l	{SPACE}		no	BlockProc1		BlockList									33	Cued	d	color_orange.png		0	7	489655	160																			2					75	prime_right.png	0	489195	0	0	13	0	489195	0	489195	1	489195	20	0	-1	487696	489195	489194	0	prime_right.png	TrialProc1	left	0		0	10	489505	-489505		0	0	TrialList1	target_left.png	1	d	0	3	489245	260	d	403	489648												2	1	33				neut			150
1 ver1_main_procedure	28	1	28	<?xml version="1.0"?>\n<Clock xmlns:dt="urn:schemas-microsoft-com:datatypes"><Description dt:dt="string">E-Prime Primary Realtime Clock</Description><StartTime><Timestamp dt:dt="int">0</Timestamp><DateUtc dt:dt="string">2015-08-14T13:09:43Z</DateUtc></StartTime><FrequencyChanges><FrequencyChange><Frequency dt:dt="r8">2441416</Frequency><Timestamp dt:dt="r8">30583066389</Timestamp><Current dt:dt="r8">0</Current><DateUtc dt:dt="string">2015-08-14T13:09:43Z</DateUtc></FrequencyChange></FrequencyChanges></Clock>\n	1 ver1_main_procedure-28-1	99.925	1.0.0.880	2	pj	518776876	prawa	1	2.0.10.356	08-14-2015	2015-08-14 13:09:44	15:09:44	kobieta	2.0.10.92	3	3	1	1																							l	{SPACE}		no	BlockProc1		BlockList									34	Free	dl	color_purple.png		0	13	492207	460																								75	prime_left.png	0	491627	0	0	13	0	491627	0	491627	2	491627	20	0	-1	490128	491627	491625	0		TrialProc1	left	0		0	10	491937	-491937		0	0	TrialList1	target_both.png	0	dl	0	3	491677	260	l	517	492194												7	1	34				comp			450
1 ver1_main_procedure	28	1	28	<?xml version="1.0"?>\n<Clock xmlns:dt="urn:schemas-microsoft-com:datatypes"><Description dt:dt="string">E-Prime Primary Realtime Clock</Description><StartTime><Timestamp dt:dt="int">0</Timestamp><DateUtc dt:dt="string">2015-08-14T13:09:43Z</DateUtc></StartTime><FrequencyChanges><FrequencyChange><Frequency dt:dt="r8">2441416</Frequency><Timestamp dt:dt="r8">30583066389</Timestamp><Current dt:dt="r8">0</Current><DateUtc dt:dt="string">2015-08-14T13:09:43Z</DateUtc></FrequencyChange></FrequencyChanges></Clock>\n	1 ver1_main_procedure-28-1	99.925	1.0.0.880	2	pj	518776876	prawa	1	2.0.10.356	08-14-2015	2015-08-14 13:09:44	15:09:44	kobieta	2.0.10.92	3	3	1	1																							l	{SPACE}		no	BlockProc1		BlockList									35	Cued	l	color_blue.png		0	11	494919	460																			1					75	prime_left.png	0	494479	0	0	13	0	494479	0	494479	1	494479	20	0	-1	492980	494479	494478	0	prime_left.png	TrialProc1	right	0		0	10	494789	-494789		0	0	TrialList1	target_right.png	1	l	0	3	494529	260	l	379	494908												5	1	35				neut			450
1 ver1_main_procedure	28	1	28	<?xml version="1.0"?>\n<Clock xmlns:dt="urn:schemas-microsoft-com:datatypes"><Description dt:dt="string">E-Prime Primary Realtime Clock</Description><StartTime><Timestamp dt:dt="int">0</Timestamp><DateUtc dt:dt="string">2015-08-14T13:09:43Z</DateUtc></StartTime><FrequencyChanges><FrequencyChange><Frequency dt:dt="r8">2441416</Frequency><Timestamp dt:dt="r8">30583066389</Timestamp><Current dt:dt="r8">0</Current><DateUtc dt:dt="string">2015-08-14T13:09:43Z</DateUtc></FrequencyChange></FrequencyChanges></Clock>\n	1 ver1_main_procedure-28-1	99.925	1.0.0.880	2	pj	518776876	prawa	1	2.0.10.356	08-14-2015	2015-08-14 13:09:44	15:09:44	kobieta	2.0.10.92	3	3	1	1																							l	{SPACE}		no	BlockProc1		BlockList									36	Cued	d	color_yellow.png		0	7	497561	310																								75	prime_left.png	0	497191	0	0	13	0	497191	0	497191	1	497191	20	0	-1	495692	497191	497190	0		TrialProc1	left	0		0	10	497501	-497501		0	0	TrialList1	target_left.png	1	d	0	3	497241	260	d	313	497554												1	1	36				comp			300
1 ver1_main_procedure	28	1	28	<?xml version="1.0"?>\n<Clock xmlns:dt="urn:schemas-microsoft-com:datatypes"><Description dt:dt="string">E-Prime Primary Realtime Clock</Description><StartTime><Timestamp dt:dt="int">0</Timestamp><DateUtc dt:dt="string">2015-08-14T13:09:43Z</DateUtc></StartTime><FrequencyChanges><FrequencyChange><Frequency dt:dt="r8">2441416</Frequency><Timestamp dt:dt="r8">30583066389</Timestamp><Current dt:dt="r8">0</Current><DateUtc dt:dt="string">2015-08-14T13:09:43Z</DateUtc></FrequencyChange></FrequencyChanges></Clock>\n	1 ver1_main_procedure-28-1	99.925	1.0.0.880	2	pj	518776876	prawa	1	2.0.10.356	08-14-2015	2015-08-14 13:09:44	15:09:44	kobieta	2.0.10.92	3	3	1	1																							l	{SPACE}		no	BlockProc1		BlockList									37	Cued	d	color_red.png		0	5	500113	160																								25	prime_right.png	0	499683	0	0	13	0	499683	0	499683	2	499683	20	0	-1	498184	499683	499681	0		TrialProc1	left	0		0	10	499993	-499993		0	0	TrialList1	target_left.png	1	d	0	3	499733	260	d	374	500107												3	1	37				incomp			150
1 ver1_main_procedure	28	1	28	<?xml version="1.0"?>\n<Clock xmlns:dt="urn:schemas-microsoft-com:datatypes"><Description dt:dt="string">E-Prime Primary Realtime Clock</Description><StartTime><Timestamp dt:dt="int">0</Timestamp><DateUtc dt:dt="string">2015-08-14T13:09:43Z</DateUtc></StartTime><FrequencyChanges><FrequencyChange><Frequency dt:dt="r8">2441416</Frequency><Timestamp dt:dt="r8">30583066389</Timestamp><Current dt:dt="r8">0</Current><DateUtc dt:dt="string">2015-08-14T13:09:43Z</DateUtc></FrequencyChange></FrequencyChanges></Clock>\n	1 ver1_main_procedure-28-1	99.925	1.0.0.880	2	pj	518776876	prawa	1	2.0.10.356	08-14-2015	2015-08-14 13:09:44	15:09:44	kobieta	2.0.10.92	3	3	1	1																							l	{SPACE}		no	BlockProc1		BlockList									38	Free	dl	color_yellow.png		0	12	502725	160																								25	prime_left.png	0	502084	0	0	13	0	502084	0	502084	1	502084	20	0	-1	500585	502084	502083	0		TrialProc1	right	0		1	10	502394	-502394		0	0	TrialList1	target_both.png	0	dl	0	3	502134	260	d	578	502712												12	1	38				incomp			150
1 ver1_main_procedure	28	1	28	<?xml version="1.0"?>\n<Clock xmlns:dt="urn:schemas-microsoft-com:datatypes"><Description dt:dt="string">E-Prime Primary Realtime Clock</Description><StartTime><Timestamp dt:dt="int">0</Timestamp><DateUtc dt:dt="string">2015-08-14T13:09:43Z</DateUtc></StartTime><FrequencyChanges><FrequencyChange><Frequency dt:dt="r8">2441416</Frequency><Timestamp dt:dt="r8">30583066389</Timestamp><Current dt:dt="r8">0</Current><DateUtc dt:dt="string">2015-08-14T13:09:43Z</DateUtc></FrequencyChange></FrequencyChanges></Clock>\n	1 ver1_main_procedure-28-1	99.925	1.0.0.880	2	pj	518776876	prawa	1	2.0.10.356	08-14-2015	2015-08-14 13:09:44	15:09:44	kobieta	2.0.10.92	3	3	1	1																							l	{SPACE}		no	BlockProc1		BlockList									39	Cued	d	color_orange.png		0	7	505127	310																			2					75	prime_right.png	0	504696	0	0	13	0	504696	0	504696	1	504696	20	0	-1	503197	504696	504695	0	prime_right.png	TrialProc1	left	0		1	10	505006	-505006		0	0	TrialList1	target_left.png	1	d	0	3	504746	260	d	374	505120												2	1	39				neut			300
1 ver1_main_procedure	28	1	28	<?xml version="1.0"?>\n<Clock xmlns:dt="urn:schemas-microsoft-com:datatypes"><Description dt:dt="string">E-Prime Primary Realtime Clock</Description><StartTime><Timestamp dt:dt="int">0</Timestamp><DateUtc dt:dt="string">2015-08-14T13:09:43Z</DateUtc></StartTime><FrequencyChanges><FrequencyChange><Frequency dt:dt="r8">2441416</Frequency><Timestamp dt:dt="r8">30583066389</Timestamp><Current dt:dt="r8">0</Current><DateUtc dt:dt="string">2015-08-14T13:09:43Z</DateUtc></FrequencyChange></FrequencyChanges></Clock>\n	1 ver1_main_procedure-28-1	99.925	1.0.0.880	2	pj	518776876	prawa	1	2.0.10.356	08-14-2015	2015-08-14 13:09:44	15:09:44	kobieta	2.0.10.92	3	3	1	1																							l	{SPACE}		no	BlockProc1		BlockList									40	Cued	d	color_yellow.png		0	6	507628	461																								75	prime_left.png	0	507248	0	0	13	0	507248	0	507248	1	507248	20	0	-1	505749	507248	507247	0		TrialProc1	left	0		0	10	507558	-507558		0	0	TrialList1	target_left.png	1	d	0	3	507298	260	d	324	507622												1	1	40				comp			450
1 ver1_main_procedure	28	1	28	<?xml version="1.0"?>\n<Clock xmlns:dt="urn:schemas-microsoft-com:datatypes"><Description dt:dt="string">E-Prime Primary Realtime Clock</Description><StartTime><Timestamp dt:dt="int">0</Timestamp><DateUtc dt:dt="string">2015-08-14T13:09:43Z</DateUtc></StartTime><FrequencyChanges><FrequencyChange><Frequency dt:dt="r8">2441416</Frequency><Timestamp dt:dt="r8">30583066389</Timestamp><Current dt:dt="r8">0</Current><DateUtc dt:dt="string">2015-08-14T13:09:43Z</DateUtc></FrequencyChange></FrequencyChanges></Clock>\n	1 ver1_main_procedure-28-1	99.925	1.0.0.880	2	pj	518776876	prawa	1	2.0.10.356	08-14-2015	2015-08-14 13:09:44	15:09:44	kobieta	2.0.10.92	3	3	1	1																							l	{SPACE}		no	BlockProc1		BlockList									41	Cued	d	color_yellow.png		0	12	510260	461																								75	prime_left.png	0	509900	0	0	13	0	509900	0	509900	1	509900	20	0	-1	508401	509900	509899	0		TrialProc1	left	0		0	10	510210	-510210		0	0	TrialList1	target_left.png	1	d	0	3	509950	260	d	298	510248												1	1	41				comp			450
1 ver1_main_procedure	28	1	28	<?xml version="1.0"?>\n<Clock xmlns:dt="urn:schemas-microsoft-com:datatypes"><Description dt:dt="string">E-Prime Primary Realtime Clock</Description><StartTime><Timestamp dt:dt="int">0</Timestamp><DateUtc dt:dt="string">2015-08-14T13:09:43Z</DateUtc></StartTime><FrequencyChanges><FrequencyChange><Frequency dt:dt="r8">2441416</Frequency><Timestamp dt:dt="r8">30583066389</Timestamp><Current dt:dt="r8">0</Current><DateUtc dt:dt="string">2015-08-14T13:09:43Z</DateUtc></FrequencyChange></FrequencyChanges></Clock>\n	1 ver1_main_procedure-28-1	99.925	1.0.0.880	2	pj	518776876	prawa	1	2.0.10.356	08-14-2015	2015-08-14 13:09:44	15:09:44	kobieta	2.0.10.92	3	3	1	1																							l	{SPACE}		no	BlockProc1		BlockList									42	Cued	l	color_purple.png		0	8	512952	311																								25	prime_left.png	0	512532	0	0	13	0	512532	0	512532	1	512532	20	0	-1	511033	512532	512531	0		TrialProc1	right	0		0	10	512842	-512842		0	0	TrialList1	target_right.png	1	l	0	3	512582	260	l	362	512944												6	1	42				incomp			300
1 ver1_main_procedure	28	1	28	<?xml version="1.0"?>\n<Clock xmlns:dt="urn:schemas-microsoft-com:datatypes"><Description dt:dt="string">E-Prime Primary Realtime Clock</Description><StartTime><Timestamp dt:dt="int">0</Timestamp><DateUtc dt:dt="string">2015-08-14T13:09:43Z</DateUtc></StartTime><FrequencyChanges><FrequencyChange><Frequency dt:dt="r8">2441416</Frequency><Timestamp dt:dt="r8">30583066389</Timestamp><Current dt:dt="r8">0</Current><DateUtc dt:dt="string">2015-08-14T13:09:43Z</DateUtc></FrequencyChange></FrequencyChanges></Clock>\n	1 ver1_main_procedure-28-1	99.925	1.0.0.880	2	pj	518776876	prawa	1	2.0.10.356	08-14-2015	2015-08-14 13:09:44	15:09:44	kobieta	2.0.10.92	3	3	1	1																							l	{SPACE}		no	BlockProc1		BlockList									43	Cued	d	color_red.png		0	10	515434	160																								75	prime_right.png	0	515074	0	0	13	0	515074	0	515074	1	515074	20	0	-1	513575	515074	515073	0		TrialProc1	left	0		0	10	515384	-515384		0	0	TrialList1	target_left.png	1	d	0	3	515124	260	d	300	515424												3	1	43				incomp			150
1 ver1_main_procedure	28	1	28	<?xml version="1.0"?>\n<Clock xmlns:dt="urn:schemas-microsoft-com:datatypes"><Description dt:dt="string">E-Prime Primary Realtime Clock</Description><StartTime><Timestamp dt:dt="int">0</Timestamp><DateUtc dt:dt="string">2015-08-14T13:09:43Z</DateUtc></StartTime><FrequencyChanges><FrequencyChange><Frequency dt:dt="r8">2441416</Frequency><Timestamp dt:dt="r8">30583066389</Timestamp><Current dt:dt="r8">0</Current><DateUtc dt:dt="string">2015-08-14T13:09:43Z</DateUtc></FrequencyChange></FrequencyChanges></Clock>\n	1 ver1_main_procedure-28-1	99.925	1.0.0.880	2	pj	518776876	prawa	1	2.0.10.356	08-14-2015	2015-08-14 13:09:44	15:09:44	kobieta	2.0.10.92	3	3	1	1																							l	{SPACE}		no	BlockProc1		BlockList									44	Free	dl	color_green.png		0	8	517906	460																								75	prime_right.png	0	517406	0	0	13	0	517406	0	517406	2	517406	20	0	-1	515907	517406	517404	0		TrialProc1	left	0		0	10	517716	-517716		0	0	TrialList1	target_both.png	0	dl	0	3	517456	260	l	442	517898												9	1	44				incomp			450
1 ver1_main_procedure	28	1	28	<?xml version="1.0"?>\n<Clock xmlns:dt="urn:schemas-microsoft-com:datatypes"><Description dt:dt="string">E-Prime Primary Realtime Clock</Description><StartTime><Timestamp dt:dt="int">0</Timestamp><DateUtc dt:dt="string">2015-08-14T13:09:43Z</DateUtc></StartTime><FrequencyChanges><FrequencyChange><Frequency dt:dt="r8">2441416</Frequency><Timestamp dt:dt="r8">30583066389</Timestamp><Current dt:dt="r8">0</Current><DateUtc dt:dt="string">2015-08-14T13:09:43Z</DateUtc></FrequencyChange></FrequencyChanges></Clock>\n	1 ver1_main_procedure-28-1	99.925	1.0.0.880	2	pj	518776876	prawa	1	2.0.10.356	08-14-2015	2015-08-14 13:09:44	15:09:44	kobieta	2.0.10.92	3	3	1	1																							l	{SPACE}		no	BlockProc1		BlockList									45	Cued	l	color_green.png		0	9	520638	460																								75	prime_right.png	0	520178	0	0	13	0	520178	0	520178	1	520178	20	0	-1	518679	520178	520177	0		TrialProc1	right	0		0	10	520488	-520488		0	0	TrialList1	target_right.png	1	l	0	3	520228	260	l	401	520629												4	1	45				comp			450
1 ver1_main_procedure	28	1	28	<?xml version="1.0"?>\n<Clock xmlns:dt="urn:schemas-microsoft-com:datatypes"><Description dt:dt="string">E-Prime Primary Realtime Clock</Description><StartTime><Timestamp dt:dt="int">0</Timestamp><DateUtc dt:dt="string">2015-08-14T13:09:43Z</DateUtc></StartTime><FrequencyChanges><FrequencyChange><Frequency dt:dt="r8">2441416</Frequency><Timestamp dt:dt="r8">30583066389</Timestamp><Current dt:dt="r8">0</Current><DateUtc dt:dt="string">2015-08-14T13:09:43Z</DateUtc></FrequencyChange></FrequencyChanges></Clock>\n	1 ver1_main_procedure-28-1	99.925	1.0.0.880	2	pj	518776876	prawa	1	2.0.10.356	08-14-2015	2015-08-14 13:09:44	15:09:44	kobieta	2.0.10.92	3	3	1	1																							l	{SPACE}		no	BlockProc1		BlockList									46	Free	dl	color_yellow.png		0	13	523210	310																								75	prime_left.png	0	522910	0	0	13	0	522910	0	522910	1	522910	20	0	-1	521411	522910	522909	0		TrialProc1	left	0		0	0	0	0		0	0	TrialList1	target_both.png	0	dl	-999999	3	522960	0	d	237	523197												7	1	46				comp			300
1 ver1_main_procedure	28	1	28	<?xml version="1.0"?>\n<Clock xmlns:dt="urn:schemas-microsoft-com:datatypes"><Description dt:dt="string">E-Prime Primary Realtime Clock</Description><StartTime><Timestamp dt:dt="int">0</Timestamp><DateUtc dt:dt="string">2015-08-14T13:09:43Z</DateUtc></StartTime><FrequencyChanges><FrequencyChange><Frequency dt:dt="r8">2441416</Frequency><Timestamp dt:dt="r8">30583066389</Timestamp><Current dt:dt="r8">0</Current><DateUtc dt:dt="string">2015-08-14T13:09:43Z</DateUtc></FrequencyChange></FrequencyChanges></Clock>\n	1 ver1_main_procedure-28-1	99.925	1.0.0.880	2	pj	518776876	prawa	1	2.0.10.356	08-14-2015	2015-08-14 13:09:44	15:09:44	kobieta	2.0.10.92	3	3	1	1																							l	{SPACE}		no	BlockProc1		BlockList									47	Free	dl	color_blue.png		0	13	525862	460																			1					75	prime_left.png	1	525332	0	0	13	1	525332	1	525332	1	525331	20	0	-1	523833	525331	525330	0	prime_left.png	TrialProc1	left	0		0	11	525642	-525642		0	0	TrialList1	target_both.png	0	dl	0	3	525381	261	l	468	525849												8	1	47				neut			450
1 ver1_main_procedure	28	1	28	<?xml version="1.0"?>\n<Clock xmlns:dt="urn:schemas-microsoft-com:datatypes"><Description dt:dt="string">E-Prime Primary Realtime Clock</Description><StartTime><Timestamp dt:dt="int">0</Timestamp><DateUtc dt:dt="string">2015-08-14T13:09:43Z</DateUtc></StartTime><FrequencyChanges><FrequencyChange><Frequency dt:dt="r8">2441416</Frequency><Timestamp dt:dt="r8">30583066389</Timestamp><Current dt:dt="r8">0</Current><DateUtc dt:dt="string">2015-08-14T13:09:43Z</DateUtc></FrequencyChange></FrequencyChanges></Clock>\n	1 ver1_main_procedure-28-1	99.925	1.0.0.880	2	pj	518776876	prawa	1	2.0.10.356	08-14-2015	2015-08-14 13:09:44	15:09:44	kobieta	2.0.10.92	3	3	1	1																							l	{SPACE}		no	BlockProc1		BlockList									48	Free	dl	color_green.png		0	13	528674	460																								25	prime_right.png	0	528134	0	0	13	0	528134	0	528134	2	528134	20	0	-1	526635	528134	528132	0		TrialProc1	right	0		0	10	528444	-528444		0	0	TrialList1	target_both.png	0	dl	0	3	528184	260	l	477	528661												10	1	48				comp			450
1 ver1_main_procedure	28	1	28	<?xml version="1.0"?>\n<Clock xmlns:dt="urn:schemas-microsoft-com:datatypes"><Description dt:dt="string">E-Prime Primary Realtime Clock</Description><StartTime><Timestamp dt:dt="int">0</Timestamp><DateUtc dt:dt="string">2015-08-14T13:09:43Z</DateUtc></StartTime><FrequencyChanges><FrequencyChange><Frequency dt:dt="r8">2441416</Frequency><Timestamp dt:dt="r8">30583066389</Timestamp><Current dt:dt="r8">0</Current><DateUtc dt:dt="string">2015-08-14T13:09:43Z</DateUtc></FrequencyChange></FrequencyChanges></Clock>\n	1 ver1_main_procedure-28-1	99.925	1.0.0.880	2	pj	518776876	prawa	1	2.0.10.356	08-14-2015	2015-08-14 13:09:44	15:09:44	kobieta	2.0.10.92	3	3	1	1																							l	{SPACE}		no	BlockProc1		BlockList									49	Free	dl	color_orange.png		0	13	531456	310																			2					75	prime_right.png	0	530946	0	0	13	0	530946	0	530946	1	530946	20	0	-1	529447	530946	530945	0	prime_right.png	TrialProc1	right	0		0	10	531256	-531256		0	0	TrialList1	target_both.png	0	dl	0	3	530996	260	d	447	531443												11	1	49				neut			300
1 ver1_main_procedure	28	1	28	<?xml version="1.0"?>\n<Clock xmlns:dt="urn:schemas-microsoft-com:datatypes"><Description dt:dt="string">E-Prime Primary Realtime Clock</Description><StartTime><Timestamp dt:dt="int">0</Timestamp><DateUtc dt:dt="string">2015-08-14T13:09:43Z</DateUtc></StartTime><FrequencyChanges><FrequencyChange><Frequency dt:dt="r8">2441416</Frequency><Timestamp dt:dt="r8">30583066389</Timestamp><Current dt:dt="r8">0</Current><DateUtc dt:dt="string">2015-08-14T13:09:43Z</DateUtc></FrequencyChange></FrequencyChanges></Clock>\n	1 ver1_main_procedure-28-1	99.925	1.0.0.880	2	pj	518776876	prawa	1	2.0.10.356	08-14-2015	2015-08-14 13:09:44	15:09:44	kobieta	2.0.10.92	3	3	1	1																							l	{SPACE}		no	BlockProc1		BlockList									50	Cued	d			0	11	534138	460																			1					75	prime_left.png	0	533578	0	0	13	0	533578	0	533578	2	533578	20	0	-1	532079	533578	533576	0	prime_left.png	TrialProc1	left	0		0	10	533888	-533888		0	0	TrialList1	target_left.png	0	d	0	3	533628	260	l	499	534127												2	1	50				neut			450
1 ver1_main_procedure	28	1	28	<?xml version="1.0"?>\n<Clock xmlns:dt="urn:schemas-microsoft-com:datatypes"><Description dt:dt="string">E-Prime Primary Realtime Clock</Description><StartTime><Timestamp dt:dt="int">0</Timestamp><DateUtc dt:dt="string">2015-08-14T13:09:43Z</DateUtc></StartTime><FrequencyChanges><FrequencyChange><Frequency dt:dt="r8">2441416</Frequency><Timestamp dt:dt="r8">30583066389</Timestamp><Current dt:dt="r8">0</Current><DateUtc dt:dt="string">2015-08-14T13:09:43Z</DateUtc></FrequencyChange></FrequencyChanges></Clock>\n	1 ver1_main_procedure-28-1	99.925	1.0.0.880	2	pj	518776876	prawa	1	2.0.10.356	08-14-2015	2015-08-14 13:09:44	15:09:44	kobieta	2.0.10.92	3	3	1	1																							l	{SPACE}		no	BlockProc1		BlockList									51	Cued	l	color_green.png		0	8	536860	460																								25	prime_right.png	0	536410	0	0	13	0	536410	0	536410	1	536410	20	0	-1	534911	536410	536409	0		TrialProc1	right	0		0	10	536720	-536720		0	0	TrialList1	target_right.png	1	l	0	3	536460	260	l	392	536852												4	1	51				comp			450
1 ver1_main_procedure	28	1	28	<?xml version="1.0"?>\n<Clock xmlns:dt="urn:schemas-microsoft-com:datatypes"><Description dt:dt="string">E-Prime Primary Realtime Clock</Description><StartTime><Timestamp dt:dt="int">0</Timestamp><DateUtc dt:dt="string">2015-08-14T13:09:43Z</DateUtc></StartTime><FrequencyChanges><FrequencyChange><Frequency dt:dt="r8">2441416</Frequency><Timestamp dt:dt="r8">30583066389</Timestamp><Current dt:dt="r8">0</Current><DateUtc dt:dt="string">2015-08-14T13:09:43Z</DateUtc></FrequencyChange></FrequencyChanges></Clock>\n	1 ver1_main_procedure-28-1	99.925	1.0.0.880	2	pj	518776876	prawa	1	2.0.10.356	08-14-2015	2015-08-14 13:09:44	15:09:44	kobieta	2.0.10.92	3	3	1	1																							l	{SPACE}		no	BlockProc1		BlockList									52	Cued	l	color_blue.png		0	12	539622	310																			2					75	prime_right.png	0	539132	0	0	13	0	539132	0	539132	1	539132	20	0	-1	537633	539132	539131	0	prime_right.png	TrialProc1	right	0		0	10	539442	-539442		0	0	TrialList1	target_right.png	1	l	0	3	539182	260	l	427	539609												5	1	52				neut			300
1 ver1_main_procedure	28	1	28	<?xml version="1.0"?>\n<Clock xmlns:dt="urn:schemas-microsoft-com:datatypes"><Description dt:dt="string">E-Prime Primary Realtime Clock</Description><StartTime><Timestamp dt:dt="int">0</Timestamp><DateUtc dt:dt="string">2015-08-14T13:09:43Z</DateUtc></StartTime><FrequencyChanges><FrequencyChange><Frequency dt:dt="r8">2441416</Frequency><Timestamp dt:dt="r8">30583066389</Timestamp><Current dt:dt="r8">0</Current><DateUtc dt:dt="string">2015-08-14T13:09:43Z</DateUtc></FrequencyChange></FrequencyChanges></Clock>\n	1 ver1_main_procedure-28-1	99.925	1.0.0.880	2	pj	518776876	prawa	1	2.0.10.356	08-14-2015	2015-08-14 13:09:44	15:09:44	kobieta	2.0.10.92	3	3	1	1																							l	{SPACE}		no	BlockProc1		BlockList									53	Cued	l	color_green.png		0	10	542284	460																								25	prime_right.png	0	541744	0	0	13	0	541744	0	541744	2	541744	20	0	-1	540245	541744	541742	0		TrialProc1	right	0		0	10	542054	-542054		0	0	TrialList1	target_right.png	1	l	0	3	541794	260	l	479	542273												4	1	53				comp			450
1 ver1_main_procedure	28	1	28	<?xml version="1.0"?>\n<Clock xmlns:dt="urn:schemas-microsoft-com:datatypes"><Description dt:dt="string">E-Prime Primary Realtime Clock</Description><StartTime><Timestamp dt:dt="int">0</Timestamp><DateUtc dt:dt="string">2015-08-14T13:09:43Z</DateUtc></StartTime><FrequencyChanges><FrequencyChange><Frequency dt:dt="r8">2441416</Frequency><Timestamp dt:dt="r8">30583066389</Timestamp><Current dt:dt="r8">0</Current><DateUtc dt:dt="string">2015-08-14T13:09:43Z</DateUtc></FrequencyChange></FrequencyChanges></Clock>\n	1 ver1_main_procedure-28-1	99.925	1.0.0.880	2	pj	518776876	prawa	1	2.0.10.356	08-14-2015	2015-08-14 13:09:44	15:09:44	kobieta	2.0.10.92	3	3	1	1																							l	{SPACE}		no	BlockProc1		BlockList									54	Free	dl	color_orange.png		0	13	544996	460																			1					75	prime_left.png	0	544556	0	0	13	0	544556	0	544556	1	544556	20	0	-1	543057	544556	544555	0	prime_left.png	TrialProc1	left	0		0	10	544866	-544866		0	0	TrialList1	target_both.png	0	dl	0	3	544606	260	d	377	544983												8	1	54				neut			450
1 ver1_main_procedure	28	1	28	<?xml version="1.0"?>\n<Clock xmlns:dt="urn:schemas-microsoft-com:datatypes"><Description dt:dt="string">E-Prime Primary Realtime Clock</Description><StartTime><Timestamp dt:dt="int">0</Timestamp><DateUtc dt:dt="string">2015-08-14T13:09:43Z</DateUtc></StartTime><FrequencyChanges><FrequencyChange><Frequency dt:dt="r8">2441416</Frequency><Timestamp dt:dt="r8">30583066389</Timestamp><Current dt:dt="r8">0</Current><DateUtc dt:dt="string">2015-08-14T13:09:43Z</DateUtc></FrequencyChange></FrequencyChanges></Clock>\n	1 ver1_main_procedure-28-1	99.925	1.0.0.880	2	pj	518776876	prawa	1	2.0.10.356	08-14-2015	2015-08-14 13:09:44	15:09:44	kobieta	2.0.10.92	3	3	1	1																							l	{SPACE}		no	BlockProc1		BlockList									55	Free	dl	color_purple.png		0	9	547668	310																								25	prime_left.png	0	547268	0	0	13	0	547268	0	547268	1	547268	20	0	-1	545769	547268	547267	0		TrialProc1	right	0		0	10	547578	-547578		0	0	TrialList1	target_both.png	0	dl	0	3	547318	260	l	341	547659												12	1	55				incomp			300
1 ver1_main_procedure	28	1	28	<?xml version="1.0"?>\n<Clock xmlns:dt="urn:schemas-microsoft-com:datatypes"><Description dt:dt="string">E-Prime Primary Realtime Clock</Description><StartTime><Timestamp dt:dt="int">0</Timestamp><DateUtc dt:dt="string">2015-08-14T13:09:43Z</DateUtc></StartTime><FrequencyChanges><FrequencyChange><Frequency dt:dt="r8">2441416</Frequency><Timestamp dt:dt="r8">30583066389</Timestamp><Current dt:dt="r8">0</Current><DateUtc dt:dt="string">2015-08-14T13:09:43Z</DateUtc></FrequencyChange></FrequencyChanges></Clock>\n	1 ver1_main_procedure-28-1	99.925	1.0.0.880	2	pj	518776876	prawa	1	2.0.10.356	08-14-2015	2015-08-14 13:09:44	15:09:44	kobieta	2.0.10.92	3	3	1	1																							l	{SPACE}		no	BlockProc1		BlockList									56	Cued	l	color_blue.png		0	9	550250	460																			2					25	prime_right.png	0	549790	0	0	13	0	549790	0	549790	2	549790	20	0	-1	548291	549790	549788	0	prime_right.png	TrialProc1	right	0		0	10	550100	-550100		0	0	TrialList1	target_right.png	1	l	0	3	549840	260	l	401	550241												5	1	56				neut			450
1 ver1_main_procedure	28	1	28	<?xml version="1.0"?>\n<Clock xmlns:dt="urn:schemas-microsoft-com:datatypes"><Description dt:dt="string">E-Prime Primary Realtime Clock</Description><StartTime><Timestamp dt:dt="int">0</Timestamp><DateUtc dt:dt="string">2015-08-14T13:09:43Z</DateUtc></StartTime><FrequencyChanges><FrequencyChange><Frequency dt:dt="r8">2441416</Frequency><Timestamp dt:dt="r8">30583066389</Timestamp><Current dt:dt="r8">0</Current><DateUtc dt:dt="string">2015-08-14T13:09:43Z</DateUtc></FrequencyChange></FrequencyChanges></Clock>\n	1 ver1_main_procedure-28-1	99.925	1.0.0.880	2	pj	518776876	prawa	1	2.0.10.356	08-14-2015	2015-08-14 13:09:44	15:09:44	kobieta	2.0.10.92	3	3	1	1																							l	{SPACE}		no	BlockProc1		BlockList									57	Cued	d	color_yellow.png		0	14	552892	460																								75	prime_left.png	0	552522	0	0	13	0	552522	0	552522	2	552522	20	0	-1	551023	552522	552520	0		TrialProc1	left	0		0	10	552832	-552832		0	0	TrialList1	target_left.png	1	d	0	3	552572	260	d	306	552878												1	1	57				comp			450
1 ver1_main_procedure	28	1	28	<?xml version="1.0"?>\n<Clock xmlns:dt="urn:schemas-microsoft-com:datatypes"><Description dt:dt="string">E-Prime Primary Realtime Clock</Description><StartTime><Timestamp dt:dt="int">0</Timestamp><DateUtc dt:dt="string">2015-08-14T13:09:43Z</DateUtc></StartTime><FrequencyChanges><FrequencyChange><Frequency dt:dt="r8">2441416</Frequency><Timestamp dt:dt="r8">30583066389</Timestamp><Current dt:dt="r8">0</Current><DateUtc dt:dt="string">2015-08-14T13:09:43Z</DateUtc></FrequencyChange></FrequencyChanges></Clock>\n	1 ver1_main_procedure-28-1	99.925	1.0.0.880	2	pj	518776876	prawa	1	2.0.10.356	08-14-2015	2015-08-14 13:09:44	15:09:44	kobieta	2.0.10.92	3	3	1	1																							l	{SPACE}		no	BlockProc1		BlockList									58	Cued	d	color_red.png		0	6	555664	160																								25	prime_right.png	1	555164	0	0	13	1	555164	1	555164	1	555163	21	0	-1	553665	555163	555162	0		TrialProc1	left	0		0	10	555474	-555474		0	0	TrialList1	target_left.png	1	d	0	3	555214	260	d	444	555658												3	1	58				incomp			150
1 ver1_main_procedure	28	1	28	<?xml version="1.0"?>\n<Clock xmlns:dt="urn:schemas-microsoft-com:datatypes"><Description dt:dt="string">E-Prime Primary Realtime Clock</Description><StartTime><Timestamp dt:dt="int">0</Timestamp><DateUtc dt:dt="string">2015-08-14T13:09:43Z</DateUtc></StartTime><FrequencyChanges><FrequencyChange><Frequency dt:dt="r8">2441416</Frequency><Timestamp dt:dt="r8">30583066389</Timestamp><Current dt:dt="r8">0</Current><DateUtc dt:dt="string">2015-08-14T13:09:43Z</DateUtc></FrequencyChange></FrequencyChanges></Clock>\n	1 ver1_main_procedure-28-1	99.925	1.0.0.880	2	pj	518776876	prawa	1	2.0.10.356	08-14-2015	2015-08-14 13:09:44	15:09:44	kobieta	2.0.10.92	3	3	1	1																							l	{SPACE}		no	BlockProc1		BlockList									59	Cued	l	color_purple.png		0	10	558076	160																								75	prime_left.png	0	557635	0	0	13	0	557635	0	557635	1	557635	20	0	-1	556137	557635	557634	0		TrialProc1	right	0		0	11	557946	-557946		0	0	TrialList1	target_right.png	1	l	0	3	557685	261	l	381	558066												6	1	59				incomp			150
1 ver1_main_procedure	28	1	28	<?xml version="1.0"?>\n<Clock xmlns:dt="urn:schemas-microsoft-com:datatypes"><Description dt:dt="string">E-Prime Primary Realtime Clock</Description><StartTime><Timestamp dt:dt="int">0</Timestamp><DateUtc dt:dt="string">2015-08-14T13:09:43Z</DateUtc></StartTime><FrequencyChanges><FrequencyChange><Frequency dt:dt="r8">2441416</Frequency><Timestamp dt:dt="r8">30583066389</Timestamp><Current dt:dt="r8">0</Current><DateUtc dt:dt="string">2015-08-14T13:09:43Z</DateUtc></FrequencyChange></FrequencyChanges></Clock>\n	1 ver1_main_procedure-28-1	99.925	1.0.0.880	2	pj	518776876	prawa	1	2.0.10.356	08-14-2015	2015-08-14 13:09:44	15:09:44	kobieta	2.0.10.92	3	3	1	1																							l	{SPACE}		no	BlockProc1		BlockList									60	Free	dl	color_orange.png		0	14	560578	160																			1					75	prime_left.png	0	560047	0	0	13	0	560047	0	560047	1	560047	20	0	-1	558548	560047	560046	0	prime_left.png	TrialProc1	right	0		0	10	560357	-560357		0	0	TrialList1	target_both.png	0	dl	0	3	560097	260	d	467	560564												11	1	60				neut			150
1 ver1_main_procedure	28	1	28	<?xml version="1.0"?>\n<Clock xmlns:dt="urn:schemas-microsoft-com:datatypes"><Description dt:dt="string">E-Prime Primary Realtime Clock</Description><StartTime><Timestamp dt:dt="int">0</Timestamp><DateUtc dt:dt="string">2015-08-14T13:09:43Z</DateUtc></StartTime><FrequencyChanges><FrequencyChange><Frequency dt:dt="r8">2441416</Frequency><Timestamp dt:dt="r8">30583066389</Timestamp><Current dt:dt="r8">0</Current><DateUtc dt:dt="string">2015-08-14T13:09:43Z</DateUtc></FrequencyChange></FrequencyChanges></Clock>\n	1 ver1_main_procedure-28-1	99.925	1.0.0.880	2	pj	518776876	prawa	1	2.0.10.356	08-14-2015	2015-08-14 13:09:44	15:09:44	kobieta	2.0.10.92	3	3	1	1																							l	{SPACE}		no	BlockProc1		BlockList									61	Cued	l	color_green.png		0	9	562989	311																								75	prime_right.png	0	562549	0	0	13	0	562549	0	562549	1	562549	20	0	-1	561050	562549	562548	0		TrialProc1	right	0		0	10	562859	-562859		0	0	TrialList1	target_right.png	1	l	0	3	562599	260	l	381	562980												4	1	61				comp			300
1 ver1_main_procedure	28	1	28	<?xml version="1.0"?>\n<Clock xmlns:dt="urn:schemas-microsoft-com:datatypes"><Description dt:dt="string">E-Prime Primary Realtime Clock</Description><StartTime><Timestamp dt:dt="int">0</Timestamp><DateUtc dt:dt="string">2015-08-14T13:09:43Z</DateUtc></StartTime><FrequencyChanges><FrequencyChange><Frequency dt:dt="r8">2441416</Frequency><Timestamp dt:dt="r8">30583066389</Timestamp><Current dt:dt="r8">0</Current><DateUtc dt:dt="string">2015-08-14T13:09:43Z</DateUtc></FrequencyChange></FrequencyChanges></Clock>\n	1 ver1_main_procedure-28-1	99.925	1.0.0.880	2	pj	518776876	prawa	1	2.0.10.356	08-14-2015	2015-08-14 13:09:44	15:09:44	kobieta	2.0.10.92	3	3	1	1																							l	{SPACE}		no	BlockProc1		BlockList									62	Cued	d	color_yellow.png		0	13	565511	461																								75	prime_left.png	0	565111	0	0	13	0	565111	0	565111	1	565111	20	0	-1	563612	565111	565110	0		TrialProc1	left	0		0	10	565421	-565421		0	0	TrialList1	target_left.png	1	d	0	3	565161	260	d	337	565498												1	1	62				comp			450
1 ver1_main_procedure	28	1	28	<?xml version="1.0"?>\n<Clock xmlns:dt="urn:schemas-microsoft-com:datatypes"><Description dt:dt="string">E-Prime Primary Realtime Clock</Description><StartTime><Timestamp dt:dt="int">0</Timestamp><DateUtc dt:dt="string">2015-08-14T13:09:43Z</DateUtc></StartTime><FrequencyChanges><FrequencyChange><Frequency dt:dt="r8">2441416</Frequency><Timestamp dt:dt="r8">30583066389</Timestamp><Current dt:dt="r8">0</Current><DateUtc dt:dt="string">2015-08-14T13:09:43Z</DateUtc></FrequencyChange></FrequencyChanges></Clock>\n	1 ver1_main_procedure-28-1	99.925	1.0.0.880	2	pj	518776876	prawa	1	2.0.10.356	08-14-2015	2015-08-14 13:09:44	15:09:44	kobieta	2.0.10.92	3	3	1	1																							l	{SPACE}		no	BlockProc1		BlockList									63	Cued	l	color_blue.png		0	12	568243	461																			2					75	prime_right.png	0	567783	0	0	13	0	567783	0	567783	1	567783	20	0	-1	566284	567783	567782	0	prime_right.png	TrialProc1	right	0		0	10	568093	-568093		0	0	TrialList1	target_right.png	1	l	0	3	567833	260	l	398	568231												5	1	63				neut			450
1 ver1_main_procedure	28	1	28	<?xml version="1.0"?>\n<Clock xmlns:dt="urn:schemas-microsoft-com:datatypes"><Description dt:dt="string">E-Prime Primary Realtime Clock</Description><StartTime><Timestamp dt:dt="int">0</Timestamp><DateUtc dt:dt="string">2015-08-14T13:09:43Z</DateUtc></StartTime><FrequencyChanges><FrequencyChange><Frequency dt:dt="r8">2441416</Frequency><Timestamp dt:dt="r8">30583066389</Timestamp><Current dt:dt="r8">0</Current><DateUtc dt:dt="string">2015-08-14T13:09:43Z</DateUtc></FrequencyChange></FrequencyChanges></Clock>\n	1 ver1_main_procedure-28-1	99.925	1.0.0.880	2	pj	518776876	prawa	1	2.0.10.356	08-14-2015	2015-08-14 13:09:44	15:09:44	kobieta	2.0.10.92	3	3	1	1																							l	{SPACE}		no	BlockProc1		BlockList									64	Cued	d	color_orange.png		0	12	570915	461																			1					25	prime_left.png	0	570515	0	0	13	0	570515	0	570515	1	570515	20	0	-1	569016	570515	570514	0	prime_left.png	TrialProc1	left	0		0	10	570825	-570825		0	0	TrialList1	target_left.png	1	d	0	3	570565	260	d	338	570903												2	1	64				neut			450
1 ver1_main_procedure	28	1	28	<?xml version="1.0"?>\n<Clock xmlns:dt="urn:schemas-microsoft-com:datatypes"><Description dt:dt="string">E-Prime Primary Realtime Clock</Description><StartTime><Timestamp dt:dt="int">0</Timestamp><DateUtc dt:dt="string">2015-08-14T13:09:43Z</DateUtc></StartTime><FrequencyChanges><FrequencyChange><Frequency dt:dt="r8">2441416</Frequency><Timestamp dt:dt="r8">30583066389</Timestamp><Current dt:dt="r8">0</Current><DateUtc dt:dt="string">2015-08-14T13:09:43Z</DateUtc></FrequencyChange></FrequencyChanges></Clock>\n	1 ver1_main_procedure-28-1	99.925	1.0.0.880	2	pj	518776876	prawa	1	2.0.10.356	08-14-2015	2015-08-14 13:09:44	15:09:44	kobieta	2.0.10.92	3	3	1	1																							l	{SPACE}		no	BlockProc1		BlockList									65	Cued	d	color_red.png		0	10	573677	310																								75	prime_right.png	0	573187	0	0	13	0	573187	0	573187	1	573187	20	0	-1	571688	573187	573186	0		TrialProc1	left	0		0	10	573497	-573497		0	0	TrialList1	target_left.png	1	d	0	3	573237	260	d	430	573667												3	1	65				incomp			300
1 ver1_main_procedure	28	1	28	<?xml version="1.0"?>\n<Clock xmlns:dt="urn:schemas-microsoft-com:datatypes"><Description dt:dt="string">E-Prime Primary Realtime Clock</Description><StartTime><Timestamp dt:dt="int">0</Timestamp><DateUtc dt:dt="string">2015-08-14T13:09:43Z</DateUtc></StartTime><FrequencyChanges><FrequencyChange><Frequency dt:dt="r8">2441416</Frequency><Timestamp dt:dt="r8">30583066389</Timestamp><Current dt:dt="r8">0</Current><DateUtc dt:dt="string">2015-08-14T13:09:43Z</DateUtc></FrequencyChange></FrequencyChanges></Clock>\n	1 ver1_main_procedure-28-1	99.925	1.0.0.880	2	pj	518776876	prawa	1	2.0.10.356	08-14-2015	2015-08-14 13:09:44	15:09:44	kobieta	2.0.10.92	3	3	1	1																							l	{SPACE}		no	BlockProc1		BlockList									66	Cued	l	color_purple.png		0	14	576239	310																								75	prime_left.png	0	575799	0	0	13	0	575799	0	575799	1	575799	20	0	-1	574300	575799	575798	0		TrialProc1	right	0		0	10	576109	-576109		0	0	TrialList1	target_right.png	1	l	0	3	575849	260	l	376	576225												6	1	66				incomp			300
1 ver1_main_procedure	28	1	28	<?xml version="1.0"?>\n<Clock xmlns:dt="urn:schemas-microsoft-com:datatypes"><Description dt:dt="string">E-Prime Primary Realtime Clock</Description><StartTime><Timestamp dt:dt="int">0</Timestamp><DateUtc dt:dt="string">2015-08-14T13:09:43Z</DateUtc></StartTime><FrequencyChanges><FrequencyChange><Frequency dt:dt="r8">2441416</Frequency><Timestamp dt:dt="r8">30583066389</Timestamp><Current dt:dt="r8">0</Current><DateUtc dt:dt="string">2015-08-14T13:09:43Z</DateUtc></FrequencyChange></FrequencyChanges></Clock>\n	1 ver1_main_procedure-28-1	99.925	1.0.0.880	2	pj	518776876	prawa	1	2.0.10.356	08-14-2015	2015-08-14 13:09:44	15:09:44	kobieta	2.0.10.92	3	3	1	1																							l	{SPACE}		no	BlockProc1		BlockList									67	Cued	l	color_green.png		0	14	578841	460																								75	prime_right.png	0	578361	0	0	13	0	578361	0	578361	1	578361	20	0	-1	576862	578361	578360	0		TrialProc1	right	0		0	10	578671	-578671		0	0	TrialList1	target_right.png	1	l	0	3	578411	260	l	416	578827												4	1	67				comp			450
1 ver1_main_procedure	28	1	28	<?xml version="1.0"?>\n<Clock xmlns:dt="urn:schemas-microsoft-com:datatypes"><Description dt:dt="string">E-Prime Primary Realtime Clock</Description><StartTime><Timestamp dt:dt="int">0</Timestamp><DateUtc dt:dt="string">2015-08-14T13:09:43Z</DateUtc></StartTime><FrequencyChanges><FrequencyChange><Frequency dt:dt="r8">2441416</Frequency><Timestamp dt:dt="r8">30583066389</Timestamp><Current dt:dt="r8">0</Current><DateUtc dt:dt="string">2015-08-14T13:09:43Z</DateUtc></FrequencyChange></FrequencyChanges></Clock>\n	1 ver1_main_procedure-28-1	99.925	1.0.0.880	2	pj	518776876	prawa	1	2.0.10.356	08-14-2015	2015-08-14 13:09:44	15:09:44	kobieta	2.0.10.92	3	3	1	1																							l	{SPACE}		no	BlockProc1		BlockList									68	Free	dl	color_orange.png		0	14	581633	310																			2					75	prime_right.png	0	581113	0	0	13	0	581113	0	581113	1	581113	20	0	-1	579614	581113	581112	0	prime_right.png	TrialProc1	right	0		0	10	581423	-581423		0	0	TrialList1	target_both.png	0	dl	0	3	581163	260	d	455	581618												11	1	68				neut			300
1 ver1_main_procedure	28	1	28	<?xml version="1.0"?>\n<Clock xmlns:dt="urn:schemas-microsoft-com:datatypes"><Description dt:dt="string">E-Prime Primary Realtime Clock</Description><StartTime><Timestamp dt:dt="int">0</Timestamp><DateUtc dt:dt="string">2015-08-14T13:09:43Z</DateUtc></StartTime><FrequencyChanges><FrequencyChange><Frequency dt:dt="r8">2441416</Frequency><Timestamp dt:dt="r8">30583066389</Timestamp><Current dt:dt="r8">0</Current><DateUtc dt:dt="string">2015-08-14T13:09:43Z</DateUtc></FrequencyChange></FrequencyChanges></Clock>\n	1 ver1_main_procedure-28-1	99.925	1.0.0.880	2	pj	518776876	prawa	1	2.0.10.356	08-14-2015	2015-08-14 13:09:44	15:09:44	kobieta	2.0.10.92	3	3	1	1																							l	{SPACE}		no	BlockProc1		BlockList									69	Cued	l	color_blue.png		0	13	584205	460																			1					25	prime_left.png	0	583755	0	0	13	0	583755	0	583755	1	583755	20	0	-1	582256	583755	583754	0	prime_left.png	TrialProc1	right	0		0	10	584065	-584065		0	0	TrialList1	target_right.png	1	l	0	3	583805	260	l	387	584192												5	1	69				neut			450
1 ver1_main_procedure	28	1	28	<?xml version="1.0"?>\n<Clock xmlns:dt="urn:schemas-microsoft-com:datatypes"><Description dt:dt="string">E-Prime Primary Realtime Clock</Description><StartTime><Timestamp dt:dt="int">0</Timestamp><DateUtc dt:dt="string">2015-08-14T13:09:43Z</DateUtc></StartTime><FrequencyChanges><FrequencyChange><Frequency dt:dt="r8">2441416</Frequency><Timestamp dt:dt="r8">30583066389</Timestamp><Current dt:dt="r8">0</Current><DateUtc dt:dt="string">2015-08-14T13:09:43Z</DateUtc></FrequencyChange></FrequencyChanges></Clock>\n	1 ver1_main_procedure-28-1	99.925	1.0.0.880	2	pj	518776876	prawa	1	2.0.10.356	08-14-2015	2015-08-14 13:09:44	15:09:44	kobieta	2.0.10.92	3	3	1	1																							l	{SPACE}		no	BlockProc1		BlockList									70	Cued	d	color_yellow.png		0	6	586917	460																								25	prime_left.png	0	586477	0	0	13	0	586477	0	586477	1	586477	20	0	-1	584978	586477	586476	0		TrialProc1	left	0		0	10	586787	-586787		0	0	TrialList1	target_left.png	1	d	0	3	586527	260	d	384	586911												1	1	70				comp			450
1 ver1_main_procedure	28	1	28	<?xml version="1.0"?>\n<Clock xmlns:dt="urn:schemas-microsoft-com:datatypes"><Description dt:dt="string">E-Prime Primary Realtime Clock</Description><StartTime><Timestamp dt:dt="int">0</Timestamp><DateUtc dt:dt="string">2015-08-14T13:09:43Z</DateUtc></StartTime><FrequencyChanges><FrequencyChange><Frequency dt:dt="r8">2441416</Frequency><Timestamp dt:dt="r8">30583066389</Timestamp><Current dt:dt="r8">0</Current><DateUtc dt:dt="string">2015-08-14T13:09:43Z</DateUtc></FrequencyChange></FrequencyChanges></Clock>\n	1 ver1_main_procedure-28-1	99.925	1.0.0.880	2	pj	518776876	prawa	1	2.0.10.356	08-14-2015	2015-08-14 13:09:44	15:09:44	kobieta	2.0.10.92	3	3	1	1																							l	{SPACE}		no	BlockProc1		BlockList									71	Cued	l	color_purple.png		0	14	589669	460																								25	prime_left.png	0	589189	0	0	13	0	589189	0	589189	1	589189	20	0	-1	587690	589189	589188	0		TrialProc1	right	0		0	10	589499	-589499		0	0	TrialList1	target_right.png	1	l	0	3	589239	260	l	416	589655												6	1	71				incomp			450
1 ver1_main_procedure	28	1	28	<?xml version="1.0"?>\n<Clock xmlns:dt="urn:schemas-microsoft-com:datatypes"><Description dt:dt="string">E-Prime Primary Realtime Clock</Description><StartTime><Timestamp dt:dt="int">0</Timestamp><DateUtc dt:dt="string">2015-08-14T13:09:43Z</DateUtc></StartTime><FrequencyChanges><FrequencyChange><Frequency dt:dt="r8">2441416</Frequency><Timestamp dt:dt="r8">30583066389</Timestamp><Current dt:dt="r8">0</Current><DateUtc dt:dt="string">2015-08-14T13:09:43Z</DateUtc></FrequencyChange></FrequencyChanges></Clock>\n	1 ver1_main_procedure-28-1	99.925	1.0.0.880	2	pj	518776876	prawa	1	2.0.10.356	08-14-2015	2015-08-14 13:09:44	15:09:44	kobieta	2.0.10.92	3	3	1	1																							l	{SPACE}		no	BlockProc1		BlockList									72	Cued	d	color_red.png		0	6	592391	460																								25	prime_right.png	0	591941	0	0	13	0	591941	0	591941	1	591941	20	0	-1	590442	591941	591940	0		TrialProc1	left	0		0	10	592251	-592251		0	0	TrialList1	target_left.png	1	d	0	3	591991	260	d	394	592385												3	1	72				incomp			450
1 ver1_main_procedure	28	1	28	<?xml version="1.0"?>\n<Clock xmlns:dt="urn:schemas-microsoft-com:datatypes"><Description dt:dt="string">E-Prime Primary Realtime Clock</Description><StartTime><Timestamp dt:dt="int">0</Timestamp><DateUtc dt:dt="string">2015-08-14T13:09:43Z</DateUtc></StartTime><FrequencyChanges><FrequencyChange><Frequency dt:dt="r8">2441416</Frequency><Timestamp dt:dt="r8">30583066389</Timestamp><Current dt:dt="r8">0</Current><DateUtc dt:dt="string">2015-08-14T13:09:43Z</DateUtc></FrequencyChange></FrequencyChanges></Clock>\n	1 ver1_main_procedure-28-1	99.925	1.0.0.880	2	pj	518776876	prawa	1	2.0.10.356	08-14-2015	2015-08-14 13:09:44	15:09:44	kobieta	2.0.10.92	3	3	1	1																							l	{SPACE}		no	BlockProc1		BlockList									73									3	6	4	5	2	1	color_yellow.png	color_orange.png	color_green.png	color_purple.png	color_red.png	color_blue.png	color_blue.png	color_red.png	color_yellow.png	color_green.png	color_purple.png	color_orange.png		1	1	1	30560																						DragProc											Ocena																															
1 ver1_main_procedure	28	1	28	<?xml version="1.0"?>\n<Clock xmlns:dt="urn:schemas-microsoft-com:datatypes"><Description dt:dt="string">E-Prime Primary Realtime Clock</Description><StartTime><Timestamp dt:dt="int">0</Timestamp><DateUtc dt:dt="string">2015-08-14T13:09:43Z</DateUtc></StartTime><FrequencyChanges><FrequencyChange><Frequency dt:dt="r8">2441416</Frequency><Timestamp dt:dt="r8">30583066389</Timestamp><Current dt:dt="r8">0</Current><DateUtc dt:dt="string">2015-08-14T13:09:43Z</DateUtc></FrequencyChange></FrequencyChanges></Clock>\n	1 ver1_main_procedure-28-1	99.925	1.0.0.880	2	pj	518776876	prawa	1	2.0.10.356	08-14-2015	2015-08-14 13:09:44	15:09:44	kobieta	2.0.10.92	3	3	1	1																							l	{SPACE}		no	BlockProc1		BlockList									74															color_yellow.png	color_orange.png	color_green.png	color_purple.png	color_red.png	color_blue.png								2	1	2																							EnterProc											Ocena												15	20	30	45	55	70														
1 ver1_main_procedure	28	1	28	<?xml version="1.0"?>\n<Clock xmlns:dt="urn:schemas-microsoft-com:datatypes"><Description dt:dt="string">E-Prime Primary Realtime Clock</Description><StartTime><Timestamp dt:dt="int">0</Timestamp><DateUtc dt:dt="string">2015-08-14T13:09:43Z</DateUtc></StartTime><FrequencyChanges><FrequencyChange><Frequency dt:dt="r8">2441416</Frequency><Timestamp dt:dt="r8">30583066389</Timestamp><Current dt:dt="r8">0</Current><DateUtc dt:dt="string">2015-08-14T13:09:43Z</DateUtc></FrequencyChange></FrequencyChanges></Clock>\n	1 ver1_main_procedure-28-1	99.925	1.0.0.880	2	pj	518776876	prawa	1	2.0.10.356	08-14-2015	2015-08-14 13:09:44	15:09:44	kobieta	2.0.10.92	4	5	1	2																							d	{SPACE}		no	BlockProc2		BlockList									1	Free	dl	color_blue.png		0	7	843687	160																								25	prime_left.png	0	842986	0	0	13	0	842986	0	842986	1	842986	20	0	-1	841487	842986	842985	0		TrialProc1	right	0		0	11	843297	-843297		0	0	TrialList2	target_both.png	0	dl	0	3	843036	261	l	644	843680															12	1	1	incomp			150
1 ver1_main_procedure	28	1	28	<?xml version="1.0"?>\n<Clock xmlns:dt="urn:schemas-microsoft-com:datatypes"><Description dt:dt="string">E-Prime Primary Realtime Clock</Description><StartTime><Timestamp dt:dt="int">0</Timestamp><DateUtc dt:dt="string">2015-08-14T13:09:43Z</DateUtc></StartTime><FrequencyChanges><FrequencyChange><Frequency dt:dt="r8">2441416</Frequency><Timestamp dt:dt="r8">30583066389</Timestamp><Current dt:dt="r8">0</Current><DateUtc dt:dt="string">2015-08-14T13:09:43Z</DateUtc></FrequencyChange></FrequencyChanges></Clock>\n	1 ver1_main_procedure-28-1	99.925	1.0.0.880	2	pj	518776876	prawa	1	2.0.10.356	08-14-2015	2015-08-14 13:09:44	15:09:44	kobieta	2.0.10.92	4	5	1	2																							d	{SPACE}		no	BlockProc2		BlockList									2	Cued	d	color_yellow.png		0	15	846019	160																								25	prime_right.png	0	845658	0	0	13	0	845658	0	845658	1	845658	20	0	-1	844159	845658	845657	0		TrialProc1	left	0		1	10	845968	-845968		0	0	TrialList2	target_left.png	1	d	0	3	845708	260	d	296	846004															3	1	2	incomp			150
1 ver1_main_procedure	28	1	28	<?xml version="1.0"?>\n<Clock xmlns:dt="urn:schemas-microsoft-com:datatypes"><Description dt:dt="string">E-Prime Primary Realtime Clock</Description><StartTime><Timestamp dt:dt="int">0</Timestamp><DateUtc dt:dt="string">2015-08-14T13:09:43Z</DateUtc></StartTime><FrequencyChanges><FrequencyChange><Frequency dt:dt="r8">2441416</Frequency><Timestamp dt:dt="r8">30583066389</Timestamp><Current dt:dt="r8">0</Current><DateUtc dt:dt="string">2015-08-14T13:09:43Z</DateUtc></FrequencyChange></FrequencyChanges></Clock>\n	1 ver1_main_procedure-28-1	99.925	1.0.0.880	2	pj	518776876	prawa	1	2.0.10.356	08-14-2015	2015-08-14 13:09:44	15:09:44	kobieta	2.0.10.92	4	5	1	2																							d	{SPACE}		no	BlockProc2		BlockList									3	Free	dl	color_blue.png		0	10	848460	160																								25	prime_left.png	0	847990	0	0	13	0	847990	0	847990	1	847990	20	0	-1	846491	847990	847989	0		TrialProc1	right	0		0	10	848300	-848300		0	0	TrialList2	target_both.png	0	dl	0	3	848040	260	l	410	848450															12	1	3	incomp			150
1 ver1_main_procedure	28	1	28	<?xml version="1.0"?>\n<Clock xmlns:dt="urn:schemas-microsoft-com:datatypes"><Description dt:dt="string">E-Prime Primary Realtime Clock</Description><StartTime><Timestamp dt:dt="int">0</Timestamp><DateUtc dt:dt="string">2015-08-14T13:09:43Z</DateUtc></StartTime><FrequencyChanges><FrequencyChange><Frequency dt:dt="r8">2441416</Frequency><Timestamp dt:dt="r8">30583066389</Timestamp><Current dt:dt="r8">0</Current><DateUtc dt:dt="string">2015-08-14T13:09:43Z</DateUtc></FrequencyChange></FrequencyChanges></Clock>\n	1 ver1_main_procedure-28-1	99.925	1.0.0.880	2	pj	518776876	prawa	1	2.0.10.356	08-14-2015	2015-08-14 13:09:44	15:09:44	kobieta	2.0.10.92	4	5	1	2																							d	{SPACE}		no	BlockProc2		BlockList									4	Free	dl	color_red.png		0	8	850962	461																			2					75	prime_right.png	0	850432	0	0	13	0	850432	0	850432	1	850432	20	0	-1	848933	850432	850431	0	prime_right.png	TrialProc1	right	0		0	10	850742	-850742		0	0	TrialList2	target_both.png	0	dl	0	3	850482	260	l	472	850954															11	1	4	neut			450
1 ver1_main_procedure	28	1	28	<?xml version="1.0"?>\n<Clock xmlns:dt="urn:schemas-microsoft-com:datatypes"><Description dt:dt="string">E-Prime Primary Realtime Clock</Description><StartTime><Timestamp dt:dt="int">0</Timestamp><DateUtc dt:dt="string">2015-08-14T13:09:43Z</DateUtc></StartTime><FrequencyChanges><FrequencyChange><Frequency dt:dt="r8">2441416</Frequency><Timestamp dt:dt="r8">30583066389</Timestamp><Current dt:dt="r8">0</Current><DateUtc dt:dt="string">2015-08-14T13:09:43Z</DateUtc></FrequencyChange></FrequencyChanges></Clock>\n	1 ver1_main_procedure-28-1	99.925	1.0.0.880	2	pj	518776876	prawa	1	2.0.10.356	08-14-2015	2015-08-14 13:09:44	15:09:44	kobieta	2.0.10.92	4	5	1	2																							d	{SPACE}		no	BlockProc2		BlockList									5	Cued	l	color_purple.png		0	9	853644	160																								25	prime_right.png	0	853234	0	0	13	0	853234	0	853234	1	853234	20	0	-1	851735	853234	853233	0		TrialProc1	right	0		0	10	853544	-853544		0	0	TrialList2	target_right.png	1	l	0	3	853284	260	l	351	853635															4	1	5	comp			150
1 ver1_main_procedure	28	1	28	<?xml version="1.0"?>\n<Clock xmlns:dt="urn:schemas-microsoft-com:datatypes"><Description dt:dt="string">E-Prime Primary Realtime Clock</Description><StartTime><Timestamp dt:dt="int">0</Timestamp><DateUtc dt:dt="string">2015-08-14T13:09:43Z</DateUtc></StartTime><FrequencyChanges><FrequencyChange><Frequency dt:dt="r8">2441416</Frequency><Timestamp dt:dt="r8">30583066389</Timestamp><Current dt:dt="r8">0</Current><DateUtc dt:dt="string">2015-08-14T13:09:43Z</DateUtc></FrequencyChange></FrequencyChanges></Clock>\n	1 ver1_main_procedure-28-1	99.925	1.0.0.880	2	pj	518776876	prawa	1	2.0.10.356	08-14-2015	2015-08-14 13:09:44	15:09:44	kobieta	2.0.10.92	4	5	1	2																							d	{SPACE}		no	BlockProc2		BlockList									6	Cued	l	color_red.png		0	7	856006	160																			1					75	prime_left.png	0	855616	0	0	13	0	855616	0	855616	2	855616	20	0	-1	854117	855616	855614	0	prime_left.png	TrialProc1	right	0		0	10	855926	-855926		0	0	TrialList2	target_right.png	1	l	0	3	855666	260	l	333	855999															5	1	6	neut			150
1 ver1_main_procedure	28	1	28	<?xml version="1.0"?>\n<Clock xmlns:dt="urn:schemas-microsoft-com:datatypes"><Description dt:dt="string">E-Prime Primary Realtime Clock</Description><StartTime><Timestamp dt:dt="int">0</Timestamp><DateUtc dt:dt="string">2015-08-14T13:09:43Z</DateUtc></StartTime><FrequencyChanges><FrequencyChange><Frequency dt:dt="r8">2441416</Frequency><Timestamp dt:dt="r8">30583066389</Timestamp><Current dt:dt="r8">0</Current><DateUtc dt:dt="string">2015-08-14T13:09:43Z</DateUtc></FrequencyChange></FrequencyChanges></Clock>\n	1 ver1_main_procedure-28-1	99.925	1.0.0.880	2	pj	518776876	prawa	1	2.0.10.356	08-14-2015	2015-08-14 13:09:44	15:09:44	kobieta	2.0.10.92	4	5	1	2																							d	{SPACE}		no	BlockProc2		BlockList									7	Free	dl	color_orange.png		0	9	858478	310																								75	prime_left.png	0	857977	0	0	13	0	857977	0	857977	1	857977	20	0	-1	856479	857977	857976	0		TrialProc1	left	0		0	11	858288	-858288		0	0	TrialList2	target_both.png	0	dl	0	3	858027	261	d	442	858469															7	1	7	comp			300
1 ver1_main_procedure	28	1	28	<?xml version="1.0"?>\n<Clock xmlns:dt="urn:schemas-microsoft-com:datatypes"><Description dt:dt="string">E-Prime Primary Realtime Clock</Description><StartTime><Timestamp dt:dt="int">0</Timestamp><DateUtc dt:dt="string">2015-08-14T13:09:43Z</DateUtc></StartTime><FrequencyChanges><FrequencyChange><Frequency dt:dt="r8">2441416</Frequency><Timestamp dt:dt="r8">30583066389</Timestamp><Current dt:dt="r8">0</Current><DateUtc dt:dt="string">2015-08-14T13:09:43Z</DateUtc></FrequencyChange></FrequencyChanges></Clock>\n	1 ver1_main_procedure-28-1	99.925	1.0.0.880	2	pj	518776876	prawa	1	2.0.10.356	08-14-2015	2015-08-14 13:09:44	15:09:44	kobieta	2.0.10.92	4	5	1	2																							d	{SPACE}		no	BlockProc2		BlockList									8	Free	dl	color_purple.png		0	5	860960	310																								25	prime_right.png	0	860599	0	0	13	0	860599	0	860599	1	860599	20	0	-1	859100	860599	860598	0		TrialProc1	left	0		0	11	860910	-860910		0	0	TrialList2	target_both.png	0	dl	0	3	860649	261	l	306	860955															9	1	8	incomp			300
1 ver1_main_procedure	28	1	28	<?xml version="1.0"?>\n<Clock xmlns:dt="urn:schemas-microsoft-com:datatypes"><Description dt:dt="string">E-Prime Primary Realtime Clock</Description><StartTime><Timestamp dt:dt="int">0</Timestamp><DateUtc dt:dt="string">2015-08-14T13:09:43Z</DateUtc></StartTime><FrequencyChanges><FrequencyChange><Frequency dt:dt="r8">2441416</Frequency><Timestamp dt:dt="r8">30583066389</Timestamp><Current dt:dt="r8">0</Current><DateUtc dt:dt="string">2015-08-14T13:09:43Z</DateUtc></FrequencyChange></FrequencyChanges></Clock>\n	1 ver1_main_procedure-28-1	99.925	1.0.0.880	2	pj	518776876	prawa	1	2.0.10.356	08-14-2015	2015-08-14 13:09:44	15:09:44	kobieta	2.0.10.92	4	5	1	2																							d	{SPACE}		no	BlockProc2		BlockList									9	Free	dl	color_purple.png		0	10	863521	461																								75	prime_right.png	0	863081	0	0	13	0	863081	0	863081	1	863081	20	0	-1	861582	863081	863080	0		TrialProc1	right	0		0	10	863391	-863391		0	0	TrialList2	target_both.png	0	dl	0	3	863131	260	l	380	863511															10	1	9	comp			450
1 ver1_main_procedure	28	1	28	<?xml version="1.0"?>\n<Clock xmlns:dt="urn:schemas-microsoft-com:datatypes"><Description dt:dt="string">E-Prime Primary Realtime Clock</Description><StartTime><Timestamp dt:dt="int">0</Timestamp><DateUtc dt:dt="string">2015-08-14T13:09:43Z</DateUtc></StartTime><FrequencyChanges><FrequencyChange><Frequency dt:dt="r8">2441416</Frequency><Timestamp dt:dt="r8">30583066389</Timestamp><Current dt:dt="r8">0</Current><DateUtc dt:dt="string">2015-08-14T13:09:43Z</DateUtc></FrequencyChange></FrequencyChanges></Clock>\n	1 ver1_main_procedure-28-1	99.925	1.0.0.880	2	pj	518776876	prawa	1	2.0.10.356	08-14-2015	2015-08-14 13:09:44	15:09:44	kobieta	2.0.10.92	4	5	1	2																							d	{SPACE}		no	BlockProc2		BlockList									10	Free	dl	color_blue.png		0	12	866203	461																								75	prime_left.png	0	865793	0	0	13	0	865793	0	865793	1	865793	20	0	-1	864294	865793	865792	0		TrialProc1	right	0		0	10	866103	-866103		0	0	TrialList2	target_both.png	0	dl	0	3	865843	260	l	348	866191															12	1	10	incomp			450
