ExperimentName	Subject	Session	Age	Clock.Information	DataFile.Basename	Display.RefreshRate	ExperimentVersion	Group	Name	RandomSeed	Recznosc	ResearcherID	RuntimeVersion	SessionDate	SessionStartDateTimeUtc	SessionTime	Sex	StudioVersion	Block	BlockList	BlockList.Cycle	BlockList.Sample	BlockNumber	GoodBye.RESP	GoodBye2.RESP	GoodByeList	GoodByeList.Cycle	GoodByeList.Sample	InstrList	InstrList.Cycle	InstrList.Sample	Instructions3.RESP	Instructions4.RESP	Instructions5.RESP	kobieta_S1	kobieta_S2	kobieta_S3	kobieta_S4	kobieta_S5	mezczyzna_S1	mezczyzna_S2	mezczyzna_S3	mezczyzna_S4	mezczyzna_S5	NextBlock.RESP	NextBlock0.RESP	planowanie	PracticeMode	Procedure[Block]	proszenie	Running[Block]	TrainingList	TrainingList.Cycle	TrainingList.Sample	WordList	WordList1	wykonanie	zauwazenie	zrozumienie	Trial	ChoiceType	CorrectRespon	Effect	ErrorText	Fixation2.DurationError	Fixation2.OnsetDelay	Fixation2.OnsetTime	Fixation2.OnsetToOnsetTime	GoalRespInd1	GoalRespInd2	GoalRespInd3	GoalRespInd4	GoalRespInd5	GoalRespInd6	GoalRespName1	GoalRespName2	GoalRespName3	GoalRespName4	GoalRespName5	GoalRespName6	kol1	kol2	kol3	kol4	kol5	kol6	NeutralPrimeList1	Ocena	Ocena.Cycle	Ocena.Sample	OverallRT	Posit	Prime	Prime.ActionDelay	Prime.ActionTime	Prime.CustomOffsetTime	Prime.CustomOnsetTime	Prime.Duration	Prime.DurationError	Prime.FinishTime	Prime.OffsetDelay	Prime.OffsetTime	Prime.OnsetDelay	Prime.OnsetTime	Prime.OnsetToOnsetTime	Prime.PendingInputMasks	Prime.PreRelease	Prime.StartTime	Prime.TargetOffsetTime	Prime.TargetOnsetTime	Prime.TimingMode	PrimeChoice	Procedure[Trial]	Resp	RespWin.ACC	RespWin.CRESP	RespWin.DurationError	RespWin.OnsetDelay	RespWin.OnsetTime	RespWin.OnsetToOnsetTime	RespWin.RESP	RespWin.RT	RespWin.RTTime	Running[Trial]	Target	TargetSlide.ACC	TargetSlide.CRESP	TargetSlide.DurationError	TargetSlide.OnsetDelay	TargetSlide.OnsetTime	TargetSlide.OnsetToOnsetTime	TargetSlide.RESP	TargetSlide.RT	TargetSlide.RTTime	TargetTraining	TBox1	TBox2	TBox3	TBox4	TBox5	TBox6	TrainingList1	TrainingList1.Cycle	TrainingList1.Sample	TrCorrectResp	TrialList1	TrialList1.Cycle	TrialList1.Sample	TrialList2	TrialList2.Cycle	TrialList2.Sample	TrialType	TrPosit	TrWaitTime	WaitTime
1 ver1_main_procedure	18	1	21	<?xml version="1.0"?>\n<Clock xmlns:dt="urn:schemas-microsoft-com:datatypes"><Description dt:dt="string">E-Prime Primary Realtime Clock</Description><StartTime><Timestamp dt:dt="int">0</Timestamp><DateUtc dt:dt="string">2015-08-12T13:33:33Z</DateUtc></StartTime><FrequencyChanges><FrequencyChange><Frequency dt:dt="r8">2441416</Frequency><Timestamp dt:dt="r8">27850053268</Timestamp><Current dt:dt="r8">0</Current><DateUtc dt:dt="string">2015-08-12T13:33:33Z</DateUtc></FrequencyChange></FrequencyChanges></Clock>\n	1 ver1_main_procedure-18-1	99.927	1.0.0.880	2	ad	2080734793	prawa	1	2.0.10.356	08-12-2015	2015-08-12 13:33:33	15:33:33	mezczyzna	2.0.10.92	1										1	1	1	{SPACE}	{SPACE}	d	poproszona	planowała	zrozumiałaś	wykonała		poproszony	planował	zrozumiałeś	wykonał				planował		InstrProc	poproszony	InstrList				1		wykonał		zrozumiałeś																																																																																																
1 ver1_main_procedure	18	1	21	<?xml version="1.0"?>\n<Clock xmlns:dt="urn:schemas-microsoft-com:datatypes"><Description dt:dt="string">E-Prime Primary Realtime Clock</Description><StartTime><Timestamp dt:dt="int">0</Timestamp><DateUtc dt:dt="string">2015-08-12T13:33:33Z</DateUtc></StartTime><FrequencyChanges><FrequencyChange><Frequency dt:dt="r8">2441416</Frequency><Timestamp dt:dt="r8">27850053268</Timestamp><Current dt:dt="r8">0</Current><DateUtc dt:dt="string">2015-08-12T13:33:33Z</DateUtc></FrequencyChange></FrequencyChanges></Clock>\n	1 ver1_main_procedure-18-1	99.927	1.0.0.880	2	ad	2080734793	prawa	1	2.0.10.356	08-12-2015	2015-08-12 13:33:33	15:33:33	mezczyzna	2.0.10.92	2																														TrainingProc1		TrainingList	1	1	1						1																																																					TrainProc											TrainingList1											target_left.png							1	1	1	d								75	300	
1 ver1_main_procedure	18	1	21	<?xml version="1.0"?>\n<Clock xmlns:dt="urn:schemas-microsoft-com:datatypes"><Description dt:dt="string">E-Prime Primary Realtime Clock</Description><StartTime><Timestamp dt:dt="int">0</Timestamp><DateUtc dt:dt="string">2015-08-12T13:33:33Z</DateUtc></StartTime><FrequencyChanges><FrequencyChange><Frequency dt:dt="r8">2441416</Frequency><Timestamp dt:dt="r8">27850053268</Timestamp><Current dt:dt="r8">0</Current><DateUtc dt:dt="string">2015-08-12T13:33:33Z</DateUtc></FrequencyChange></FrequencyChanges></Clock>\n	1 ver1_main_procedure-18-1	99.927	1.0.0.880	2	ad	2080734793	prawa	1	2.0.10.356	08-12-2015	2015-08-12 13:33:33	15:33:33	mezczyzna	2.0.10.92	2																														TrainingProc1		TrainingList	1	1	1						2																																																					TrainProc											TrainingList1											target_right.png							2	1	2	l								75	150	
1 ver1_main_procedure	18	1	21	<?xml version="1.0"?>\n<Clock xmlns:dt="urn:schemas-microsoft-com:datatypes"><Description dt:dt="string">E-Prime Primary Realtime Clock</Description><StartTime><Timestamp dt:dt="int">0</Timestamp><DateUtc dt:dt="string">2015-08-12T13:33:33Z</DateUtc></StartTime><FrequencyChanges><FrequencyChange><Frequency dt:dt="r8">2441416</Frequency><Timestamp dt:dt="r8">27850053268</Timestamp><Current dt:dt="r8">0</Current><DateUtc dt:dt="string">2015-08-12T13:33:33Z</DateUtc></FrequencyChange></FrequencyChanges></Clock>\n	1 ver1_main_procedure-18-1	99.927	1.0.0.880	2	ad	2080734793	prawa	1	2.0.10.356	08-12-2015	2015-08-12 13:33:33	15:33:33	mezczyzna	2.0.10.92	2																														TrainingProc1		TrainingList	1	1	1						3																																																					TrainProc											TrainingList1											target_both.png							3	1	3	dl								75	150	
1 ver1_main_procedure	18	1	21	<?xml version="1.0"?>\n<Clock xmlns:dt="urn:schemas-microsoft-com:datatypes"><Description dt:dt="string">E-Prime Primary Realtime Clock</Description><StartTime><Timestamp dt:dt="int">0</Timestamp><DateUtc dt:dt="string">2015-08-12T13:33:33Z</DateUtc></StartTime><FrequencyChanges><FrequencyChange><Frequency dt:dt="r8">2441416</Frequency><Timestamp dt:dt="r8">27850053268</Timestamp><Current dt:dt="r8">0</Current><DateUtc dt:dt="string">2015-08-12T13:33:33Z</DateUtc></FrequencyChange></FrequencyChanges></Clock>\n	1 ver1_main_procedure-18-1	99.927	1.0.0.880	2	ad	2080734793	prawa	1	2.0.10.356	08-12-2015	2015-08-12 13:33:33	15:33:33	mezczyzna	2.0.10.92	2																														TrainingProc1		TrainingList	1	1	1						4																																																					TrainProc											TrainingList1											target_left.png							1	1	4	d								75	300	
1 ver1_main_procedure	18	1	21	<?xml version="1.0"?>\n<Clock xmlns:dt="urn:schemas-microsoft-com:datatypes"><Description dt:dt="string">E-Prime Primary Realtime Clock</Description><StartTime><Timestamp dt:dt="int">0</Timestamp><DateUtc dt:dt="string">2015-08-12T13:33:33Z</DateUtc></StartTime><FrequencyChanges><FrequencyChange><Frequency dt:dt="r8">2441416</Frequency><Timestamp dt:dt="r8">27850053268</Timestamp><Current dt:dt="r8">0</Current><DateUtc dt:dt="string">2015-08-12T13:33:33Z</DateUtc></FrequencyChange></FrequencyChanges></Clock>\n	1 ver1_main_procedure-18-1	99.927	1.0.0.880	2	ad	2080734793	prawa	1	2.0.10.356	08-12-2015	2015-08-12 13:33:33	15:33:33	mezczyzna	2.0.10.92	2																														TrainingProc1		TrainingList	1	1	1						5																																																					TrainProc											TrainingList1											target_both.png							3	1	5	dl								75	450	
1 ver1_main_procedure	18	1	21	<?xml version="1.0"?>\n<Clock xmlns:dt="urn:schemas-microsoft-com:datatypes"><Description dt:dt="string">E-Prime Primary Realtime Clock</Description><StartTime><Timestamp dt:dt="int">0</Timestamp><DateUtc dt:dt="string">2015-08-12T13:33:33Z</DateUtc></StartTime><FrequencyChanges><FrequencyChange><Frequency dt:dt="r8">2441416</Frequency><Timestamp dt:dt="r8">27850053268</Timestamp><Current dt:dt="r8">0</Current><DateUtc dt:dt="string">2015-08-12T13:33:33Z</DateUtc></FrequencyChange></FrequencyChanges></Clock>\n	1 ver1_main_procedure-18-1	99.927	1.0.0.880	2	ad	2080734793	prawa	1	2.0.10.356	08-12-2015	2015-08-12 13:33:33	15:33:33	mezczyzna	2.0.10.92	2																														TrainingProc1		TrainingList	1	1	1						6																																																					TrainProc											TrainingList1											target_right.png							2	1	6	l								25	300	
1 ver1_main_procedure	18	1	21	<?xml version="1.0"?>\n<Clock xmlns:dt="urn:schemas-microsoft-com:datatypes"><Description dt:dt="string">E-Prime Primary Realtime Clock</Description><StartTime><Timestamp dt:dt="int">0</Timestamp><DateUtc dt:dt="string">2015-08-12T13:33:33Z</DateUtc></StartTime><FrequencyChanges><FrequencyChange><Frequency dt:dt="r8">2441416</Frequency><Timestamp dt:dt="r8">27850053268</Timestamp><Current dt:dt="r8">0</Current><DateUtc dt:dt="string">2015-08-12T13:33:33Z</DateUtc></FrequencyChange></FrequencyChanges></Clock>\n	1 ver1_main_procedure-18-1	99.927	1.0.0.880	2	ad	2080734793	prawa	1	2.0.10.356	08-12-2015	2015-08-12 13:33:33	15:33:33	mezczyzna	2.0.10.92	2																														TrainingProc1		TrainingList	1	1	1						7																																																					TrainProc											TrainingList1											target_both.png							3	1	7	dl								75	150	
1 ver1_main_procedure	18	1	21	<?xml version="1.0"?>\n<Clock xmlns:dt="urn:schemas-microsoft-com:datatypes"><Description dt:dt="string">E-Prime Primary Realtime Clock</Description><StartTime><Timestamp dt:dt="int">0</Timestamp><DateUtc dt:dt="string">2015-08-12T13:33:33Z</DateUtc></StartTime><FrequencyChanges><FrequencyChange><Frequency dt:dt="r8">2441416</Frequency><Timestamp dt:dt="r8">27850053268</Timestamp><Current dt:dt="r8">0</Current><DateUtc dt:dt="string">2015-08-12T13:33:33Z</DateUtc></FrequencyChange></FrequencyChanges></Clock>\n	1 ver1_main_procedure-18-1	99.927	1.0.0.880	2	ad	2080734793	prawa	1	2.0.10.356	08-12-2015	2015-08-12 13:33:33	15:33:33	mezczyzna	2.0.10.92	2																														TrainingProc1		TrainingList	1	1	1						8																																																					TrainProc											TrainingList1											target_right.png							2	1	8	l								25	150	
1 ver1_main_procedure	18	1	21	<?xml version="1.0"?>\n<Clock xmlns:dt="urn:schemas-microsoft-com:datatypes"><Description dt:dt="string">E-Prime Primary Realtime Clock</Description><StartTime><Timestamp dt:dt="int">0</Timestamp><DateUtc dt:dt="string">2015-08-12T13:33:33Z</DateUtc></StartTime><FrequencyChanges><FrequencyChange><Frequency dt:dt="r8">2441416</Frequency><Timestamp dt:dt="r8">27850053268</Timestamp><Current dt:dt="r8">0</Current><DateUtc dt:dt="string">2015-08-12T13:33:33Z</DateUtc></FrequencyChange></FrequencyChanges></Clock>\n	1 ver1_main_procedure-18-1	99.927	1.0.0.880	2	ad	2080734793	prawa	1	2.0.10.356	08-12-2015	2015-08-12 13:33:33	15:33:33	mezczyzna	2.0.10.92	2																														TrainingProc1		TrainingList	1	1	1						9																																																					TrainProc											TrainingList1											target_left.png							1	1	9	d								75	300	
1 ver1_main_procedure	18	1	21	<?xml version="1.0"?>\n<Clock xmlns:dt="urn:schemas-microsoft-com:datatypes"><Description dt:dt="string">E-Prime Primary Realtime Clock</Description><StartTime><Timestamp dt:dt="int">0</Timestamp><DateUtc dt:dt="string">2015-08-12T13:33:33Z</DateUtc></StartTime><FrequencyChanges><FrequencyChange><Frequency dt:dt="r8">2441416</Frequency><Timestamp dt:dt="r8">27850053268</Timestamp><Current dt:dt="r8">0</Current><DateUtc dt:dt="string">2015-08-12T13:33:33Z</DateUtc></FrequencyChange></FrequencyChanges></Clock>\n	1 ver1_main_procedure-18-1	99.927	1.0.0.880	2	ad	2080734793	prawa	1	2.0.10.356	08-12-2015	2015-08-12 13:33:33	15:33:33	mezczyzna	2.0.10.92	3	3	1	1																							d	{SPACE}		no	BlockProc1		BlockList									1	Cued	l	color_purple.png		0	8	212022	471																								25	prime_right.png	0	211662	0	0	13	0	211662	0	211662	1	211662	20	0	-1	210163	211662	211661	0		TrialProc1	right	0		0	20	211982	-211982		0	0	TrialList1	target_right.png	1	l	0	3	211712	270	l	302	212014												4	1	1				comp			450
1 ver1_main_procedure	18	1	21	<?xml version="1.0"?>\n<Clock xmlns:dt="urn:schemas-microsoft-com:datatypes"><Description dt:dt="string">E-Prime Primary Realtime Clock</Description><StartTime><Timestamp dt:dt="int">0</Timestamp><DateUtc dt:dt="string">2015-08-12T13:33:33Z</DateUtc></StartTime><FrequencyChanges><FrequencyChange><Frequency dt:dt="r8">2441416</Frequency><Timestamp dt:dt="r8">27850053268</Timestamp><Current dt:dt="r8">0</Current><DateUtc dt:dt="string">2015-08-12T13:33:33Z</DateUtc></FrequencyChange></FrequencyChanges></Clock>\n	1 ver1_main_procedure-18-1	99.927	1.0.0.880	2	ad	2080734793	prawa	1	2.0.10.356	08-12-2015	2015-08-12 13:33:33	15:33:33	mezczyzna	2.0.10.92	3	3	1	1																							d	{SPACE}		no	BlockProc1		BlockList									2	Free	dl	color_purple.png		0	6	214974	311																								25	prime_right.png	0	214304	0	0	13	0	214304	0	214304	1	214304	20	0	-1	212805	214304	214303	0		TrialProc1	left	0		0	10	214614	-214614		0	0	TrialList1	target_both.png	0	dl	0	3	214354	260	l	614	214968												9	1	2				incomp			300
1 ver1_main_procedure	18	1	21	<?xml version="1.0"?>\n<Clock xmlns:dt="urn:schemas-microsoft-com:datatypes"><Description dt:dt="string">E-Prime Primary Realtime Clock</Description><StartTime><Timestamp dt:dt="int">0</Timestamp><DateUtc dt:dt="string">2015-08-12T13:33:33Z</DateUtc></StartTime><FrequencyChanges><FrequencyChange><Frequency dt:dt="r8">2441416</Frequency><Timestamp dt:dt="r8">27850053268</Timestamp><Current dt:dt="r8">0</Current><DateUtc dt:dt="string">2015-08-12T13:33:33Z</DateUtc></FrequencyChange></FrequencyChanges></Clock>\n	1 ver1_main_procedure-18-1	99.927	1.0.0.880	2	ad	2080734793	prawa	1	2.0.10.356	08-12-2015	2015-08-12 13:33:33	15:33:33	mezczyzna	2.0.10.92	3	3	1	1																							d	{SPACE}		no	BlockProc1		BlockList									3	Cued	l	color_yellow.png		0	7	217616	311																			1					25	prime_left.png	0	217096	0	0	13	0	217096	0	217096	1	217096	20	0	-1	215597	217096	217095	0	prime_left.png	TrialProc1	right	0		0	10	217406	-217406		0	0	TrialList1	target_right.png	1	l	0	3	217146	260	l	463	217609												5	1	3				neut			300
1 ver1_main_procedure	18	1	21	<?xml version="1.0"?>\n<Clock xmlns:dt="urn:schemas-microsoft-com:datatypes"><Description dt:dt="string">E-Prime Primary Realtime Clock</Description><StartTime><Timestamp dt:dt="int">0</Timestamp><DateUtc dt:dt="string">2015-08-12T13:33:33Z</DateUtc></StartTime><FrequencyChanges><FrequencyChange><Frequency dt:dt="r8">2441416</Frequency><Timestamp dt:dt="r8">27850053268</Timestamp><Current dt:dt="r8">0</Current><DateUtc dt:dt="string">2015-08-12T13:33:33Z</DateUtc></FrequencyChange></FrequencyChanges></Clock>\n	1 ver1_main_procedure-18-1	99.927	1.0.0.880	2	ad	2080734793	prawa	1	2.0.10.356	08-12-2015	2015-08-12 13:33:33	15:33:33	mezczyzna	2.0.10.92	3	3	1	1																							d	{SPACE}		no	BlockProc1		BlockList									4	Free	dl	color_red.png		0	7	220388	461																								75	prime_left.png	0	219738	0	0	13	0	219738	0	219738	1	219738	20	0	-1	218239	219738	219737	0		TrialProc1	left	0		0	10	220048	-220048		0	0	TrialList1	target_both.png	0	dl	0	3	219788	260	d	593	220381												7	1	4				comp			450
1 ver1_main_procedure	18	1	21	<?xml version="1.0"?>\n<Clock xmlns:dt="urn:schemas-microsoft-com:datatypes"><Description dt:dt="string">E-Prime Primary Realtime Clock</Description><StartTime><Timestamp dt:dt="int">0</Timestamp><DateUtc dt:dt="string">2015-08-12T13:33:33Z</DateUtc></StartTime><FrequencyChanges><FrequencyChange><Frequency dt:dt="r8">2441416</Frequency><Timestamp dt:dt="r8">27850053268</Timestamp><Current dt:dt="r8">0</Current><DateUtc dt:dt="string">2015-08-12T13:33:33Z</DateUtc></FrequencyChange></FrequencyChanges></Clock>\n	1 ver1_main_procedure-18-1	99.927	1.0.0.880	2	ad	2080734793	prawa	1	2.0.10.356	08-12-2015	2015-08-12 13:33:33	15:33:33	mezczyzna	2.0.10.92	3	3	1	1																							d	{SPACE}		no	BlockProc1		BlockList									5	Cued	d	color_orange.png		0	11	223180	161																			2					25	prime_right.png	0	222660	0	0	13	0	222660	0	222660	1	222660	20	0	-1	221161	222660	222659	0	prime_right.png	TrialProc1	left	0		0	10	222970	-222970		0	0	TrialList1	target_left.png	1	d	0	3	222710	260	d	459	223169												2	1	5				neut			150
1 ver1_main_procedure	18	1	21	<?xml version="1.0"?>\n<Clock xmlns:dt="urn:schemas-microsoft-com:datatypes"><Description dt:dt="string">E-Prime Primary Realtime Clock</Description><StartTime><Timestamp dt:dt="int">0</Timestamp><DateUtc dt:dt="string">2015-08-12T13:33:33Z</DateUtc></StartTime><FrequencyChanges><FrequencyChange><Frequency dt:dt="r8">2441416</Frequency><Timestamp dt:dt="r8">27850053268</Timestamp><Current dt:dt="r8">0</Current><DateUtc dt:dt="string">2015-08-12T13:33:33Z</DateUtc></FrequencyChange></FrequencyChanges></Clock>\n	1 ver1_main_procedure-18-1	99.927	1.0.0.880	2	ad	2080734793	prawa	1	2.0.10.356	08-12-2015	2015-08-12 13:33:33	15:33:33	mezczyzna	2.0.10.92	3	3	1	1																							d	{SPACE}		no	BlockProc1		BlockList									6	Free	dl	color_blue.png		0	9	225822	461																								25	prime_left.png	0	225152	0	0	13	0	225152	0	225152	1	225152	20	0	-1	223653	225152	225151	0		TrialProc1	right	0		0	10	225462	-225462		0	0	TrialList1	target_both.png	0	dl	0	3	225202	260	l	611	225813												12	1	6				incomp			450
1 ver1_main_procedure	18	1	21	<?xml version="1.0"?>\n<Clock xmlns:dt="urn:schemas-microsoft-com:datatypes"><Description dt:dt="string">E-Prime Primary Realtime Clock</Description><StartTime><Timestamp dt:dt="int">0</Timestamp><DateUtc dt:dt="string">2015-08-12T13:33:33Z</DateUtc></StartTime><FrequencyChanges><FrequencyChange><Frequency dt:dt="r8">2441416</Frequency><Timestamp dt:dt="r8">27850053268</Timestamp><Current dt:dt="r8">0</Current><DateUtc dt:dt="string">2015-08-12T13:33:33Z</DateUtc></FrequencyChange></FrequencyChanges></Clock>\n	1 ver1_main_procedure-18-1	99.927	1.0.0.880	2	ad	2080734793	prawa	1	2.0.10.356	08-12-2015	2015-08-12 13:33:33	15:33:33	mezczyzna	2.0.10.92	3	3	1	1																							d	{SPACE}		no	BlockProc1		BlockList									7	Cued	l	color_purple.png		0	9	228634	461																								75	prime_right.png	0	228094	0	0	13	0	228094	0	228094	1	228094	20	0	-1	226595	228094	228093	0		TrialProc1	right	0		0	10	228404	-228404		0	0	TrialList1	target_right.png	1	l	0	3	228144	260	l	481	228625												4	1	7				comp			450
1 ver1_main_procedure	18	1	21	<?xml version="1.0"?>\n<Clock xmlns:dt="urn:schemas-microsoft-com:datatypes"><Description dt:dt="string">E-Prime Primary Realtime Clock</Description><StartTime><Timestamp dt:dt="int">0</Timestamp><DateUtc dt:dt="string">2015-08-12T13:33:33Z</DateUtc></StartTime><FrequencyChanges><FrequencyChange><Frequency dt:dt="r8">2441416</Frequency><Timestamp dt:dt="r8">27850053268</Timestamp><Current dt:dt="r8">0</Current><DateUtc dt:dt="string">2015-08-12T13:33:33Z</DateUtc></FrequencyChange></FrequencyChanges></Clock>\n	1 ver1_main_procedure-18-1	99.927	1.0.0.880	2	ad	2080734793	prawa	1	2.0.10.356	08-12-2015	2015-08-12 13:33:33	15:33:33	mezczyzna	2.0.10.92	3	3	1	1																							d	{SPACE}		no	BlockProc1		BlockList									8	Cued	l	color_blue.png		0	11	231366	161																								75	prime_left.png	0	230906	0	0	13	0	230906	0	230906	1	230906	20	0	-1	229407	230906	230905	0		TrialProc1	right	0		0	10	231216	-231216		0	0	TrialList1	target_right.png	1	l	0	3	230956	260	l	399	231355												6	1	8				incomp			150
1 ver1_main_procedure	18	1	21	<?xml version="1.0"?>\n<Clock xmlns:dt="urn:schemas-microsoft-com:datatypes"><Description dt:dt="string">E-Prime Primary Realtime Clock</Description><StartTime><Timestamp dt:dt="int">0</Timestamp><DateUtc dt:dt="string">2015-08-12T13:33:33Z</DateUtc></StartTime><FrequencyChanges><FrequencyChange><Frequency dt:dt="r8">2441416</Frequency><Timestamp dt:dt="r8">27850053268</Timestamp><Current dt:dt="r8">0</Current><DateUtc dt:dt="string">2015-08-12T13:33:33Z</DateUtc></FrequencyChange></FrequencyChanges></Clock>\n	1 ver1_main_procedure-18-1	99.927	1.0.0.880	2	ad	2080734793	prawa	1	2.0.10.356	08-12-2015	2015-08-12 13:33:33	15:33:33	mezczyzna	2.0.10.92	3	3	1	1																							d	{SPACE}		no	BlockProc1		BlockList									9	Cued	l	color_blue.png		0	12	233858	160																								75	prime_left.png	0	233338	0	0	13	0	233338	0	233338	1	233338	20	0	-1	231839	233338	233337	0		TrialProc1	right	0		0	10	233648	-233648		0	0	TrialList1	target_right.png	1	l	0	3	233388	260	l	457	233845												6	1	9				incomp			150
1 ver1_main_procedure	18	1	21	<?xml version="1.0"?>\n<Clock xmlns:dt="urn:schemas-microsoft-com:datatypes"><Description dt:dt="string">E-Prime Primary Realtime Clock</Description><StartTime><Timestamp dt:dt="int">0</Timestamp><DateUtc dt:dt="string">2015-08-12T13:33:33Z</DateUtc></StartTime><FrequencyChanges><FrequencyChange><Frequency dt:dt="r8">2441416</Frequency><Timestamp dt:dt="r8">27850053268</Timestamp><Current dt:dt="r8">0</Current><DateUtc dt:dt="string">2015-08-12T13:33:33Z</DateUtc></FrequencyChange></FrequencyChanges></Clock>\n	1 ver1_main_procedure-18-1	99.927	1.0.0.880	2	ad	2080734793	prawa	1	2.0.10.356	08-12-2015	2015-08-12 13:33:33	15:33:33	mezczyzna	2.0.10.92	3	3	1	1																							d	{SPACE}		no	BlockProc1		BlockList									10	Free	dl	color_orange.png		0	10	236390	461																			1					25	prime_left.png	0	235830	0	0	13	0	235830	0	235830	1	235830	20	0	-1	234331	235830	235829	0	prime_left.png	TrialProc1	right	0		0	10	236140	-236140		0	0	TrialList1	target_both.png	0	dl	0	3	235880	260	d	499	236379												11	1	10				neut			450
1 ver1_main_procedure	18	1	21	<?xml version="1.0"?>\n<Clock xmlns:dt="urn:schemas-microsoft-com:datatypes"><Description dt:dt="string">E-Prime Primary Realtime Clock</Description><StartTime><Timestamp dt:dt="int">0</Timestamp><DateUtc dt:dt="string">2015-08-12T13:33:33Z</DateUtc></StartTime><FrequencyChanges><FrequencyChange><Frequency dt:dt="r8">2441416</Frequency><Timestamp dt:dt="r8">27850053268</Timestamp><Current dt:dt="r8">0</Current><DateUtc dt:dt="string">2015-08-12T13:33:33Z</DateUtc></FrequencyChange></FrequencyChanges></Clock>\n	1 ver1_main_procedure-18-1	99.927	1.0.0.880	2	ad	2080734793	prawa	1	2.0.10.356	08-12-2015	2015-08-12 13:33:33	15:33:33	mezczyzna	2.0.10.92	3	3	1	1																							d	{SPACE}		no	BlockProc1		BlockList									11	Cued	d	color_orange.png		0	9	239172	160																			2					75	prime_right.png	0	238662	0	0	13	0	238662	0	238662	1	238662	20	0	-1	237163	238662	238661	0	prime_right.png	TrialProc1	left	0		0	10	238972	-238972		0	0	TrialList1	target_left.png	1	d	0	3	238712	260	d	451	239163												2	1	11				neut			150
1 ver1_main_procedure	18	1	21	<?xml version="1.0"?>\n<Clock xmlns:dt="urn:schemas-microsoft-com:datatypes"><Description dt:dt="string">E-Prime Primary Realtime Clock</Description><StartTime><Timestamp dt:dt="int">0</Timestamp><DateUtc dt:dt="string">2015-08-12T13:33:33Z</DateUtc></StartTime><FrequencyChanges><FrequencyChange><Frequency dt:dt="r8">2441416</Frequency><Timestamp dt:dt="r8">27850053268</Timestamp><Current dt:dt="r8">0</Current><DateUtc dt:dt="string">2015-08-12T13:33:33Z</DateUtc></FrequencyChange></FrequencyChanges></Clock>\n	1 ver1_main_procedure-18-1	99.927	1.0.0.880	2	ad	2080734793	prawa	1	2.0.10.356	08-12-2015	2015-08-12 13:33:33	15:33:33	mezczyzna	2.0.10.92	3	3	1	1																							d	{SPACE}		no	BlockProc1		BlockList									12	Cued	l	color_blue.png		0	9	241714	160																								25	prime_left.png	0	241144	0	0	13	0	241144	0	241144	1	241144	20	0	-1	239645	241144	241143	0		TrialProc1	right	0		0	10	241454	-241454		0	0	TrialList1	target_right.png	1	l	0	3	241194	260	l	511	241705												6	1	12				incomp			150
1 ver1_main_procedure	18	1	21	<?xml version="1.0"?>\n<Clock xmlns:dt="urn:schemas-microsoft-com:datatypes"><Description dt:dt="string">E-Prime Primary Realtime Clock</Description><StartTime><Timestamp dt:dt="int">0</Timestamp><DateUtc dt:dt="string">2015-08-12T13:33:33Z</DateUtc></StartTime><FrequencyChanges><FrequencyChange><Frequency dt:dt="r8">2441416</Frequency><Timestamp dt:dt="r8">27850053268</Timestamp><Current dt:dt="r8">0</Current><DateUtc dt:dt="string">2015-08-12T13:33:33Z</DateUtc></FrequencyChange></FrequencyChanges></Clock>\n	1 ver1_main_procedure-18-1	99.927	1.0.0.880	2	ad	2080734793	prawa	1	2.0.10.356	08-12-2015	2015-08-12 13:33:33	15:33:33	mezczyzna	2.0.10.92	3	3	1	1																							d	{SPACE}		no	BlockProc1		BlockList									13	Cued	l	color_blue.png		0	9	244086	460																								25	prime_left.png	0	243686	0	0	13	0	243686	0	243686	2	243686	20	0	-1	242187	243686	243684	0		TrialProc1	right	0		0	10	243996	-243996		0	0	TrialList1	target_right.png	1	l	0	3	243736	260	l	341	244077												6	1	13				incomp			450
1 ver1_main_procedure	18	1	21	<?xml version="1.0"?>\n<Clock xmlns:dt="urn:schemas-microsoft-com:datatypes"><Description dt:dt="string">E-Prime Primary Realtime Clock</Description><StartTime><Timestamp dt:dt="int">0</Timestamp><DateUtc dt:dt="string">2015-08-12T13:33:33Z</DateUtc></StartTime><FrequencyChanges><FrequencyChange><Frequency dt:dt="r8">2441416</Frequency><Timestamp dt:dt="r8">27850053268</Timestamp><Current dt:dt="r8">0</Current><DateUtc dt:dt="string">2015-08-12T13:33:33Z</DateUtc></FrequencyChange></FrequencyChanges></Clock>\n	1 ver1_main_procedure-18-1	99.927	1.0.0.880	2	ad	2080734793	prawa	1	2.0.10.356	08-12-2015	2015-08-12 13:33:33	15:33:33	mezczyzna	2.0.10.92	3	3	1	1																							d	{SPACE}		no	BlockProc1		BlockList									14	Cued	l	color_purple.png		0	9	246828	160																								75	prime_right.png	0	246358	0	0	13	0	246358	0	246358	2	246358	20	0	-1	244859	246358	246356	0		TrialProc1	right	0		0	10	246668	-246668		0	0	TrialList1	target_right.png	1	l	0	3	246408	260	l	411	246819												4	1	14				comp			150
1 ver1_main_procedure	18	1	21	<?xml version="1.0"?>\n<Clock xmlns:dt="urn:schemas-microsoft-com:datatypes"><Description dt:dt="string">E-Prime Primary Realtime Clock</Description><StartTime><Timestamp dt:dt="int">0</Timestamp><DateUtc dt:dt="string">2015-08-12T13:33:33Z</DateUtc></StartTime><FrequencyChanges><FrequencyChange><Frequency dt:dt="r8">2441416</Frequency><Timestamp dt:dt="r8">27850053268</Timestamp><Current dt:dt="r8">0</Current><DateUtc dt:dt="string">2015-08-12T13:33:33Z</DateUtc></FrequencyChange></FrequencyChanges></Clock>\n	1 ver1_main_procedure-18-1	99.927	1.0.0.880	2	ad	2080734793	prawa	1	2.0.10.356	08-12-2015	2015-08-12 13:33:33	15:33:33	mezczyzna	2.0.10.92	3	3	1	1																							d	{SPACE}		no	BlockProc1		BlockList									15	Free	dl	color_orange.png		0	7	249370	310																			1					75	prime_left.png	0	248799	0	0	13	0	248800	0	248799	1	248799	20	0	-1	247300	248799	248798	0	prime_left.png	TrialProc1	left	0		0	11	249110	-249110		0	0	TrialList1	target_both.png	0	dl	0	3	248849	261	d	514	249363												8	1	15				neut			300
1 ver1_main_procedure	18	1	21	<?xml version="1.0"?>\n<Clock xmlns:dt="urn:schemas-microsoft-com:datatypes"><Description dt:dt="string">E-Prime Primary Realtime Clock</Description><StartTime><Timestamp dt:dt="int">0</Timestamp><DateUtc dt:dt="string">2015-08-12T13:33:33Z</DateUtc></StartTime><FrequencyChanges><FrequencyChange><Frequency dt:dt="r8">2441416</Frequency><Timestamp dt:dt="r8">27850053268</Timestamp><Current dt:dt="r8">0</Current><DateUtc dt:dt="string">2015-08-12T13:33:33Z</DateUtc></FrequencyChange></FrequencyChanges></Clock>\n	1 ver1_main_procedure-18-1	99.927	1.0.0.880	2	ad	2080734793	prawa	1	2.0.10.356	08-12-2015	2015-08-12 13:33:33	15:33:33	mezczyzna	2.0.10.92	3	3	1	1																							d	{SPACE}		no	BlockProc1		BlockList									16	Cued	d	color_orange.png		0	8	252112	310																			2					25	prime_right.png	0	251491	0	0	13	0	251491	0	251491	1	251491	20	0	-1	249992	251491	251490	0	prime_right.png	TrialProc1	left	0		0	11	251802	-251802		0	0	TrialList1	target_left.png	1	d	0	3	251541	261	d	563	252104												2	1	16				neut			300
1 ver1_main_procedure	18	1	21	<?xml version="1.0"?>\n<Clock xmlns:dt="urn:schemas-microsoft-com:datatypes"><Description dt:dt="string">E-Prime Primary Realtime Clock</Description><StartTime><Timestamp dt:dt="int">0</Timestamp><DateUtc dt:dt="string">2015-08-12T13:33:33Z</DateUtc></StartTime><FrequencyChanges><FrequencyChange><Frequency dt:dt="r8">2441416</Frequency><Timestamp dt:dt="r8">27850053268</Timestamp><Current dt:dt="r8">0</Current><DateUtc dt:dt="string">2015-08-12T13:33:33Z</DateUtc></FrequencyChange></FrequencyChanges></Clock>\n	1 ver1_main_procedure-18-1	99.927	1.0.0.880	2	ad	2080734793	prawa	1	2.0.10.356	08-12-2015	2015-08-12 13:33:33	15:33:33	mezczyzna	2.0.10.92	3	3	1	1																							d	{SPACE}		no	BlockProc1		BlockList									17	Free	dl	color_blue.png		0	8	254514	460																								75	prime_left.png	0	254233	0	0	13	0	254234	0	254233	1	254233	20	0	-1	252735	254233	254232	0		TrialProc1	right	0		0	0	0	0		0	0	TrialList1	target_both.png	0	dl	-999999	3	254283	0	l	223	254506												12	1	17				incomp			450
1 ver1_main_procedure	18	1	21	<?xml version="1.0"?>\n<Clock xmlns:dt="urn:schemas-microsoft-com:datatypes"><Description dt:dt="string">E-Prime Primary Realtime Clock</Description><StartTime><Timestamp dt:dt="int">0</Timestamp><DateUtc dt:dt="string">2015-08-12T13:33:33Z</DateUtc></StartTime><FrequencyChanges><FrequencyChange><Frequency dt:dt="r8">2441416</Frequency><Timestamp dt:dt="r8">27850053268</Timestamp><Current dt:dt="r8">0</Current><DateUtc dt:dt="string">2015-08-12T13:33:33Z</DateUtc></FrequencyChange></FrequencyChanges></Clock>\n	1 ver1_main_procedure-18-1	99.927	1.0.0.880	2	ad	2080734793	prawa	1	2.0.10.356	08-12-2015	2015-08-12 13:33:33	15:33:33	mezczyzna	2.0.10.92	3	3	1	1																							d	{SPACE}		no	BlockProc1		BlockList									18	Cued	l	color_yellow.png		0	8	257216	460																			1					75	prime_left.png	0	256785	0	0	13	0	256785	0	256785	1	256785	20	0	-1	255286	256785	256784	0	prime_left.png	TrialProc1	right	0		1	10	257095	-257095		0	0	TrialList1	target_right.png	1	l	0	3	256835	260	l	373	257208												5	1	18				neut			450
1 ver1_main_procedure	18	1	21	<?xml version="1.0"?>\n<Clock xmlns:dt="urn:schemas-microsoft-com:datatypes"><Description dt:dt="string">E-Prime Primary Realtime Clock</Description><StartTime><Timestamp dt:dt="int">0</Timestamp><DateUtc dt:dt="string">2015-08-12T13:33:33Z</DateUtc></StartTime><FrequencyChanges><FrequencyChange><Frequency dt:dt="r8">2441416</Frequency><Timestamp dt:dt="r8">27850053268</Timestamp><Current dt:dt="r8">0</Current><DateUtc dt:dt="string">2015-08-12T13:33:33Z</DateUtc></FrequencyChange></FrequencyChanges></Clock>\n	1 ver1_main_procedure-18-1	99.927	1.0.0.880	2	ad	2080734793	prawa	1	2.0.10.356	08-12-2015	2015-08-12 13:33:33	15:33:33	mezczyzna	2.0.10.92	3	3	1	1																							d	{SPACE}		no	BlockProc1		BlockList									19	Cued	d			0	11	259777	161																								75	prime_right.png	0	259487	0	0	13	0	259487	0	259487	1	259487	20	0	-1	257988	259487	259486	0		TrialProc1	left	0		0	0	0	0		0	0	TrialList1	target_left.png	0	d	-999999	3	259537	0	l	229	259766												3	1	19				incomp			150
1 ver1_main_procedure	18	1	21	<?xml version="1.0"?>\n<Clock xmlns:dt="urn:schemas-microsoft-com:datatypes"><Description dt:dt="string">E-Prime Primary Realtime Clock</Description><StartTime><Timestamp dt:dt="int">0</Timestamp><DateUtc dt:dt="string">2015-08-12T13:33:33Z</DateUtc></StartTime><FrequencyChanges><FrequencyChange><Frequency dt:dt="r8">2441416</Frequency><Timestamp dt:dt="r8">27850053268</Timestamp><Current dt:dt="r8">0</Current><DateUtc dt:dt="string">2015-08-12T13:33:33Z</DateUtc></FrequencyChange></FrequencyChanges></Clock>\n	1 ver1_main_procedure-18-1	99.927	1.0.0.880	2	ad	2080734793	prawa	1	2.0.10.356	08-12-2015	2015-08-12 13:33:33	15:33:33	mezczyzna	2.0.10.92	3	3	1	1																							d	{SPACE}		no	BlockProc1		BlockList									20	Cued	d	color_green.png		0	11	262229	461																								75	prime_right.png	0	261749	0	0	13	0	261749	0	261749	1	261749	20	0	-1	260250	261749	261748	0		TrialProc1	left	0		0	10	262059	-262059		0	0	TrialList1	target_left.png	1	d	0	3	261799	260	d	419	262218												3	1	20				incomp			450
1 ver1_main_procedure	18	1	21	<?xml version="1.0"?>\n<Clock xmlns:dt="urn:schemas-microsoft-com:datatypes"><Description dt:dt="string">E-Prime Primary Realtime Clock</Description><StartTime><Timestamp dt:dt="int">0</Timestamp><DateUtc dt:dt="string">2015-08-12T13:33:33Z</DateUtc></StartTime><FrequencyChanges><FrequencyChange><Frequency dt:dt="r8">2441416</Frequency><Timestamp dt:dt="r8">27850053268</Timestamp><Current dt:dt="r8">0</Current><DateUtc dt:dt="string">2015-08-12T13:33:33Z</DateUtc></FrequencyChange></FrequencyChanges></Clock>\n	1 ver1_main_procedure-18-1	99.927	1.0.0.880	2	ad	2080734793	prawa	1	2.0.10.356	08-12-2015	2015-08-12 13:33:33	15:33:33	mezczyzna	2.0.10.92	3	3	1	1																							d	{SPACE}		no	BlockProc1		BlockList									21	Cued	l	color_purple.png		0	13	264991	461																								25	prime_right.png	0	264501	0	0	13	0	264501	0	264501	1	264501	20	0	-1	263002	264501	264500	0		TrialProc1	right	0		0	10	264811	-264811		0	0	TrialList1	target_right.png	1	l	0	3	264551	260	l	427	264978												4	1	21				comp			450
1 ver1_main_procedure	18	1	21	<?xml version="1.0"?>\n<Clock xmlns:dt="urn:schemas-microsoft-com:datatypes"><Description dt:dt="string">E-Prime Primary Realtime Clock</Description><StartTime><Timestamp dt:dt="int">0</Timestamp><DateUtc dt:dt="string">2015-08-12T13:33:33Z</DateUtc></StartTime><FrequencyChanges><FrequencyChange><Frequency dt:dt="r8">2441416</Frequency><Timestamp dt:dt="r8">27850053268</Timestamp><Current dt:dt="r8">0</Current><DateUtc dt:dt="string">2015-08-12T13:33:33Z</DateUtc></FrequencyChange></FrequencyChanges></Clock>\n	1 ver1_main_procedure-18-1	99.927	1.0.0.880	2	ad	2080734793	prawa	1	2.0.10.356	08-12-2015	2015-08-12 13:33:33	15:33:33	mezczyzna	2.0.10.92	3	3	1	1																							d	{SPACE}		no	BlockProc1		BlockList									22	Cued	d	color_orange.png		0	4	267753	311																			2					75	prime_right.png	0	267263	0	0	13	0	267263	0	267263	1	267263	20	0	-1	265764	267263	267262	0	prime_right.png	TrialProc1	left	0		0	10	267573	-267573		0	0	TrialList1	target_left.png	1	d	0	3	267313	260	d	436	267749												2	1	22				neut			300
1 ver1_main_procedure	18	1	21	<?xml version="1.0"?>\n<Clock xmlns:dt="urn:schemas-microsoft-com:datatypes"><Description dt:dt="string">E-Prime Primary Realtime Clock</Description><StartTime><Timestamp dt:dt="int">0</Timestamp><DateUtc dt:dt="string">2015-08-12T13:33:33Z</DateUtc></StartTime><FrequencyChanges><FrequencyChange><Frequency dt:dt="r8">2441416</Frequency><Timestamp dt:dt="r8">27850053268</Timestamp><Current dt:dt="r8">0</Current><DateUtc dt:dt="string">2015-08-12T13:33:33Z</DateUtc></FrequencyChange></FrequencyChanges></Clock>\n	1 ver1_main_procedure-18-1	99.927	1.0.0.880	2	ad	2080734793	prawa	1	2.0.10.356	08-12-2015	2015-08-12 13:33:33	15:33:33	mezczyzna	2.0.10.92	3	3	1	1																							d	{SPACE}		no	BlockProc1		BlockList									23	Cued	d	color_red.png		0	8	270375	311																								75	prime_left.png	0	269875	0	0	13	0	269875	0	269875	1	269875	20	0	-1	268376	269875	269874	0		TrialProc1	left	0		0	10	270185	-270185		0	0	TrialList1	target_left.png	1	d	0	3	269925	260	d	441	270366												1	1	23				comp			300
1 ver1_main_procedure	18	1	21	<?xml version="1.0"?>\n<Clock xmlns:dt="urn:schemas-microsoft-com:datatypes"><Description dt:dt="string">E-Prime Primary Realtime Clock</Description><StartTime><Timestamp dt:dt="int">0</Timestamp><DateUtc dt:dt="string">2015-08-12T13:33:33Z</DateUtc></StartTime><FrequencyChanges><FrequencyChange><Frequency dt:dt="r8">2441416</Frequency><Timestamp dt:dt="r8">27850053268</Timestamp><Current dt:dt="r8">0</Current><DateUtc dt:dt="string">2015-08-12T13:33:33Z</DateUtc></FrequencyChange></FrequencyChanges></Clock>\n	1 ver1_main_procedure-18-1	99.927	1.0.0.880	2	ad	2080734793	prawa	1	2.0.10.356	08-12-2015	2015-08-12 13:33:33	15:33:33	mezczyzna	2.0.10.92	3	3	1	1																							d	{SPACE}		no	BlockProc1		BlockList									24	Cued	d	color_green.png		0	8	272977	461																								75	prime_right.png	0	272497	0	0	13	0	272497	0	272497	1	272497	20	0	-1	270998	272497	272496	0		TrialProc1	left	0		0	10	272807	-272807		0	0	TrialList1	target_left.png	1	d	0	3	272547	260	d	422	272969												3	1	24				incomp			450
1 ver1_main_procedure	18	1	21	<?xml version="1.0"?>\n<Clock xmlns:dt="urn:schemas-microsoft-com:datatypes"><Description dt:dt="string">E-Prime Primary Realtime Clock</Description><StartTime><Timestamp dt:dt="int">0</Timestamp><DateUtc dt:dt="string">2015-08-12T13:33:33Z</DateUtc></StartTime><FrequencyChanges><FrequencyChange><Frequency dt:dt="r8">2441416</Frequency><Timestamp dt:dt="r8">27850053268</Timestamp><Current dt:dt="r8">0</Current><DateUtc dt:dt="string">2015-08-12T13:33:33Z</DateUtc></FrequencyChange></FrequencyChanges></Clock>\n	1 ver1_main_procedure-18-1	99.927	1.0.0.880	2	ad	2080734793	prawa	1	2.0.10.356	08-12-2015	2015-08-12 13:33:33	15:33:33	mezczyzna	2.0.10.92	3	3	1	1																							d	{SPACE}		no	BlockProc1		BlockList									25	Cued	d	color_red.png		0	6	275769	461																								25	prime_left.png	0	275249	0	0	13	0	275249	0	275249	1	275249	20	0	-1	273750	275249	275248	0		TrialProc1	left	0		0	10	275559	-275559		0	0	TrialList1	target_left.png	1	d	0	3	275299	260	d	463	275762												1	1	25				comp			450
1 ver1_main_procedure	18	1	21	<?xml version="1.0"?>\n<Clock xmlns:dt="urn:schemas-microsoft-com:datatypes"><Description dt:dt="string">E-Prime Primary Realtime Clock</Description><StartTime><Timestamp dt:dt="int">0</Timestamp><DateUtc dt:dt="string">2015-08-12T13:33:33Z</DateUtc></StartTime><FrequencyChanges><FrequencyChange><Frequency dt:dt="r8">2441416</Frequency><Timestamp dt:dt="r8">27850053268</Timestamp><Current dt:dt="r8">0</Current><DateUtc dt:dt="string">2015-08-12T13:33:33Z</DateUtc></FrequencyChange></FrequencyChanges></Clock>\n	1 ver1_main_procedure-18-1	99.927	1.0.0.880	2	ad	2080734793	prawa	1	2.0.10.356	08-12-2015	2015-08-12 13:33:33	15:33:33	mezczyzna	2.0.10.92	3	3	1	1																							d	{SPACE}		no	BlockProc1		BlockList									26	Free	dl	color_purple.png		0	7	278681	311																								25	prime_right.png	0	278041	0	0	13	0	278041	0	278041	1	278041	20	0	-1	276542	278041	278040	0		TrialProc1	right	0		0	10	278351	-278351		0	0	TrialList1	target_both.png	0	dl	0	3	278091	260	l	583	278674												10	1	26				comp			300
1 ver1_main_procedure	18	1	21	<?xml version="1.0"?>\n<Clock xmlns:dt="urn:schemas-microsoft-com:datatypes"><Description dt:dt="string">E-Prime Primary Realtime Clock</Description><StartTime><Timestamp dt:dt="int">0</Timestamp><DateUtc dt:dt="string">2015-08-12T13:33:33Z</DateUtc></StartTime><FrequencyChanges><FrequencyChange><Frequency dt:dt="r8">2441416</Frequency><Timestamp dt:dt="r8">27850053268</Timestamp><Current dt:dt="r8">0</Current><DateUtc dt:dt="string">2015-08-12T13:33:33Z</DateUtc></FrequencyChange></FrequencyChanges></Clock>\n	1 ver1_main_procedure-18-1	99.927	1.0.0.880	2	ad	2080734793	prawa	1	2.0.10.356	08-12-2015	2015-08-12 13:33:33	15:33:33	mezczyzna	2.0.10.92	3	3	1	1																							d	{SPACE}		no	BlockProc1		BlockList									27	Free	dl	color_yellow.png		0	13	281413	161																			1					25	prime_left.png	0	280803	0	0	13	0	280803	0	280803	1	280803	20	0	-1	279304	280803	280802	0	prime_left.png	TrialProc1	left	0		0	10	281113	-281113		0	0	TrialList1	target_both.png	0	dl	0	3	280853	260	l	547	281400												8	1	27				neut			150
1 ver1_main_procedure	18	1	21	<?xml version="1.0"?>\n<Clock xmlns:dt="urn:schemas-microsoft-com:datatypes"><Description dt:dt="string">E-Prime Primary Realtime Clock</Description><StartTime><Timestamp dt:dt="int">0</Timestamp><DateUtc dt:dt="string">2015-08-12T13:33:33Z</DateUtc></StartTime><FrequencyChanges><FrequencyChange><Frequency dt:dt="r8">2441416</Frequency><Timestamp dt:dt="r8">27850053268</Timestamp><Current dt:dt="r8">0</Current><DateUtc dt:dt="string">2015-08-12T13:33:33Z</DateUtc></FrequencyChange></FrequencyChanges></Clock>\n	1 ver1_main_procedure-18-1	99.927	1.0.0.880	2	ad	2080734793	prawa	1	2.0.10.356	08-12-2015	2015-08-12 13:33:33	15:33:33	mezczyzna	2.0.10.92	3	3	1	1																							d	{SPACE}		no	BlockProc1		BlockList									28	Cued	d	color_green.png		0	6	283995	160																								25	prime_right.png	0	283385	0	0	13	0	283385	0	283385	1	283385	20	0	-1	281886	283385	283384	0		TrialProc1	left	0		0	10	283695	-283695		0	0	TrialList1	target_left.png	1	d	0	3	283435	260	d	554	283989												3	1	28				incomp			150
1 ver1_main_procedure	18	1	21	<?xml version="1.0"?>\n<Clock xmlns:dt="urn:schemas-microsoft-com:datatypes"><Description dt:dt="string">E-Prime Primary Realtime Clock</Description><StartTime><Timestamp dt:dt="int">0</Timestamp><DateUtc dt:dt="string">2015-08-12T13:33:33Z</DateUtc></StartTime><FrequencyChanges><FrequencyChange><Frequency dt:dt="r8">2441416</Frequency><Timestamp dt:dt="r8">27850053268</Timestamp><Current dt:dt="r8">0</Current><DateUtc dt:dt="string">2015-08-12T13:33:33Z</DateUtc></FrequencyChange></FrequencyChanges></Clock>\n	1 ver1_main_procedure-18-1	99.927	1.0.0.880	2	ad	2080734793	prawa	1	2.0.10.356	08-12-2015	2015-08-12 13:33:33	15:33:33	mezczyzna	2.0.10.92	3	3	1	1																							d	{SPACE}		no	BlockProc1		BlockList									29	Free	dl	color_green.png		0	8	286597	160																								75	prime_right.png	0	285967	0	0	13	0	285967	0	285967	1	285967	20	0	-1	284468	285967	285966	0		TrialProc1	right	0		0	10	286277	-286277		0	0	TrialList1	target_both.png	0	dl	0	3	286017	260	d	572	286589												10	1	29				comp			150
1 ver1_main_procedure	18	1	21	<?xml version="1.0"?>\n<Clock xmlns:dt="urn:schemas-microsoft-com:datatypes"><Description dt:dt="string">E-Prime Primary Realtime Clock</Description><StartTime><Timestamp dt:dt="int">0</Timestamp><DateUtc dt:dt="string">2015-08-12T13:33:33Z</DateUtc></StartTime><FrequencyChanges><FrequencyChange><Frequency dt:dt="r8">2441416</Frequency><Timestamp dt:dt="r8">27850053268</Timestamp><Current dt:dt="r8">0</Current><DateUtc dt:dt="string">2015-08-12T13:33:33Z</DateUtc></FrequencyChange></FrequencyChanges></Clock>\n	1 ver1_main_procedure-18-1	99.927	1.0.0.880	2	ad	2080734793	prawa	1	2.0.10.356	08-12-2015	2015-08-12 13:33:33	15:33:33	mezczyzna	2.0.10.92	3	3	1	1																							d	{SPACE}		no	BlockProc1		BlockList									30	Cued	d	color_orange.png		0	10	289089	160																			2					25	prime_right.png	0	288569	0	0	13	0	288569	0	288569	1	288569	20	0	-1	287070	288569	288568	0	prime_right.png	TrialProc1	left	0		0	10	288879	-288879		0	0	TrialList1	target_left.png	1	d	0	3	288619	260	d	460	289079												2	1	30				neut			150
1 ver1_main_procedure	18	1	21	<?xml version="1.0"?>\n<Clock xmlns:dt="urn:schemas-microsoft-com:datatypes"><Description dt:dt="string">E-Prime Primary Realtime Clock</Description><StartTime><Timestamp dt:dt="int">0</Timestamp><DateUtc dt:dt="string">2015-08-12T13:33:33Z</DateUtc></StartTime><FrequencyChanges><FrequencyChange><Frequency dt:dt="r8">2441416</Frequency><Timestamp dt:dt="r8">27850053268</Timestamp><Current dt:dt="r8">0</Current><DateUtc dt:dt="string">2015-08-12T13:33:33Z</DateUtc></FrequencyChange></FrequencyChanges></Clock>\n	1 ver1_main_procedure-18-1	99.927	1.0.0.880	2	ad	2080734793	prawa	1	2.0.10.356	08-12-2015	2015-08-12 13:33:33	15:33:33	mezczyzna	2.0.10.92	3	3	1	1																							d	{SPACE}		no	BlockProc1		BlockList									31	Cued	d	color_orange.png		0	14	291591	310																			1					25	prime_left.png	0	291061	0	0	13	0	291061	0	291061	2	291061	20	0	-1	289562	291061	291059	0	prime_left.png	TrialProc1	left	0		0	10	291371	-291371		0	0	TrialList1	target_left.png	1	d	0	3	291111	260	d	466	291577												2	1	31				neut			300
1 ver1_main_procedure	18	1	21	<?xml version="1.0"?>\n<Clock xmlns:dt="urn:schemas-microsoft-com:datatypes"><Description dt:dt="string">E-Prime Primary Realtime Clock</Description><StartTime><Timestamp dt:dt="int">0</Timestamp><DateUtc dt:dt="string">2015-08-12T13:33:33Z</DateUtc></StartTime><FrequencyChanges><FrequencyChange><Frequency dt:dt="r8">2441416</Frequency><Timestamp dt:dt="r8">27850053268</Timestamp><Current dt:dt="r8">0</Current><DateUtc dt:dt="string">2015-08-12T13:33:33Z</DateUtc></FrequencyChange></FrequencyChanges></Clock>\n	1 ver1_main_procedure-18-1	99.927	1.0.0.880	2	ad	2080734793	prawa	1	2.0.10.356	08-12-2015	2015-08-12 13:33:33	15:33:33	mezczyzna	2.0.10.92	3	3	1	1																							d	{SPACE}		no	BlockProc1		BlockList									32	Cued	d	color_green.png		0	14	294213	460																								75	prime_right.png	0	293713	0	0	13	0	293713	0	293713	2	293713	20	0	-1	292214	293713	293711	0		TrialProc1	left	0		0	10	294023	-294023		0	0	TrialList1	target_left.png	1	d	0	3	293763	260	d	436	294199												3	1	32				incomp			450
1 ver1_main_procedure	18	1	21	<?xml version="1.0"?>\n<Clock xmlns:dt="urn:schemas-microsoft-com:datatypes"><Description dt:dt="string">E-Prime Primary Realtime Clock</Description><StartTime><Timestamp dt:dt="int">0</Timestamp><DateUtc dt:dt="string">2015-08-12T13:33:33Z</DateUtc></StartTime><FrequencyChanges><FrequencyChange><Frequency dt:dt="r8">2441416</Frequency><Timestamp dt:dt="r8">27850053268</Timestamp><Current dt:dt="r8">0</Current><DateUtc dt:dt="string">2015-08-12T13:33:33Z</DateUtc></FrequencyChange></FrequencyChanges></Clock>\n	1 ver1_main_procedure-18-1	99.927	1.0.0.880	2	ad	2080734793	prawa	1	2.0.10.356	08-12-2015	2015-08-12 13:33:33	15:33:33	mezczyzna	2.0.10.92	3	3	1	1																							d	{SPACE}		no	BlockProc1		BlockList									33	Cued	d	color_red.png		0	14	296995	160																								75	prime_left.png	0	296485	0	0	13	0	296485	0	296485	2	296485	20	0	-1	294986	296485	296483	0		TrialProc1	left	0		0	10	296795	-296795		0	0	TrialList1	target_left.png	1	d	0	3	296535	260	d	446	296981												1	1	33				comp			150
1 ver1_main_procedure	18	1	21	<?xml version="1.0"?>\n<Clock xmlns:dt="urn:schemas-microsoft-com:datatypes"><Description dt:dt="string">E-Prime Primary Realtime Clock</Description><StartTime><Timestamp dt:dt="int">0</Timestamp><DateUtc dt:dt="string">2015-08-12T13:33:33Z</DateUtc></StartTime><FrequencyChanges><FrequencyChange><Frequency dt:dt="r8">2441416</Frequency><Timestamp dt:dt="r8">27850053268</Timestamp><Current dt:dt="r8">0</Current><DateUtc dt:dt="string">2015-08-12T13:33:33Z</DateUtc></FrequencyChange></FrequencyChanges></Clock>\n	1 ver1_main_procedure-18-1	99.927	1.0.0.880	2	ad	2080734793	prawa	1	2.0.10.356	08-12-2015	2015-08-12 13:33:33	15:33:33	mezczyzna	2.0.10.92	3	3	1	1																							d	{SPACE}		no	BlockProc1		BlockList									34	Free	dl	color_blue.png		0	6	299747	160																								25	prime_left.png	0	298966	0	0	13	1	298967	1	298967	1	298966	20	0	-1	297468	298966	298965	0		TrialProc1	left	0		0	11	299277	-299277		0	0	TrialList1	target_both.png	0	dl	0	3	299016	261	l	725	299741												7	1	34				comp			150
1 ver1_main_procedure	18	1	21	<?xml version="1.0"?>\n<Clock xmlns:dt="urn:schemas-microsoft-com:datatypes"><Description dt:dt="string">E-Prime Primary Realtime Clock</Description><StartTime><Timestamp dt:dt="int">0</Timestamp><DateUtc dt:dt="string">2015-08-12T13:33:33Z</DateUtc></StartTime><FrequencyChanges><FrequencyChange><Frequency dt:dt="r8">2441416</Frequency><Timestamp dt:dt="r8">27850053268</Timestamp><Current dt:dt="r8">0</Current><DateUtc dt:dt="string">2015-08-12T13:33:33Z</DateUtc></FrequencyChange></FrequencyChanges></Clock>\n	1 ver1_main_procedure-18-1	99.927	1.0.0.880	2	ad	2080734793	prawa	1	2.0.10.356	08-12-2015	2015-08-12 13:33:33	15:33:33	mezczyzna	2.0.10.92	3	3	1	1																							d	{SPACE}		no	BlockProc1		BlockList									35	Cued	l	color_blue.png		0	7	302229	160																								25	prime_left.png	1	301719	0	0	13	1	301719	1	301719	1	301718	20	0	-1	300220	301718	301717	0		TrialProc1	right	0		0	10	302029	-302029		0	0	TrialList1	target_right.png	1	l	0	4	301769	260	l	453	302222												6	1	35				incomp			150
1 ver1_main_procedure	18	1	21	<?xml version="1.0"?>\n<Clock xmlns:dt="urn:schemas-microsoft-com:datatypes"><Description dt:dt="string">E-Prime Primary Realtime Clock</Description><StartTime><Timestamp dt:dt="int">0</Timestamp><DateUtc dt:dt="string">2015-08-12T13:33:33Z</DateUtc></StartTime><FrequencyChanges><FrequencyChange><Frequency dt:dt="r8">2441416</Frequency><Timestamp dt:dt="r8">27850053268</Timestamp><Current dt:dt="r8">0</Current><DateUtc dt:dt="string">2015-08-12T13:33:33Z</DateUtc></FrequencyChange></FrequencyChanges></Clock>\n	1 ver1_main_procedure-18-1	99.927	1.0.0.880	2	ad	2080734793	prawa	1	2.0.10.356	08-12-2015	2015-08-12 13:33:33	15:33:33	mezczyzna	2.0.10.92	3	3	1	1																							d	{SPACE}		no	BlockProc1		BlockList									36	Cued	l	color_blue.png		0	13	304751	460																								75	prime_left.png	0	304200	0	0	13	0	304200	0	304200	1	304200	20	0	-1	302701	304200	304199	0		TrialProc1	right	0		0	11	304511	-304511		0	0	TrialList1	target_right.png	1	l	0	3	304250	261	l	488	304738												6	1	36				incomp			450
1 ver1_main_procedure	18	1	21	<?xml version="1.0"?>\n<Clock xmlns:dt="urn:schemas-microsoft-com:datatypes"><Description dt:dt="string">E-Prime Primary Realtime Clock</Description><StartTime><Timestamp dt:dt="int">0</Timestamp><DateUtc dt:dt="string">2015-08-12T13:33:33Z</DateUtc></StartTime><FrequencyChanges><FrequencyChange><Frequency dt:dt="r8">2441416</Frequency><Timestamp dt:dt="r8">27850053268</Timestamp><Current dt:dt="r8">0</Current><DateUtc dt:dt="string">2015-08-12T13:33:33Z</DateUtc></FrequencyChange></FrequencyChanges></Clock>\n	1 ver1_main_procedure-18-1	99.927	1.0.0.880	2	ad	2080734793	prawa	1	2.0.10.356	08-12-2015	2015-08-12 13:33:33	15:33:33	mezczyzna	2.0.10.92	3	3	1	1																							d	{SPACE}		no	BlockProc1		BlockList									37	Cued	d	color_green.png		0	9	307483	310																								75	prime_right.png	0	307022	0	0	13	0	307023	0	307022	1	307022	20	0	-1	305523	307022	307021	0		TrialProc1	left	0		0	11	307333	-307333		0	0	TrialList1	target_left.png	1	d	0	3	307072	261	d	402	307474												3	1	37				incomp			300
1 ver1_main_procedure	18	1	21	<?xml version="1.0"?>\n<Clock xmlns:dt="urn:schemas-microsoft-com:datatypes"><Description dt:dt="string">E-Prime Primary Realtime Clock</Description><StartTime><Timestamp dt:dt="int">0</Timestamp><DateUtc dt:dt="string">2015-08-12T13:33:33Z</DateUtc></StartTime><FrequencyChanges><FrequencyChange><Frequency dt:dt="r8">2441416</Frequency><Timestamp dt:dt="r8">27850053268</Timestamp><Current dt:dt="r8">0</Current><DateUtc dt:dt="string">2015-08-12T13:33:33Z</DateUtc></FrequencyChange></FrequencyChanges></Clock>\n	1 ver1_main_procedure-18-1	99.927	1.0.0.880	2	ad	2080734793	prawa	1	2.0.10.356	08-12-2015	2015-08-12 13:33:33	15:33:33	mezczyzna	2.0.10.92	3	3	1	1																							d	{SPACE}		no	BlockProc1		BlockList									38	Cued	d	color_green.png		0	7	310125	160																								25	prime_right.png	0	309604	0	0	13	0	309604	0	309604	1	309604	20	0	-1	308105	309604	309603	0		TrialProc1	left	0		0	11	309915	-309915		0	0	TrialList1	target_left.png	1	d	0	3	309654	261	d	464	310118												3	1	38				incomp			150
1 ver1_main_procedure	18	1	21	<?xml version="1.0"?>\n<Clock xmlns:dt="urn:schemas-microsoft-com:datatypes"><Description dt:dt="string">E-Prime Primary Realtime Clock</Description><StartTime><Timestamp dt:dt="int">0</Timestamp><DateUtc dt:dt="string">2015-08-12T13:33:33Z</DateUtc></StartTime><FrequencyChanges><FrequencyChange><Frequency dt:dt="r8">2441416</Frequency><Timestamp dt:dt="r8">27850053268</Timestamp><Current dt:dt="r8">0</Current><DateUtc dt:dt="string">2015-08-12T13:33:33Z</DateUtc></FrequencyChange></FrequencyChanges></Clock>\n	1 ver1_main_procedure-18-1	99.927	1.0.0.880	2	ad	2080734793	prawa	1	2.0.10.356	08-12-2015	2015-08-12 13:33:33	15:33:33	mezczyzna	2.0.10.92	3	3	1	1																							d	{SPACE}		no	BlockProc1		BlockList									39	Cued	l	color_purple.png		0	11	312667	310																								25	prime_right.png	0	312096	0	0	13	0	312096	0	312096	1	312096	20	0	-1	310597	312096	312095	0		TrialProc1	right	0		0	10	312406	-312406		0	0	TrialList1	target_right.png	1	l	0	3	312146	260	l	510	312656												4	1	39				comp			300
1 ver1_main_procedure	18	1	21	<?xml version="1.0"?>\n<Clock xmlns:dt="urn:schemas-microsoft-com:datatypes"><Description dt:dt="string">E-Prime Primary Realtime Clock</Description><StartTime><Timestamp dt:dt="int">0</Timestamp><DateUtc dt:dt="string">2015-08-12T13:33:33Z</DateUtc></StartTime><FrequencyChanges><FrequencyChange><Frequency dt:dt="r8">2441416</Frequency><Timestamp dt:dt="r8">27850053268</Timestamp><Current dt:dt="r8">0</Current><DateUtc dt:dt="string">2015-08-12T13:33:33Z</DateUtc></FrequencyChange></FrequencyChanges></Clock>\n	1 ver1_main_procedure-18-1	99.927	1.0.0.880	2	ad	2080734793	prawa	1	2.0.10.356	08-12-2015	2015-08-12 13:33:33	15:33:33	mezczyzna	2.0.10.92	3	3	1	1																							d	{SPACE}		no	BlockProc1		BlockList									40	Cued	d	color_green.png		0	5	315309	160																								25	prime_right.png	0	314788	0	0	13	0	314788	0	314788	1	314788	20	0	-1	313289	314788	314787	0		TrialProc1	left	0		0	10	315098	-315098		0	0	TrialList1	target_left.png	1	d	0	3	314838	260	d	465	315303												3	1	40				incomp			150
1 ver1_main_procedure	18	1	21	<?xml version="1.0"?>\n<Clock xmlns:dt="urn:schemas-microsoft-com:datatypes"><Description dt:dt="string">E-Prime Primary Realtime Clock</Description><StartTime><Timestamp dt:dt="int">0</Timestamp><DateUtc dt:dt="string">2015-08-12T13:33:33Z</DateUtc></StartTime><FrequencyChanges><FrequencyChange><Frequency dt:dt="r8">2441416</Frequency><Timestamp dt:dt="r8">27850053268</Timestamp><Current dt:dt="r8">0</Current><DateUtc dt:dt="string">2015-08-12T13:33:33Z</DateUtc></FrequencyChange></FrequencyChanges></Clock>\n	1 ver1_main_procedure-18-1	99.927	1.0.0.880	2	ad	2080734793	prawa	1	2.0.10.356	08-12-2015	2015-08-12 13:33:33	15:33:33	mezczyzna	2.0.10.92	3	3	1	1																							d	{SPACE}		no	BlockProc1		BlockList									41	Cued	l	color_purple.png		0	10	317750	461																								25	prime_right.png	0	317280	0	0	13	0	317280	0	317280	1	317280	20	0	-1	315781	317280	317279	0		TrialProc1	right	0		0	10	317590	-317590		0	0	TrialList1	target_right.png	1	l	0	3	317330	260	l	409	317739												4	1	41				comp			450
1 ver1_main_procedure	18	1	21	<?xml version="1.0"?>\n<Clock xmlns:dt="urn:schemas-microsoft-com:datatypes"><Description dt:dt="string">E-Prime Primary Realtime Clock</Description><StartTime><Timestamp dt:dt="int">0</Timestamp><DateUtc dt:dt="string">2015-08-12T13:33:33Z</DateUtc></StartTime><FrequencyChanges><FrequencyChange><Frequency dt:dt="r8">2441416</Frequency><Timestamp dt:dt="r8">27850053268</Timestamp><Current dt:dt="r8">0</Current><DateUtc dt:dt="string">2015-08-12T13:33:33Z</DateUtc></FrequencyChange></FrequencyChanges></Clock>\n	1 ver1_main_procedure-18-1	99.927	1.0.0.880	2	ad	2080734793	prawa	1	2.0.10.356	08-12-2015	2015-08-12 13:33:33	15:33:33	mezczyzna	2.0.10.92	3	3	1	1																							d	{SPACE}		no	BlockProc1		BlockList									42	Cued	l	color_purple.png		0	14	320462	461																								75	prime_right.png	0	320022	0	0	13	0	320022	0	320022	1	320022	20	0	-1	318523	320022	320021	0		TrialProc1	right	0		0	10	320332	-320332		0	0	TrialList1	target_right.png	1	l	0	3	320072	260	l	376	320448												4	1	42				comp			450
1 ver1_main_procedure	18	1	21	<?xml version="1.0"?>\n<Clock xmlns:dt="urn:schemas-microsoft-com:datatypes"><Description dt:dt="string">E-Prime Primary Realtime Clock</Description><StartTime><Timestamp dt:dt="int">0</Timestamp><DateUtc dt:dt="string">2015-08-12T13:33:33Z</DateUtc></StartTime><FrequencyChanges><FrequencyChange><Frequency dt:dt="r8">2441416</Frequency><Timestamp dt:dt="r8">27850053268</Timestamp><Current dt:dt="r8">0</Current><DateUtc dt:dt="string">2015-08-12T13:33:33Z</DateUtc></FrequencyChange></FrequencyChanges></Clock>\n	1 ver1_main_procedure-18-1	99.927	1.0.0.880	2	ad	2080734793	prawa	1	2.0.10.356	08-12-2015	2015-08-12 13:33:33	15:33:33	mezczyzna	2.0.10.92	3	3	1	1																							d	{SPACE}		no	BlockProc1		BlockList									43	Cued	l	color_blue.png		0	14	323204	461																								75	prime_left.png	0	322734	0	0	13	0	322734	0	322734	1	322734	20	0	-1	321235	322734	322733	0		TrialProc1	right	0		0	10	323044	-323044		0	0	TrialList1	target_right.png	1	l	0	3	322784	260	l	406	323190												6	1	43				incomp			450
1 ver1_main_procedure	18	1	21	<?xml version="1.0"?>\n<Clock xmlns:dt="urn:schemas-microsoft-com:datatypes"><Description dt:dt="string">E-Prime Primary Realtime Clock</Description><StartTime><Timestamp dt:dt="int">0</Timestamp><DateUtc dt:dt="string">2015-08-12T13:33:33Z</DateUtc></StartTime><FrequencyChanges><FrequencyChange><Frequency dt:dt="r8">2441416</Frequency><Timestamp dt:dt="r8">27850053268</Timestamp><Current dt:dt="r8">0</Current><DateUtc dt:dt="string">2015-08-12T13:33:33Z</DateUtc></FrequencyChange></FrequencyChanges></Clock>\n	1 ver1_main_procedure-18-1	99.927	1.0.0.880	2	ad	2080734793	prawa	1	2.0.10.356	08-12-2015	2015-08-12 13:33:33	15:33:33	mezczyzna	2.0.10.92	3	3	1	1																							d	{SPACE}		no	BlockProc1		BlockList									44	Cued	d	color_red.png		0	10	325966	461																								25	prime_left.png	0	325476	0	0	13	0	325476	0	325476	1	325476	20	0	-1	323977	325476	325475	0		TrialProc1	left	0		0	10	325786	-325786		0	0	TrialList1	target_left.png	1	d	0	3	325526	260	d	430	325956												1	1	44				comp			450
1 ver1_main_procedure	18	1	21	<?xml version="1.0"?>\n<Clock xmlns:dt="urn:schemas-microsoft-com:datatypes"><Description dt:dt="string">E-Prime Primary Realtime Clock</Description><StartTime><Timestamp dt:dt="int">0</Timestamp><DateUtc dt:dt="string">2015-08-12T13:33:33Z</DateUtc></StartTime><FrequencyChanges><FrequencyChange><Frequency dt:dt="r8">2441416</Frequency><Timestamp dt:dt="r8">27850053268</Timestamp><Current dt:dt="r8">0</Current><DateUtc dt:dt="string">2015-08-12T13:33:33Z</DateUtc></FrequencyChange></FrequencyChanges></Clock>\n	1 ver1_main_procedure-18-1	99.927	1.0.0.880	2	ad	2080734793	prawa	1	2.0.10.356	08-12-2015	2015-08-12 13:33:33	15:33:33	mezczyzna	2.0.10.92	3	3	1	1																							d	{SPACE}		no	BlockProc1		BlockList									45	Cued	d	color_red.png		0	6	328758	311																								75	prime_left.png	0	328238	0	0	13	0	328238	0	328238	1	328238	20	0	-1	326739	328238	328237	0		TrialProc1	left	0		0	10	328548	-328548		0	0	TrialList1	target_left.png	1	d	0	3	328288	260	d	464	328752												1	1	45				comp			300
1 ver1_main_procedure	18	1	21	<?xml version="1.0"?>\n<Clock xmlns:dt="urn:schemas-microsoft-com:datatypes"><Description dt:dt="string">E-Prime Primary Realtime Clock</Description><StartTime><Timestamp dt:dt="int">0</Timestamp><DateUtc dt:dt="string">2015-08-12T13:33:33Z</DateUtc></StartTime><FrequencyChanges><FrequencyChange><Frequency dt:dt="r8">2441416</Frequency><Timestamp dt:dt="r8">27850053268</Timestamp><Current dt:dt="r8">0</Current><DateUtc dt:dt="string">2015-08-12T13:33:33Z</DateUtc></FrequencyChange></FrequencyChanges></Clock>\n	1 ver1_main_procedure-18-1	99.927	1.0.0.880	2	ad	2080734793	prawa	1	2.0.10.356	08-12-2015	2015-08-12 13:33:33	15:33:33	mezczyzna	2.0.10.92	3	3	1	1																							d	{SPACE}		no	BlockProc1		BlockList									46	Cued	d	color_orange.png		0	14	331430	311																			2					75	prime_right.png	0	330880	0	0	13	0	330880	0	330880	1	330880	20	0	-1	329381	330880	330879	0	prime_right.png	TrialProc1	left	0		0	10	331190	-331190		0	0	TrialList1	target_left.png	1	d	0	3	330930	260	d	486	331416												2	1	46				neut			300
1 ver1_main_procedure	18	1	21	<?xml version="1.0"?>\n<Clock xmlns:dt="urn:schemas-microsoft-com:datatypes"><Description dt:dt="string">E-Prime Primary Realtime Clock</Description><StartTime><Timestamp dt:dt="int">0</Timestamp><DateUtc dt:dt="string">2015-08-12T13:33:33Z</DateUtc></StartTime><FrequencyChanges><FrequencyChange><Frequency dt:dt="r8">2441416</Frequency><Timestamp dt:dt="r8">27850053268</Timestamp><Current dt:dt="r8">0</Current><DateUtc dt:dt="string">2015-08-12T13:33:33Z</DateUtc></FrequencyChange></FrequencyChanges></Clock>\n	1 ver1_main_procedure-18-1	99.927	1.0.0.880	2	ad	2080734793	prawa	1	2.0.10.356	08-12-2015	2015-08-12 13:33:33	15:33:33	mezczyzna	2.0.10.92	3	3	1	1																							d	{SPACE}		no	BlockProc1		BlockList									47	Cued	d	color_red.png		0	6	334042	461																								75	prime_left.png	0	333552	0	0	13	0	333552	0	333552	1	333552	20	0	-1	332053	333552	333551	0		TrialProc1	left	0		0	10	333862	-333862		0	0	TrialList1	target_left.png	1	d	0	3	333602	260	d	434	334036												1	1	47				comp			450
1 ver1_main_procedure	18	1	21	<?xml version="1.0"?>\n<Clock xmlns:dt="urn:schemas-microsoft-com:datatypes"><Description dt:dt="string">E-Prime Primary Realtime Clock</Description><StartTime><Timestamp dt:dt="int">0</Timestamp><DateUtc dt:dt="string">2015-08-12T13:33:33Z</DateUtc></StartTime><FrequencyChanges><FrequencyChange><Frequency dt:dt="r8">2441416</Frequency><Timestamp dt:dt="r8">27850053268</Timestamp><Current dt:dt="r8">0</Current><DateUtc dt:dt="string">2015-08-12T13:33:33Z</DateUtc></FrequencyChange></FrequencyChanges></Clock>\n	1 ver1_main_procedure-18-1	99.927	1.0.0.880	2	ad	2080734793	prawa	1	2.0.10.356	08-12-2015	2015-08-12 13:33:33	15:33:33	mezczyzna	2.0.10.92	3	3	1	1																							d	{SPACE}		no	BlockProc1		BlockList									48	Cued	l	color_yellow.png		0	13	336674	160																			1					75	prime_left.png	0	336314	0	0	13	0	336314	0	336314	1	336314	20	0	-1	334815	336314	336313	0	prime_left.png	TrialProc1	right	0		0	10	336624	-336624		0	0	TrialList1	target_right.png	1	l	0	3	336364	260	l	297	336661												5	1	48				neut			150
1 ver1_main_procedure	18	1	21	<?xml version="1.0"?>\n<Clock xmlns:dt="urn:schemas-microsoft-com:datatypes"><Description dt:dt="string">E-Prime Primary Realtime Clock</Description><StartTime><Timestamp dt:dt="int">0</Timestamp><DateUtc dt:dt="string">2015-08-12T13:33:33Z</DateUtc></StartTime><FrequencyChanges><FrequencyChange><Frequency dt:dt="r8">2441416</Frequency><Timestamp dt:dt="r8">27850053268</Timestamp><Current dt:dt="r8">0</Current><DateUtc dt:dt="string">2015-08-12T13:33:33Z</DateUtc></FrequencyChange></FrequencyChanges></Clock>\n	1 ver1_main_procedure-18-1	99.927	1.0.0.880	2	ad	2080734793	prawa	1	2.0.10.356	08-12-2015	2015-08-12 13:33:33	15:33:33	mezczyzna	2.0.10.92	3	3	1	1																							d	{SPACE}		no	BlockProc1		BlockList									49	Cued	d	color_green.png		0	13	339016	310																								25	prime_right.png	0	338646	0	0	13	0	338646	0	338646	1	338646	20	0	-1	337147	338646	338645	0		TrialProc1	left	0		0	10	338956	-338956		0	0	TrialList1	target_left.png	1	d	0	3	338696	260	d	307	339003												3	1	49				incomp			300
1 ver1_main_procedure	18	1	21	<?xml version="1.0"?>\n<Clock xmlns:dt="urn:schemas-microsoft-com:datatypes"><Description dt:dt="string">E-Prime Primary Realtime Clock</Description><StartTime><Timestamp dt:dt="int">0</Timestamp><DateUtc dt:dt="string">2015-08-12T13:33:33Z</DateUtc></StartTime><FrequencyChanges><FrequencyChange><Frequency dt:dt="r8">2441416</Frequency><Timestamp dt:dt="r8">27850053268</Timestamp><Current dt:dt="r8">0</Current><DateUtc dt:dt="string">2015-08-12T13:33:33Z</DateUtc></FrequencyChange></FrequencyChanges></Clock>\n	1 ver1_main_procedure-18-1	99.927	1.0.0.880	2	ad	2080734793	prawa	1	2.0.10.356	08-12-2015	2015-08-12 13:33:33	15:33:33	mezczyzna	2.0.10.92	3	3	1	1																							d	{SPACE}		no	BlockProc1		BlockList									50	Cued	l	color_yellow.png		0	11	341508	160																			2					25	prime_right.png	0	341138	0	0	13	0	341138	0	341138	2	341138	20	0	-1	339639	341138	341136	0	prime_right.png	TrialProc1	right	0		0	10	341448	-341448		0	0	TrialList1	target_right.png	1	l	0	3	341188	260	l	309	341497												5	1	50				neut			150
1 ver1_main_procedure	18	1	21	<?xml version="1.0"?>\n<Clock xmlns:dt="urn:schemas-microsoft-com:datatypes"><Description dt:dt="string">E-Prime Primary Realtime Clock</Description><StartTime><Timestamp dt:dt="int">0</Timestamp><DateUtc dt:dt="string">2015-08-12T13:33:33Z</DateUtc></StartTime><FrequencyChanges><FrequencyChange><Frequency dt:dt="r8">2441416</Frequency><Timestamp dt:dt="r8">27850053268</Timestamp><Current dt:dt="r8">0</Current><DateUtc dt:dt="string">2015-08-12T13:33:33Z</DateUtc></FrequencyChange></FrequencyChanges></Clock>\n	1 ver1_main_procedure-18-1	99.927	1.0.0.880	2	ad	2080734793	prawa	1	2.0.10.356	08-12-2015	2015-08-12 13:33:33	15:33:33	mezczyzna	2.0.10.92	3	3	1	1																							d	{SPACE}		no	BlockProc1		BlockList									51	Free	dl	color_red.png		0	9	344300	160																								25	prime_left.png	0	343479	0	0	13	0	343479	0	343479	1	343479	20	0	-1	341980	343479	343478	0		TrialProc1	right	0		0	11	343790	-343790		0	0	TrialList1	target_both.png	0	dl	0	3	343529	261	d	762	344291												12	1	51				incomp			150
1 ver1_main_procedure	18	1	21	<?xml version="1.0"?>\n<Clock xmlns:dt="urn:schemas-microsoft-com:datatypes"><Description dt:dt="string">E-Prime Primary Realtime Clock</Description><StartTime><Timestamp dt:dt="int">0</Timestamp><DateUtc dt:dt="string">2015-08-12T13:33:33Z</DateUtc></StartTime><FrequencyChanges><FrequencyChange><Frequency dt:dt="r8">2441416</Frequency><Timestamp dt:dt="r8">27850053268</Timestamp><Current dt:dt="r8">0</Current><DateUtc dt:dt="string">2015-08-12T13:33:33Z</DateUtc></FrequencyChange></FrequencyChanges></Clock>\n	1 ver1_main_procedure-18-1	99.927	1.0.0.880	2	ad	2080734793	prawa	1	2.0.10.356	08-12-2015	2015-08-12 13:33:33	15:33:33	mezczyzna	2.0.10.92	3	3	1	1																							d	{SPACE}		no	BlockProc1		BlockList									52	Cued	l	color_blue.png		0	11	346692	160																								25	prime_left.png	0	346271	0	0	13	0	346272	0	346271	1	346271	20	0	-1	344773	346271	346270	0		TrialProc1	right	0		0	11	346582	-346582		0	0	TrialList1	target_right.png	1	l	0	3	346321	261	l	360	346681												6	1	52				incomp			150
1 ver1_main_procedure	18	1	21	<?xml version="1.0"?>\n<Clock xmlns:dt="urn:schemas-microsoft-com:datatypes"><Description dt:dt="string">E-Prime Primary Realtime Clock</Description><StartTime><Timestamp dt:dt="int">0</Timestamp><DateUtc dt:dt="string">2015-08-12T13:33:33Z</DateUtc></StartTime><FrequencyChanges><FrequencyChange><Frequency dt:dt="r8">2441416</Frequency><Timestamp dt:dt="r8">27850053268</Timestamp><Current dt:dt="r8">0</Current><DateUtc dt:dt="string">2015-08-12T13:33:33Z</DateUtc></FrequencyChange></FrequencyChanges></Clock>\n	1 ver1_main_procedure-18-1	99.927	1.0.0.880	2	ad	2080734793	prawa	1	2.0.10.356	08-12-2015	2015-08-12 13:33:33	15:33:33	mezczyzna	2.0.10.92	3	3	1	1																							d	{SPACE}		no	BlockProc1		BlockList									53	Cued	l	color_blue.png		0	6	349093	161																								75	prime_left.png	0	348663	0	0	13	0	348663	0	348663	1	348663	20	0	-1	347164	348663	348662	0		TrialProc1	right	0		1	10	348973	-348973		0	0	TrialList1	target_right.png	1	l	0	3	348713	260	l	374	349087												6	1	53				incomp			150
1 ver1_main_procedure	18	1	21	<?xml version="1.0"?>\n<Clock xmlns:dt="urn:schemas-microsoft-com:datatypes"><Description dt:dt="string">E-Prime Primary Realtime Clock</Description><StartTime><Timestamp dt:dt="int">0</Timestamp><DateUtc dt:dt="string">2015-08-12T13:33:33Z</DateUtc></StartTime><FrequencyChanges><FrequencyChange><Frequency dt:dt="r8">2441416</Frequency><Timestamp dt:dt="r8">27850053268</Timestamp><Current dt:dt="r8">0</Current><DateUtc dt:dt="string">2015-08-12T13:33:33Z</DateUtc></FrequencyChange></FrequencyChanges></Clock>\n	1 ver1_main_procedure-18-1	99.927	1.0.0.880	2	ad	2080734793	prawa	1	2.0.10.356	08-12-2015	2015-08-12 13:33:33	15:33:33	mezczyzna	2.0.10.92	3	3	1	1																							d	{SPACE}		no	BlockProc1		BlockList									54	Free	dl	color_yellow.png		0	7	351745	161																			1					75	prime_left.png	0	351065	0	0	13	0	351065	0	351065	1	351065	20	0	-1	349566	351065	351064	0	prime_left.png	TrialProc1	right	0		0	10	351375	-351375		0	0	TrialList1	target_both.png	0	dl	0	3	351115	260	l	623	351738												11	1	54				neut			150
1 ver1_main_procedure	18	1	21	<?xml version="1.0"?>\n<Clock xmlns:dt="urn:schemas-microsoft-com:datatypes"><Description dt:dt="string">E-Prime Primary Realtime Clock</Description><StartTime><Timestamp dt:dt="int">0</Timestamp><DateUtc dt:dt="string">2015-08-12T13:33:33Z</DateUtc></StartTime><FrequencyChanges><FrequencyChange><Frequency dt:dt="r8">2441416</Frequency><Timestamp dt:dt="r8">27850053268</Timestamp><Current dt:dt="r8">0</Current><DateUtc dt:dt="string">2015-08-12T13:33:33Z</DateUtc></FrequencyChange></FrequencyChanges></Clock>\n	1 ver1_main_procedure-18-1	99.927	1.0.0.880	2	ad	2080734793	prawa	1	2.0.10.356	08-12-2015	2015-08-12 13:33:33	15:33:33	mezczyzna	2.0.10.92	3	3	1	1																							d	{SPACE}		no	BlockProc1		BlockList									55	Cued	l	color_yellow.png		0	5	354257	461																			2					25	prime_right.png	0	353717	0	0	13	0	353717	0	353717	1	353717	20	0	-1	352218	353717	353716	0	prime_right.png	TrialProc1	right	0		0	10	354027	-354027		0	0	TrialList1	target_right.png	1	l	0	3	353767	260	l	485	354252												5	1	55				neut			450
1 ver1_main_procedure	18	1	21	<?xml version="1.0"?>\n<Clock xmlns:dt="urn:schemas-microsoft-com:datatypes"><Description dt:dt="string">E-Prime Primary Realtime Clock</Description><StartTime><Timestamp dt:dt="int">0</Timestamp><DateUtc dt:dt="string">2015-08-12T13:33:33Z</DateUtc></StartTime><FrequencyChanges><FrequencyChange><Frequency dt:dt="r8">2441416</Frequency><Timestamp dt:dt="r8">27850053268</Timestamp><Current dt:dt="r8">0</Current><DateUtc dt:dt="string">2015-08-12T13:33:33Z</DateUtc></FrequencyChange></FrequencyChanges></Clock>\n	1 ver1_main_procedure-18-1	99.927	1.0.0.880	2	ad	2080734793	prawa	1	2.0.10.356	08-12-2015	2015-08-12 13:33:33	15:33:33	mezczyzna	2.0.10.92	3	3	1	1																							d	{SPACE}		no	BlockProc1		BlockList									56	Cued	l	color_yellow.png		0	5	356949	461																			1					25	prime_left.png	0	356529	0	0	13	0	356529	0	356529	1	356529	20	0	-1	355030	356529	356528	0	prime_left.png	TrialProc1	right	0		0	10	356839	-356839		0	0	TrialList1	target_right.png	1	l	0	3	356579	260	l	364	356943												5	1	56				neut			450
1 ver1_main_procedure	18	1	21	<?xml version="1.0"?>\n<Clock xmlns:dt="urn:schemas-microsoft-com:datatypes"><Description dt:dt="string">E-Prime Primary Realtime Clock</Description><StartTime><Timestamp dt:dt="int">0</Timestamp><DateUtc dt:dt="string">2015-08-12T13:33:33Z</DateUtc></StartTime><FrequencyChanges><FrequencyChange><Frequency dt:dt="r8">2441416</Frequency><Timestamp dt:dt="r8">27850053268</Timestamp><Current dt:dt="r8">0</Current><DateUtc dt:dt="string">2015-08-12T13:33:33Z</DateUtc></FrequencyChange></FrequencyChanges></Clock>\n	1 ver1_main_procedure-18-1	99.927	1.0.0.880	2	ad	2080734793	prawa	1	2.0.10.356	08-12-2015	2015-08-12 13:33:33	15:33:33	mezczyzna	2.0.10.92	3	3	1	1																							d	{SPACE}		no	BlockProc1		BlockList									57	Free	dl	color_purple.png		0	7	359831	161																								25	prime_right.png	0	359221	0	0	13	0	359221	0	359221	1	359221	20	0	-1	357722	359221	359220	0		TrialProc1	right	0		0	10	359531	-359531		0	0	TrialList1	target_both.png	0	dl	0	3	359271	260	l	552	359823												10	1	57				comp			150
1 ver1_main_procedure	18	1	21	<?xml version="1.0"?>\n<Clock xmlns:dt="urn:schemas-microsoft-com:datatypes"><Description dt:dt="string">E-Prime Primary Realtime Clock</Description><StartTime><Timestamp dt:dt="int">0</Timestamp><DateUtc dt:dt="string">2015-08-12T13:33:33Z</DateUtc></StartTime><FrequencyChanges><FrequencyChange><Frequency dt:dt="r8">2441416</Frequency><Timestamp dt:dt="r8">27850053268</Timestamp><Current dt:dt="r8">0</Current><DateUtc dt:dt="string">2015-08-12T13:33:33Z</DateUtc></FrequencyChange></FrequencyChanges></Clock>\n	1 ver1_main_procedure-18-1	99.927	1.0.0.880	2	ad	2080734793	prawa	1	2.0.10.356	08-12-2015	2015-08-12 13:33:33	15:33:33	mezczyzna	2.0.10.92	3	3	1	1																							d	{SPACE}		no	BlockProc1		BlockList									58	Cued	d	color_red.png		0	6	362363	311																								75	prime_left.png	0	361803	0	0	13	0	361803	0	361803	1	361803	20	0	-1	360304	361803	361802	0		TrialProc1	left	0		0	10	362113	-362113		0	0	TrialList1	target_left.png	1	d	0	3	361853	260	d	504	362357												1	1	58				comp			300
1 ver1_main_procedure	18	1	21	<?xml version="1.0"?>\n<Clock xmlns:dt="urn:schemas-microsoft-com:datatypes"><Description dt:dt="string">E-Prime Primary Realtime Clock</Description><StartTime><Timestamp dt:dt="int">0</Timestamp><DateUtc dt:dt="string">2015-08-12T13:33:33Z</DateUtc></StartTime><FrequencyChanges><FrequencyChange><Frequency dt:dt="r8">2441416</Frequency><Timestamp dt:dt="r8">27850053268</Timestamp><Current dt:dt="r8">0</Current><DateUtc dt:dt="string">2015-08-12T13:33:33Z</DateUtc></FrequencyChange></FrequencyChanges></Clock>\n	1 ver1_main_procedure-18-1	99.927	1.0.0.880	2	ad	2080734793	prawa	1	2.0.10.356	08-12-2015	2015-08-12 13:33:33	15:33:33	mezczyzna	2.0.10.92	3	3	1	1																							d	{SPACE}		no	BlockProc1		BlockList									59	Free	dl	color_orange.png		0	14	365265	311																			2					75	prime_right.png	0	364485	0	0	13	0	364485	0	364485	1	364485	20	0	-1	362986	364485	364484	0	prime_right.png	TrialProc1	left	0		0	10	364795	-364795		0	0	TrialList1	target_both.png	0	dl	0	3	364535	260	d	716	365251												8	1	59				neut			300
1 ver1_main_procedure	18	1	21	<?xml version="1.0"?>\n<Clock xmlns:dt="urn:schemas-microsoft-com:datatypes"><Description dt:dt="string">E-Prime Primary Realtime Clock</Description><StartTime><Timestamp dt:dt="int">0</Timestamp><DateUtc dt:dt="string">2015-08-12T13:33:33Z</DateUtc></StartTime><FrequencyChanges><FrequencyChange><Frequency dt:dt="r8">2441416</Frequency><Timestamp dt:dt="r8">27850053268</Timestamp><Current dt:dt="r8">0</Current><DateUtc dt:dt="string">2015-08-12T13:33:33Z</DateUtc></FrequencyChange></FrequencyChanges></Clock>\n	1 ver1_main_procedure-18-1	99.927	1.0.0.880	2	ad	2080734793	prawa	1	2.0.10.356	08-12-2015	2015-08-12 13:33:33	15:33:33	mezczyzna	2.0.10.92	3	3	1	1																							d	{SPACE}		no	BlockProc1		BlockList									60	Cued	l	color_yellow.png		0	10	367837	461																			1					25	prime_left.png	0	367387	0	0	13	0	367387	0	367387	1	367387	20	0	-1	365888	367387	367386	0	prime_left.png	TrialProc1	right	0		0	10	367697	-367697		0	0	TrialList1	target_right.png	1	l	0	3	367437	260	l	390	367827												5	1	60				neut			450
1 ver1_main_procedure	18	1	21	<?xml version="1.0"?>\n<Clock xmlns:dt="urn:schemas-microsoft-com:datatypes"><Description dt:dt="string">E-Prime Primary Realtime Clock</Description><StartTime><Timestamp dt:dt="int">0</Timestamp><DateUtc dt:dt="string">2015-08-12T13:33:33Z</DateUtc></StartTime><FrequencyChanges><FrequencyChange><Frequency dt:dt="r8">2441416</Frequency><Timestamp dt:dt="r8">27850053268</Timestamp><Current dt:dt="r8">0</Current><DateUtc dt:dt="string">2015-08-12T13:33:33Z</DateUtc></FrequencyChange></FrequencyChanges></Clock>\n	1 ver1_main_procedure-18-1	99.927	1.0.0.880	2	ad	2080734793	prawa	1	2.0.10.356	08-12-2015	2015-08-12 13:33:33	15:33:33	mezczyzna	2.0.10.92	3	3	1	1																							d	{SPACE}		no	BlockProc1		BlockList									61	Cued	d	color_red.png		0	9	370629	311																								75	prime_left.png	0	370109	0	0	13	0	370109	0	370109	1	370109	20	0	-1	368610	370109	370108	0		TrialProc1	left	0		0	10	370419	-370419		0	0	TrialList1	target_left.png	1	d	0	3	370159	260	d	461	370620												1	1	61				comp			300
1 ver1_main_procedure	18	1	21	<?xml version="1.0"?>\n<Clock xmlns:dt="urn:schemas-microsoft-com:datatypes"><Description dt:dt="string">E-Prime Primary Realtime Clock</Description><StartTime><Timestamp dt:dt="int">0</Timestamp><DateUtc dt:dt="string">2015-08-12T13:33:33Z</DateUtc></StartTime><FrequencyChanges><FrequencyChange><Frequency dt:dt="r8">2441416</Frequency><Timestamp dt:dt="r8">27850053268</Timestamp><Current dt:dt="r8">0</Current><DateUtc dt:dt="string">2015-08-12T13:33:33Z</DateUtc></FrequencyChange></FrequencyChanges></Clock>\n	1 ver1_main_procedure-18-1	99.927	1.0.0.880	2	ad	2080734793	prawa	1	2.0.10.356	08-12-2015	2015-08-12 13:33:33	15:33:33	mezczyzna	2.0.10.92	3	3	1	1																							d	{SPACE}		no	BlockProc1		BlockList									62	Cued	l	color_yellow.png		0	7	373291	461																			2					75	prime_right.png	0	372751	0	0	13	0	372751	0	372751	1	372751	20	0	-1	371252	372751	372750	0	prime_right.png	TrialProc1	right	0		0	10	373061	-373061		0	0	TrialList1	target_right.png	1	l	0	3	372801	260	l	483	373284												5	1	62				neut			450
1 ver1_main_procedure	18	1	21	<?xml version="1.0"?>\n<Clock xmlns:dt="urn:schemas-microsoft-com:datatypes"><Description dt:dt="string">E-Prime Primary Realtime Clock</Description><StartTime><Timestamp dt:dt="int">0</Timestamp><DateUtc dt:dt="string">2015-08-12T13:33:33Z</DateUtc></StartTime><FrequencyChanges><FrequencyChange><Frequency dt:dt="r8">2441416</Frequency><Timestamp dt:dt="r8">27850053268</Timestamp><Current dt:dt="r8">0</Current><DateUtc dt:dt="string">2015-08-12T13:33:33Z</DateUtc></FrequencyChange></FrequencyChanges></Clock>\n	1 ver1_main_procedure-18-1	99.927	1.0.0.880	2	ad	2080734793	prawa	1	2.0.10.356	08-12-2015	2015-08-12 13:33:33	15:33:33	mezczyzna	2.0.10.92	3	3	1	1																							d	{SPACE}		no	BlockProc1		BlockList									63	Free	dl	color_purple.png		0	12	376284	460																								75	prime_right.png	0	375563	0	0	13	0	375563	0	375563	1	375563	20	0	-1	374064	375563	375562	0		TrialProc1	left	0		0	10	375873	-375873		0	0	TrialList1	target_both.png	0	dl	0	3	375613	260	l	659	376272												9	1	63				incomp			450
1 ver1_main_procedure	18	1	21	<?xml version="1.0"?>\n<Clock xmlns:dt="urn:schemas-microsoft-com:datatypes"><Description dt:dt="string">E-Prime Primary Realtime Clock</Description><StartTime><Timestamp dt:dt="int">0</Timestamp><DateUtc dt:dt="string">2015-08-12T13:33:33Z</DateUtc></StartTime><FrequencyChanges><FrequencyChange><Frequency dt:dt="r8">2441416</Frequency><Timestamp dt:dt="r8">27850053268</Timestamp><Current dt:dt="r8">0</Current><DateUtc dt:dt="string">2015-08-12T13:33:33Z</DateUtc></FrequencyChange></FrequencyChanges></Clock>\n	1 ver1_main_procedure-18-1	99.927	1.0.0.880	2	ad	2080734793	prawa	1	2.0.10.356	08-12-2015	2015-08-12 13:33:33	15:33:33	mezczyzna	2.0.10.92	3	3	1	1																							d	{SPACE}		no	BlockProc1		BlockList									64	Cued	l	color_purple.png		0	6	379006	310																								25	prime_right.png	0	378555	0	0	13	0	378555	0	378555	1	378555	20	0	-1	377056	378555	378554	0		TrialProc1	right	0		1	10	378865	-378865		0	0	TrialList1	target_right.png	1	l	0	3	378605	260	l	395	379000												4	1	64				comp			300
1 ver1_main_procedure	18	1	21	<?xml version="1.0"?>\n<Clock xmlns:dt="urn:schemas-microsoft-com:datatypes"><Description dt:dt="string">E-Prime Primary Realtime Clock</Description><StartTime><Timestamp dt:dt="int">0</Timestamp><DateUtc dt:dt="string">2015-08-12T13:33:33Z</DateUtc></StartTime><FrequencyChanges><FrequencyChange><Frequency dt:dt="r8">2441416</Frequency><Timestamp dt:dt="r8">27850053268</Timestamp><Current dt:dt="r8">0</Current><DateUtc dt:dt="string">2015-08-12T13:33:33Z</DateUtc></FrequencyChange></FrequencyChanges></Clock>\n	1 ver1_main_procedure-18-1	99.927	1.0.0.880	2	ad	2080734793	prawa	1	2.0.10.356	08-12-2015	2015-08-12 13:33:33	15:33:33	mezczyzna	2.0.10.92	3	3	1	1																							d	{SPACE}		no	BlockProc1		BlockList									65	Cued	l	color_yellow.png		0	9	381557	461																			1					25	prime_left.png	0	381127	0	0	13	0	381127	0	381127	1	381127	20	0	-1	379628	381127	381126	0	prime_left.png	TrialProc1	right	0		0	10	381437	-381437		0	0	TrialList1	target_right.png	1	l	0	3	381177	260	l	371	381548												5	1	65				neut			450
1 ver1_main_procedure	18	1	21	<?xml version="1.0"?>\n<Clock xmlns:dt="urn:schemas-microsoft-com:datatypes"><Description dt:dt="string">E-Prime Primary Realtime Clock</Description><StartTime><Timestamp dt:dt="int">0</Timestamp><DateUtc dt:dt="string">2015-08-12T13:33:33Z</DateUtc></StartTime><FrequencyChanges><FrequencyChange><Frequency dt:dt="r8">2441416</Frequency><Timestamp dt:dt="r8">27850053268</Timestamp><Current dt:dt="r8">0</Current><DateUtc dt:dt="string">2015-08-12T13:33:33Z</DateUtc></FrequencyChange></FrequencyChanges></Clock>\n	1 ver1_main_procedure-18-1	99.927	1.0.0.880	2	ad	2080734793	prawa	1	2.0.10.356	08-12-2015	2015-08-12 13:33:33	15:33:33	mezczyzna	2.0.10.92	3	3	1	1																							d	{SPACE}		no	BlockProc1		BlockList									66	Free	dl	color_blue.png		0	7	384129	461																								25	prime_left.png	0	383829	0	0	13	0	383829	0	383829	1	383829	20	0	-1	382330	383829	383828	0		TrialProc1	left	0		0	0	0	0		0	0	TrialList1	target_both.png	0	dl	-999999	3	383879	0	l	243	384122												7	1	66				comp			450
1 ver1_main_procedure	18	1	21	<?xml version="1.0"?>\n<Clock xmlns:dt="urn:schemas-microsoft-com:datatypes"><Description dt:dt="string">E-Prime Primary Realtime Clock</Description><StartTime><Timestamp dt:dt="int">0</Timestamp><DateUtc dt:dt="string">2015-08-12T13:33:33Z</DateUtc></StartTime><FrequencyChanges><FrequencyChange><Frequency dt:dt="r8">2441416</Frequency><Timestamp dt:dt="r8">27850053268</Timestamp><Current dt:dt="r8">0</Current><DateUtc dt:dt="string">2015-08-12T13:33:33Z</DateUtc></FrequencyChange></FrequencyChanges></Clock>\n	1 ver1_main_procedure-18-1	99.927	1.0.0.880	2	ad	2080734793	prawa	1	2.0.10.356	08-12-2015	2015-08-12 13:33:33	15:33:33	mezczyzna	2.0.10.92	3	3	1	1																							d	{SPACE}		no	BlockProc1		BlockList									67	Cued	d	color_red.png		0	10	386861	311																								75	prime_left.png	0	386401	0	0	13	0	386401	0	386401	1	386401	20	0	-1	384902	386401	386400	0		TrialProc1	left	0		0	10	386711	-386711		0	0	TrialList1	target_left.png	1	d	0	3	386451	260	d	400	386851												1	1	67				comp			300
1 ver1_main_procedure	18	1	21	<?xml version="1.0"?>\n<Clock xmlns:dt="urn:schemas-microsoft-com:datatypes"><Description dt:dt="string">E-Prime Primary Realtime Clock</Description><StartTime><Timestamp dt:dt="int">0</Timestamp><DateUtc dt:dt="string">2015-08-12T13:33:33Z</DateUtc></StartTime><FrequencyChanges><FrequencyChange><Frequency dt:dt="r8">2441416</Frequency><Timestamp dt:dt="r8">27850053268</Timestamp><Current dt:dt="r8">0</Current><DateUtc dt:dt="string">2015-08-12T13:33:33Z</DateUtc></FrequencyChange></FrequencyChanges></Clock>\n	1 ver1_main_procedure-18-1	99.927	1.0.0.880	2	ad	2080734793	prawa	1	2.0.10.356	08-12-2015	2015-08-12 13:33:33	15:33:33	mezczyzna	2.0.10.92	3	3	1	1																							d	{SPACE}		no	BlockProc1		BlockList									68	Free	dl	color_green.png		0	12	389683	461																								75	prime_right.png	0	388983	0	0	13	0	388983	0	388983	1	388983	20	0	-1	387484	388983	388982	0		TrialProc1	left	0		0	10	389293	-389293		0	0	TrialList1	target_both.png	0	dl	0	3	389033	260	d	638	389671												9	1	68				incomp			450
1 ver1_main_procedure	18	1	21	<?xml version="1.0"?>\n<Clock xmlns:dt="urn:schemas-microsoft-com:datatypes"><Description dt:dt="string">E-Prime Primary Realtime Clock</Description><StartTime><Timestamp dt:dt="int">0</Timestamp><DateUtc dt:dt="string">2015-08-12T13:33:33Z</DateUtc></StartTime><FrequencyChanges><FrequencyChange><Frequency dt:dt="r8">2441416</Frequency><Timestamp dt:dt="r8">27850053268</Timestamp><Current dt:dt="r8">0</Current><DateUtc dt:dt="string">2015-08-12T13:33:33Z</DateUtc></FrequencyChange></FrequencyChanges></Clock>\n	1 ver1_main_procedure-18-1	99.927	1.0.0.880	2	ad	2080734793	prawa	1	2.0.10.356	08-12-2015	2015-08-12 13:33:33	15:33:33	mezczyzna	2.0.10.92	3	3	1	1																							d	{SPACE}		no	BlockProc1		BlockList									69	Cued	d	color_orange.png		0	13	392436	460																			2					75	prime_right.png	0	391955	0	0	13	0	391955	0	391955	1	391955	20	0	-1	390456	391955	391954	0	prime_right.png	TrialProc1	left	0		0	10	392265	-392265		0	0	TrialList1	target_left.png	1	d	0	3	392005	260	d	418	392423												2	1	69				neut			450
1 ver1_main_procedure	18	1	21	<?xml version="1.0"?>\n<Clock xmlns:dt="urn:schemas-microsoft-com:datatypes"><Description dt:dt="string">E-Prime Primary Realtime Clock</Description><StartTime><Timestamp dt:dt="int">0</Timestamp><DateUtc dt:dt="string">2015-08-12T13:33:33Z</DateUtc></StartTime><FrequencyChanges><FrequencyChange><Frequency dt:dt="r8">2441416</Frequency><Timestamp dt:dt="r8">27850053268</Timestamp><Current dt:dt="r8">0</Current><DateUtc dt:dt="string">2015-08-12T13:33:33Z</DateUtc></FrequencyChange></FrequencyChanges></Clock>\n	1 ver1_main_procedure-18-1	99.927	1.0.0.880	2	ad	2080734793	prawa	1	2.0.10.356	08-12-2015	2015-08-12 13:33:33	15:33:33	mezczyzna	2.0.10.92	3	3	1	1																							d	{SPACE}		no	BlockProc1		BlockList									70	Free	dl	color_yellow.png		0	10	395087	161																			1					25	prime_left.png	0	394707	0	0	13	0	394707	0	394707	1	394707	20	0	-1	393208	394707	394706	0	prime_left.png	TrialProc1	right	0		1	10	395017	-395017		0	0	TrialList1	target_both.png	0	dl	0	3	394757	260	l	320	395077												11	1	70				neut			150
1 ver1_main_procedure	18	1	21	<?xml version="1.0"?>\n<Clock xmlns:dt="urn:schemas-microsoft-com:datatypes"><Description dt:dt="string">E-Prime Primary Realtime Clock</Description><StartTime><Timestamp dt:dt="int">0</Timestamp><DateUtc dt:dt="string">2015-08-12T13:33:33Z</DateUtc></StartTime><FrequencyChanges><FrequencyChange><Frequency dt:dt="r8">2441416</Frequency><Timestamp dt:dt="r8">27850053268</Timestamp><Current dt:dt="r8">0</Current><DateUtc dt:dt="string">2015-08-12T13:33:33Z</DateUtc></FrequencyChange></FrequencyChanges></Clock>\n	1 ver1_main_procedure-18-1	99.927	1.0.0.880	2	ad	2080734793	prawa	1	2.0.10.356	08-12-2015	2015-08-12 13:33:33	15:33:33	mezczyzna	2.0.10.92	3	3	1	1																							d	{SPACE}		no	BlockProc1		BlockList									71	Cued	l	color_purple.png		0	13	397519	461																								75	prime_right.png	0	397059	0	0	13	0	397059	0	397059	1	397059	20	0	-1	395560	397059	397058	0		TrialProc1	right	0		0	10	397369	-397369		0	0	TrialList1	target_right.png	1	l	0	3	397109	260	l	397	397506												4	1	71				comp			450
1 ver1_main_procedure	18	1	21	<?xml version="1.0"?>\n<Clock xmlns:dt="urn:schemas-microsoft-com:datatypes"><Description dt:dt="string">E-Prime Primary Realtime Clock</Description><StartTime><Timestamp dt:dt="int">0</Timestamp><DateUtc dt:dt="string">2015-08-12T13:33:33Z</DateUtc></StartTime><FrequencyChanges><FrequencyChange><Frequency dt:dt="r8">2441416</Frequency><Timestamp dt:dt="r8">27850053268</Timestamp><Current dt:dt="r8">0</Current><DateUtc dt:dt="string">2015-08-12T13:33:33Z</DateUtc></FrequencyChange></FrequencyChanges></Clock>\n	1 ver1_main_procedure-18-1	99.927	1.0.0.880	2	ad	2080734793	prawa	1	2.0.10.356	08-12-2015	2015-08-12 13:33:33	15:33:33	mezczyzna	2.0.10.92	3	3	1	1																							d	{SPACE}		no	BlockProc1		BlockList									72	Cued	d	color_orange.png		0	5	400241	461																			2					75	prime_right.png	0	399791	0	0	13	0	399791	0	399791	1	399791	20	0	-1	398292	399791	399790	0	prime_right.png	TrialProc1	left	0		0	10	400101	-400101		0	0	TrialList1	target_left.png	1	d	0	3	399841	260	d	395	400236												2	1	72				neut			450
1 ver1_main_procedure	18	1	21	<?xml version="1.0"?>\n<Clock xmlns:dt="urn:schemas-microsoft-com:datatypes"><Description dt:dt="string">E-Prime Primary Realtime Clock</Description><StartTime><Timestamp dt:dt="int">0</Timestamp><DateUtc dt:dt="string">2015-08-12T13:33:33Z</DateUtc></StartTime><FrequencyChanges><FrequencyChange><Frequency dt:dt="r8">2441416</Frequency><Timestamp dt:dt="r8">27850053268</Timestamp><Current dt:dt="r8">0</Current><DateUtc dt:dt="string">2015-08-12T13:33:33Z</DateUtc></FrequencyChange></FrequencyChanges></Clock>\n	1 ver1_main_procedure-18-1	99.927	1.0.0.880	2	ad	2080734793	prawa	1	2.0.10.356	08-12-2015	2015-08-12 13:33:33	15:33:33	mezczyzna	2.0.10.92	3	3	1	1																							d	{SPACE}		no	BlockProc1		BlockList									73									6	3	5	1	4	2	color_yellow.png	color_orange.png	color_purple.png	color_red.png	color_green.png	color_blue.png	color_red.png	color_blue.png	color_orange.png	color_green.png	color_purple.png	color_yellow.png		1	1	1	21586																						DragProc											Ocena																															
1 ver1_main_procedure	18	1	21	<?xml version="1.0"?>\n<Clock xmlns:dt="urn:schemas-microsoft-com:datatypes"><Description dt:dt="string">E-Prime Primary Realtime Clock</Description><StartTime><Timestamp dt:dt="int">0</Timestamp><DateUtc dt:dt="string">2015-08-12T13:33:33Z</DateUtc></StartTime><FrequencyChanges><FrequencyChange><Frequency dt:dt="r8">2441416</Frequency><Timestamp dt:dt="r8">27850053268</Timestamp><Current dt:dt="r8">0</Current><DateUtc dt:dt="string">2015-08-12T13:33:33Z</DateUtc></FrequencyChange></FrequencyChanges></Clock>\n	1 ver1_main_procedure-18-1	99.927	1.0.0.880	2	ad	2080734793	prawa	1	2.0.10.356	08-12-2015	2015-08-12 13:33:33	15:33:33	mezczyzna	2.0.10.92	3	3	1	1																							d	{SPACE}		no	BlockProc1		BlockList									74															color_yellow.png	color_orange.png	color_purple.png	color_red.png	color_green.png	color_blue.png								2	1	2																							EnterProc											Ocena												15	23	36	50	75	95														
1 ver1_main_procedure	18	1	21	<?xml version="1.0"?>\n<Clock xmlns:dt="urn:schemas-microsoft-com:datatypes"><Description dt:dt="string">E-Prime Primary Realtime Clock</Description><StartTime><Timestamp dt:dt="int">0</Timestamp><DateUtc dt:dt="string">2015-08-12T13:33:33Z</DateUtc></StartTime><FrequencyChanges><FrequencyChange><Frequency dt:dt="r8">2441416</Frequency><Timestamp dt:dt="r8">27850053268</Timestamp><Current dt:dt="r8">0</Current><DateUtc dt:dt="string">2015-08-12T13:33:33Z</DateUtc></FrequencyChange></FrequencyChanges></Clock>\n	1 ver1_main_procedure-18-1	99.927	1.0.0.880	2	ad	2080734793	prawa	1	2.0.10.356	08-12-2015	2015-08-12 13:33:33	15:33:33	mezczyzna	2.0.10.92	4	5	1	2																							d	{SPACE}		no	BlockProc2		BlockList									1	Cued	d	color_red.png		0	9	531518	461																								25	prime_right.png	0	531058	0	0	13	0	531058	0	531058	1	531058	20	0	-1	529559	531058	531057	0		TrialProc1	left	0		0	10	531368	-531368		0	0	TrialList2	target_left.png	1	d	0	3	531108	260	d	401	531509															3	1	1	incomp			450
1 ver1_main_procedure	18	1	21	<?xml version="1.0"?>\n<Clock xmlns:dt="urn:schemas-microsoft-com:datatypes"><Description dt:dt="string">E-Prime Primary Realtime Clock</Description><StartTime><Timestamp dt:dt="int">0</Timestamp><DateUtc dt:dt="string">2015-08-12T13:33:33Z</DateUtc></StartTime><FrequencyChanges><FrequencyChange><Frequency dt:dt="r8">2441416</Frequency><Timestamp dt:dt="r8">27850053268</Timestamp><Current dt:dt="r8">0</Current><DateUtc dt:dt="string">2015-08-12T13:33:33Z</DateUtc></FrequencyChange></FrequencyChanges></Clock>\n	1 ver1_main_procedure-18-1	99.927	1.0.0.880	2	ad	2080734793	prawa	1	2.0.10.356	08-12-2015	2015-08-12 13:33:33	15:33:33	mezczyzna	2.0.10.92	4	5	1	2																							d	{SPACE}		no	BlockProc2		BlockList									2	Cued	d	color_purple.png		0	11	534390	311																			1					75	prime_left.png	0	533790	0	0	13	0	533790	0	533790	1	533790	20	0	-1	532291	533790	533789	0	prime_left.png	TrialProc1	left	0		0	10	534100	-534100		0	0	TrialList2	target_left.png	1	d	0	3	533840	260	d	539	534379															2	1	2	neut			300
1 ver1_main_procedure	18	1	21	<?xml version="1.0"?>\n<Clock xmlns:dt="urn:schemas-microsoft-com:datatypes"><Description dt:dt="string">E-Prime Primary Realtime Clock</Description><StartTime><Timestamp dt:dt="int">0</Timestamp><DateUtc dt:dt="string">2015-08-12T13:33:33Z</DateUtc></StartTime><FrequencyChanges><FrequencyChange><Frequency dt:dt="r8">2441416</Frequency><Timestamp dt:dt="r8">27850053268</Timestamp><Current dt:dt="r8">0</Current><DateUtc dt:dt="string">2015-08-12T13:33:33Z</DateUtc></FrequencyChange></FrequencyChanges></Clock>\n	1 ver1_main_procedure-18-1	99.927	1.0.0.880	2	ad	2080734793	prawa	1	2.0.10.356	08-12-2015	2015-08-12 13:33:33	15:33:33	mezczyzna	2.0.10.92	4	5	1	2																							d	{SPACE}		no	BlockProc2		BlockList									3	Free	dl	color_blue.png		0	13	537102	461																								75	prime_right.png	0	536512	0	0	13	0	536512	0	536512	1	536512	20	0	-1	535013	536512	536511	0		TrialProc1	right	0		0	10	536822	-536822		0	0	TrialList2	target_both.png	0	dl	0	3	536562	260	l	527	537089															10	1	3	comp			450
1 ver1_main_procedure	18	1	21	<?xml version="1.0"?>\n<Clock xmlns:dt="urn:schemas-microsoft-com:datatypes"><Description dt:dt="string">E-Prime Primary Realtime Clock</Description><StartTime><Timestamp dt:dt="int">0</Timestamp><DateUtc dt:dt="string">2015-08-12T13:33:33Z</DateUtc></StartTime><FrequencyChanges><FrequencyChange><Frequency dt:dt="r8">2441416</Frequency><Timestamp dt:dt="r8">27850053268</Timestamp><Current dt:dt="r8">0</Current><DateUtc dt:dt="string">2015-08-12T13:33:33Z</DateUtc></FrequencyChange></FrequencyChanges></Clock>\n	1 ver1_main_procedure-18-1	99.927	1.0.0.880	2	ad	2080734793	prawa	1	2.0.10.356	08-12-2015	2015-08-12 13:33:33	15:33:33	mezczyzna	2.0.10.92	4	5	1	2																							d	{SPACE}		no	BlockProc2		BlockList									4	Free	dl	color_yellow.png		0	12	539994	311																								75	prime_left.png	0	539374	0	0	13	0	539374	0	539374	1	539374	20	0	-1	537875	539374	539373	0		TrialProc1	right	0		0	10	539684	-539684		0	0	TrialList2	target_both.png	0	dl	0	3	539424	260	l	558	539982															12	1	4	incomp			300
1 ver1_main_procedure	18	1	21	<?xml version="1.0"?>\n<Clock xmlns:dt="urn:schemas-microsoft-com:datatypes"><Description dt:dt="string">E-Prime Primary Realtime Clock</Description><StartTime><Timestamp dt:dt="int">0</Timestamp><DateUtc dt:dt="string">2015-08-12T13:33:33Z</DateUtc></StartTime><FrequencyChanges><FrequencyChange><Frequency dt:dt="r8">2441416</Frequency><Timestamp dt:dt="r8">27850053268</Timestamp><Current dt:dt="r8">0</Current><DateUtc dt:dt="string">2015-08-12T13:33:33Z</DateUtc></FrequencyChange></FrequencyChanges></Clock>\n	1 ver1_main_procedure-18-1	99.927	1.0.0.880	2	ad	2080734793	prawa	1	2.0.10.356	08-12-2015	2015-08-12 13:33:33	15:33:33	mezczyzna	2.0.10.92	4	5	1	2																							d	{SPACE}		no	BlockProc2		BlockList									5	Free	dl	color_purple.png		0	11	542767	460																			2					25	prime_right.png	0	542116	0	0	13	0	542116	0	542116	1	542116	20	0	-1	540617	542116	542115	0	prime_right.png	TrialProc1	right	0		0	10	542426	-542426		0	0	TrialList2	target_both.png	0	dl	0	3	542166	260	d	590	542756															11	1	5	neut			450
1 ver1_main_procedure	18	1	21	<?xml version="1.0"?>\n<Clock xmlns:dt="urn:schemas-microsoft-com:datatypes"><Description dt:dt="string">E-Prime Primary Realtime Clock</Description><StartTime><Timestamp dt:dt="int">0</Timestamp><DateUtc dt:dt="string">2015-08-12T13:33:33Z</DateUtc></StartTime><FrequencyChanges><FrequencyChange><Frequency dt:dt="r8">2441416</Frequency><Timestamp dt:dt="r8">27850053268</Timestamp><Current dt:dt="r8">0</Current><DateUtc dt:dt="string">2015-08-12T13:33:33Z</DateUtc></FrequencyChange></FrequencyChanges></Clock>\n	1 ver1_main_procedure-18-1	99.927	1.0.0.880	2	ad	2080734793	prawa	1	2.0.10.356	08-12-2015	2015-08-12 13:33:33	15:33:33	mezczyzna	2.0.10.92	4	5	1	2																							d	{SPACE}		no	BlockProc2		BlockList									6	Free	dl	color_yellow.png		0	9	545639	160																								75	prime_left.png	0	545038	0	0	13	0	545038	0	545038	1	545038	20	0	-1	543539	545038	545037	0		TrialProc1	left	0		1	10	545348	-545348		0	0	TrialList2	target_both.png	0	dl	0	3	545088	260	l	542	545630															7	1	6	comp			150
1 ver1_main_procedure	18	1	21	<?xml version="1.0"?>\n<Clock xmlns:dt="urn:schemas-microsoft-com:datatypes"><Description dt:dt="string">E-Prime Primary Realtime Clock</Description><StartTime><Timestamp dt:dt="int">0</Timestamp><DateUtc dt:dt="string">2015-08-12T13:33:33Z</DateUtc></StartTime><FrequencyChanges><FrequencyChange><Frequency dt:dt="r8">2441416</Frequency><Timestamp dt:dt="r8">27850053268</Timestamp><Current dt:dt="r8">0</Current><DateUtc dt:dt="string">2015-08-12T13:33:33Z</DateUtc></FrequencyChange></FrequencyChanges></Clock>\n	1 ver1_main_procedure-18-1	99.927	1.0.0.880	2	ad	2080734793	prawa	1	2.0.10.356	08-12-2015	2015-08-12 13:33:33	15:33:33	mezczyzna	2.0.10.92	4	5	1	2																							d	{SPACE}		no	BlockProc2		BlockList									7	Free	dl	color_purple.png		0	11	548481	460																			1					75	prime_left.png	0	547610	0	0	13	0	547610	0	547610	1	547610	20	0	-1	546111	547610	547609	0	prime_left.png	TrialProc1	right	0		0	10	547920	-547920		0	0	TrialList2	target_both.png	0	dl	0	3	547660	260	d	810	548470															11	1	7	neut			450
1 ver1_main_procedure	18	1	21	<?xml version="1.0"?>\n<Clock xmlns:dt="urn:schemas-microsoft-com:datatypes"><Description dt:dt="string">E-Prime Primary Realtime Clock</Description><StartTime><Timestamp dt:dt="int">0</Timestamp><DateUtc dt:dt="string">2015-08-12T13:33:33Z</DateUtc></StartTime><FrequencyChanges><FrequencyChange><Frequency dt:dt="r8">2441416</Frequency><Timestamp dt:dt="r8">27850053268</Timestamp><Current dt:dt="r8">0</Current><DateUtc dt:dt="string">2015-08-12T13:33:33Z</DateUtc></FrequencyChange></FrequencyChanges></Clock>\n	1 ver1_main_procedure-18-1	99.927	1.0.0.880	2	ad	2080734793	prawa	1	2.0.10.356	08-12-2015	2015-08-12 13:33:33	15:33:33	mezczyzna	2.0.10.92	4	5	1	2																							d	{SPACE}		no	BlockProc2		BlockList									8	Free	dl	color_yellow.png		0	9	551853	160																								25	prime_left.png	1	550753	0	0	13	1	550753	1	550753	1	550752	20	0	-1	549254	550752	550751	0		TrialProc1	right	0		0	11	551063	-551063		0	0	TrialList2	target_both.png	0	dl	0	3	550802	261	l	1042	551844															12	1	8	incomp			150
1 ver1_main_procedure	18	1	21	<?xml version="1.0"?>\n<Clock xmlns:dt="urn:schemas-microsoft-com:datatypes"><Description dt:dt="string">E-Prime Primary Realtime Clock</Description><StartTime><Timestamp dt:dt="int">0</Timestamp><DateUtc dt:dt="string">2015-08-12T13:33:33Z</DateUtc></StartTime><FrequencyChanges><FrequencyChange><Frequency dt:dt="r8">2441416</Frequency><Timestamp dt:dt="r8">27850053268</Timestamp><Current dt:dt="r8">0</Current><DateUtc dt:dt="string">2015-08-12T13:33:33Z</DateUtc></FrequencyChange></FrequencyChanges></Clock>\n	1 ver1_main_procedure-18-1	99.927	1.0.0.880	2	ad	2080734793	prawa	1	2.0.10.356	08-12-2015	2015-08-12 13:33:33	15:33:33	mezczyzna	2.0.10.92	4	5	1	2																							d	{SPACE}		no	BlockProc2		BlockList									9	Cued	l	color_yellow.png		0	8	554425	310																								75	prime_left.png	0	553825	0	0	13	0	553825	0	553825	1	553825	20	0	-1	552326	553825	553824	0		TrialProc1	right	0		0	10	554135	-554135		0	0	TrialList2	target_right.png	1	l	0	3	553875	260	l	542	554417															6	1	9	incomp			300
