ExperimentName	Subject	Session	Age	Clock.Information	DataFile.Basename	Display.RefreshRate	ExperimentVersion	Group	Name	RandomSeed	Recznosc	ResearcherID	RuntimeVersion	SessionDate	SessionStartDateTimeUtc	SessionTime	Sex	StudioVersion	Block	BlockList	BlockList.Cycle	BlockList.Sample	BlockNumber	GoodBye.RESP	GoodBye2.RESP	GoodByeList	GoodByeList.Cycle	GoodByeList.Sample	InstrList	InstrList.Cycle	InstrList.Sample	Instructions3.RESP	Instructions4.RESP	Instructions5.RESP	kobieta_S1	kobieta_S2	kobieta_S3	kobieta_S4	kobieta_S5	mezczyzna_S1	mezczyzna_S2	mezczyzna_S3	mezczyzna_S4	mezczyzna_S5	NextBlock.RESP	NextBlock0.RESP	planowanie	PracticeMode	Procedure[Block]	proszenie	Running[Block]	TrainingList	TrainingList.Cycle	TrainingList.Sample	WordList	WordList1	wykonanie	zauwazenie	zrozumienie	Trial	ChoiceType	CorrectRespon	Effect	ErrorText	Fixation2.DurationError	Fixation2.OnsetDelay	Fixation2.OnsetTime	Fixation2.OnsetToOnsetTime	GoalRespInd1	GoalRespInd2	GoalRespInd3	GoalRespInd4	GoalRespInd5	GoalRespInd6	GoalRespName1	GoalRespName2	GoalRespName3	GoalRespName4	GoalRespName5	GoalRespName6	kol1	kol2	kol3	kol4	kol5	kol6	NeutralPrimeList1	Ocena	Ocena.Cycle	Ocena.Sample	OverallRT	Posit	Prime	Prime.ActionDelay	Prime.ActionTime	Prime.CustomOffsetTime	Prime.CustomOnsetTime	Prime.Duration	Prime.DurationError	Prime.FinishTime	Prime.OffsetDelay	Prime.OffsetTime	Prime.OnsetDelay	Prime.OnsetTime	Prime.OnsetToOnsetTime	Prime.PendingInputMasks	Prime.PreRelease	Prime.StartTime	Prime.TargetOffsetTime	Prime.TargetOnsetTime	Prime.TimingMode	PrimeChoice	Procedure[Trial]	Resp	RespWin.ACC	RespWin.CRESP	RespWin.DurationError	RespWin.OnsetDelay	RespWin.OnsetTime	RespWin.OnsetToOnsetTime	RespWin.RESP	RespWin.RT	RespWin.RTTime	Running[Trial]	Target	TargetSlide.ACC	TargetSlide.CRESP	TargetSlide.DurationError	TargetSlide.OnsetDelay	TargetSlide.OnsetTime	TargetSlide.OnsetToOnsetTime	TargetSlide.RESP	TargetSlide.RT	TargetSlide.RTTime	TargetTraining	TBox1	TBox2	TBox3	TBox4	TBox5	TBox6	TrainingList1	TrainingList1.Cycle	TrainingList1.Sample	TrCorrectResp	TrialList1	TrialList1.Cycle	TrialList1.Sample	TrialList2	TrialList2.Cycle	TrialList2.Sample	TrialType	TrPosit	TrWaitTime	WaitTime
1 ver1_main_procedure	2	1	21	<?xml version="1.0"?>\n<Clock xmlns:dt="urn:schemas-microsoft-com:datatypes"><Description dt:dt="string">E-Prime Primary Realtime Clock</Description><StartTime><Timestamp dt:dt="int">0</Timestamp><DateUtc dt:dt="string">2015-08-07T13:35:18Z</DateUtc></StartTime><FrequencyChanges><FrequencyChange><Frequency dt:dt="r8">2612324</Frequency><Timestamp dt:dt="r8">47334296531</Timestamp><Current dt:dt="r8">0</Current><DateUtc dt:dt="string">2015-08-07T13:35:18Z</DateUtc></FrequencyChange></FrequencyChanges></Clock>\n	1 ver1_main_procedure-2-1	99.935	1.0.0.880	2	as	90156507	prawa	1	2.0.10.182	08-07-2015	2015-08-07 13:35:19	15:35:19	mezczyzna	2.0.10.92	1										1	1	1	{SPACE}	{SPACE}	l	poproszona	planowała	zrozumiałaś	wykonała		poproszony	planował	zrozumiałeś	wykonał				planował		InstrProc	poproszony	InstrList				1		wykonał		zrozumiałeś																																																																																																
1 ver1_main_procedure	2	1	21	<?xml version="1.0"?>\n<Clock xmlns:dt="urn:schemas-microsoft-com:datatypes"><Description dt:dt="string">E-Prime Primary Realtime Clock</Description><StartTime><Timestamp dt:dt="int">0</Timestamp><DateUtc dt:dt="string">2015-08-07T13:35:18Z</DateUtc></StartTime><FrequencyChanges><FrequencyChange><Frequency dt:dt="r8">2612324</Frequency><Timestamp dt:dt="r8">47334296531</Timestamp><Current dt:dt="r8">0</Current><DateUtc dt:dt="string">2015-08-07T13:35:18Z</DateUtc></FrequencyChange></FrequencyChanges></Clock>\n	1 ver1_main_procedure-2-1	99.935	1.0.0.880	2	as	90156507	prawa	1	2.0.10.182	08-07-2015	2015-08-07 13:35:19	15:35:19	mezczyzna	2.0.10.92	2																														TrainingProc1		TrainingList	1	1	1						1																																																					TrainProc											TrainingList1											target_both.png							3	1	1	dl								75	150	
1 ver1_main_procedure	2	1	21	<?xml version="1.0"?>\n<Clock xmlns:dt="urn:schemas-microsoft-com:datatypes"><Description dt:dt="string">E-Prime Primary Realtime Clock</Description><StartTime><Timestamp dt:dt="int">0</Timestamp><DateUtc dt:dt="string">2015-08-07T13:35:18Z</DateUtc></StartTime><FrequencyChanges><FrequencyChange><Frequency dt:dt="r8">2612324</Frequency><Timestamp dt:dt="r8">47334296531</Timestamp><Current dt:dt="r8">0</Current><DateUtc dt:dt="string">2015-08-07T13:35:18Z</DateUtc></FrequencyChange></FrequencyChanges></Clock>\n	1 ver1_main_procedure-2-1	99.935	1.0.0.880	2	as	90156507	prawa	1	2.0.10.182	08-07-2015	2015-08-07 13:35:19	15:35:19	mezczyzna	2.0.10.92	2																														TrainingProc1		TrainingList	1	1	1						2																																																					TrainProc											TrainingList1											target_right.png							2	1	2	l								75	150	
1 ver1_main_procedure	2	1	21	<?xml version="1.0"?>\n<Clock xmlns:dt="urn:schemas-microsoft-com:datatypes"><Description dt:dt="string">E-Prime Primary Realtime Clock</Description><StartTime><Timestamp dt:dt="int">0</Timestamp><DateUtc dt:dt="string">2015-08-07T13:35:18Z</DateUtc></StartTime><FrequencyChanges><FrequencyChange><Frequency dt:dt="r8">2612324</Frequency><Timestamp dt:dt="r8">47334296531</Timestamp><Current dt:dt="r8">0</Current><DateUtc dt:dt="string">2015-08-07T13:35:18Z</DateUtc></FrequencyChange></FrequencyChanges></Clock>\n	1 ver1_main_procedure-2-1	99.935	1.0.0.880	2	as	90156507	prawa	1	2.0.10.182	08-07-2015	2015-08-07 13:35:19	15:35:19	mezczyzna	2.0.10.92	2																														TrainingProc1		TrainingList	1	1	1						3																																																					TrainProc											TrainingList1											target_left.png							1	1	3	d								75	300	
1 ver1_main_procedure	2	1	21	<?xml version="1.0"?>\n<Clock xmlns:dt="urn:schemas-microsoft-com:datatypes"><Description dt:dt="string">E-Prime Primary Realtime Clock</Description><StartTime><Timestamp dt:dt="int">0</Timestamp><DateUtc dt:dt="string">2015-08-07T13:35:18Z</DateUtc></StartTime><FrequencyChanges><FrequencyChange><Frequency dt:dt="r8">2612324</Frequency><Timestamp dt:dt="r8">47334296531</Timestamp><Current dt:dt="r8">0</Current><DateUtc dt:dt="string">2015-08-07T13:35:18Z</DateUtc></FrequencyChange></FrequencyChanges></Clock>\n	1 ver1_main_procedure-2-1	99.935	1.0.0.880	2	as	90156507	prawa	1	2.0.10.182	08-07-2015	2015-08-07 13:35:19	15:35:19	mezczyzna	2.0.10.92	2																														TrainingProc1		TrainingList	1	1	1						4																																																					TrainProc											TrainingList1											target_both.png							3	1	4	dl								25	150	
1 ver1_main_procedure	2	1	21	<?xml version="1.0"?>\n<Clock xmlns:dt="urn:schemas-microsoft-com:datatypes"><Description dt:dt="string">E-Prime Primary Realtime Clock</Description><StartTime><Timestamp dt:dt="int">0</Timestamp><DateUtc dt:dt="string">2015-08-07T13:35:18Z</DateUtc></StartTime><FrequencyChanges><FrequencyChange><Frequency dt:dt="r8">2612324</Frequency><Timestamp dt:dt="r8">47334296531</Timestamp><Current dt:dt="r8">0</Current><DateUtc dt:dt="string">2015-08-07T13:35:18Z</DateUtc></FrequencyChange></FrequencyChanges></Clock>\n	1 ver1_main_procedure-2-1	99.935	1.0.0.880	2	as	90156507	prawa	1	2.0.10.182	08-07-2015	2015-08-07 13:35:19	15:35:19	mezczyzna	2.0.10.92	2																														TrainingProc1		TrainingList	1	1	1						5																																																					TrainProc											TrainingList1											target_right.png							2	1	5	l								25	150	
1 ver1_main_procedure	2	1	21	<?xml version="1.0"?>\n<Clock xmlns:dt="urn:schemas-microsoft-com:datatypes"><Description dt:dt="string">E-Prime Primary Realtime Clock</Description><StartTime><Timestamp dt:dt="int">0</Timestamp><DateUtc dt:dt="string">2015-08-07T13:35:18Z</DateUtc></StartTime><FrequencyChanges><FrequencyChange><Frequency dt:dt="r8">2612324</Frequency><Timestamp dt:dt="r8">47334296531</Timestamp><Current dt:dt="r8">0</Current><DateUtc dt:dt="string">2015-08-07T13:35:18Z</DateUtc></FrequencyChange></FrequencyChanges></Clock>\n	1 ver1_main_procedure-2-1	99.935	1.0.0.880	2	as	90156507	prawa	1	2.0.10.182	08-07-2015	2015-08-07 13:35:19	15:35:19	mezczyzna	2.0.10.92	2																														TrainingProc1		TrainingList	1	1	1						6																																																					TrainProc											TrainingList1											target_left.png							1	1	6	d								75	150	
1 ver1_main_procedure	2	1	21	<?xml version="1.0"?>\n<Clock xmlns:dt="urn:schemas-microsoft-com:datatypes"><Description dt:dt="string">E-Prime Primary Realtime Clock</Description><StartTime><Timestamp dt:dt="int">0</Timestamp><DateUtc dt:dt="string">2015-08-07T13:35:18Z</DateUtc></StartTime><FrequencyChanges><FrequencyChange><Frequency dt:dt="r8">2612324</Frequency><Timestamp dt:dt="r8">47334296531</Timestamp><Current dt:dt="r8">0</Current><DateUtc dt:dt="string">2015-08-07T13:35:18Z</DateUtc></FrequencyChange></FrequencyChanges></Clock>\n	1 ver1_main_procedure-2-1	99.935	1.0.0.880	2	as	90156507	prawa	1	2.0.10.182	08-07-2015	2015-08-07 13:35:19	15:35:19	mezczyzna	2.0.10.92	2																														TrainingProc1		TrainingList	1	1	1						7																																																					TrainProc											TrainingList1											target_left.png							1	1	7	d								25	450	
1 ver1_main_procedure	2	1	21	<?xml version="1.0"?>\n<Clock xmlns:dt="urn:schemas-microsoft-com:datatypes"><Description dt:dt="string">E-Prime Primary Realtime Clock</Description><StartTime><Timestamp dt:dt="int">0</Timestamp><DateUtc dt:dt="string">2015-08-07T13:35:18Z</DateUtc></StartTime><FrequencyChanges><FrequencyChange><Frequency dt:dt="r8">2612324</Frequency><Timestamp dt:dt="r8">47334296531</Timestamp><Current dt:dt="r8">0</Current><DateUtc dt:dt="string">2015-08-07T13:35:18Z</DateUtc></FrequencyChange></FrequencyChanges></Clock>\n	1 ver1_main_procedure-2-1	99.935	1.0.0.880	2	as	90156507	prawa	1	2.0.10.182	08-07-2015	2015-08-07 13:35:19	15:35:19	mezczyzna	2.0.10.92	2																														TrainingProc1		TrainingList	1	1	1						8																																																					TrainProc											TrainingList1											target_right.png							2	1	8	l								25	300	
1 ver1_main_procedure	2	1	21	<?xml version="1.0"?>\n<Clock xmlns:dt="urn:schemas-microsoft-com:datatypes"><Description dt:dt="string">E-Prime Primary Realtime Clock</Description><StartTime><Timestamp dt:dt="int">0</Timestamp><DateUtc dt:dt="string">2015-08-07T13:35:18Z</DateUtc></StartTime><FrequencyChanges><FrequencyChange><Frequency dt:dt="r8">2612324</Frequency><Timestamp dt:dt="r8">47334296531</Timestamp><Current dt:dt="r8">0</Current><DateUtc dt:dt="string">2015-08-07T13:35:18Z</DateUtc></FrequencyChange></FrequencyChanges></Clock>\n	1 ver1_main_procedure-2-1	99.935	1.0.0.880	2	as	90156507	prawa	1	2.0.10.182	08-07-2015	2015-08-07 13:35:19	15:35:19	mezczyzna	2.0.10.92	2																														TrainingProc1		TrainingList	1	1	1						9																																																					TrainProc											TrainingList1											target_both.png							3	1	9	dl								25	150	
1 ver1_main_procedure	2	1	21	<?xml version="1.0"?>\n<Clock xmlns:dt="urn:schemas-microsoft-com:datatypes"><Description dt:dt="string">E-Prime Primary Realtime Clock</Description><StartTime><Timestamp dt:dt="int">0</Timestamp><DateUtc dt:dt="string">2015-08-07T13:35:18Z</DateUtc></StartTime><FrequencyChanges><FrequencyChange><Frequency dt:dt="r8">2612324</Frequency><Timestamp dt:dt="r8">47334296531</Timestamp><Current dt:dt="r8">0</Current><DateUtc dt:dt="string">2015-08-07T13:35:18Z</DateUtc></FrequencyChange></FrequencyChanges></Clock>\n	1 ver1_main_procedure-2-1	99.935	1.0.0.880	2	as	90156507	prawa	1	2.0.10.182	08-07-2015	2015-08-07 13:35:19	15:35:19	mezczyzna	2.0.10.92	3	3	1	1																							l	{SPACE}		no	BlockProc1		BlockList									1	Cued	l	color_red.png		-1	8	311861	160																								75	prime_left.png	0	311311	0	0	13	0	311311	0	311311	1	311311	20	0	-1	309812	311311	311310	0		TrialProc1	right	0		0	20	311631	-311631		0	0	TrialList1	target_right.png	1	l	-1	3	311361	270	l	491	311852												6	1	1				incomp			150
1 ver1_main_procedure	2	1	21	<?xml version="1.0"?>\n<Clock xmlns:dt="urn:schemas-microsoft-com:datatypes"><Description dt:dt="string">E-Prime Primary Realtime Clock</Description><StartTime><Timestamp dt:dt="int">0</Timestamp><DateUtc dt:dt="string">2015-08-07T13:35:18Z</DateUtc></StartTime><FrequencyChanges><FrequencyChange><Frequency dt:dt="r8">2612324</Frequency><Timestamp dt:dt="r8">47334296531</Timestamp><Current dt:dt="r8">0</Current><DateUtc dt:dt="string">2015-08-07T13:35:18Z</DateUtc></FrequencyChange></FrequencyChanges></Clock>\n	1 ver1_main_procedure-2-1	99.935	1.0.0.880	2	as	90156507	prawa	1	2.0.10.182	08-07-2015	2015-08-07 13:35:19	15:35:19	mezczyzna	2.0.10.92	3	3	1	1																							l	{SPACE}		no	BlockProc1		BlockList									2	Free	dl	color_red.png		-1	12	314513	460																								75	prime_left.png	0	313832	0	0	13	1	313833	1	313833	1	313832	20	0	-1	312333	313832	313831	0		TrialProc1	right	0		0	11	314143	-314143		0	0	TrialList1	target_both.png	0	dl	-1	3	313882	261	l	618	314500												12	1	2				incomp			450
1 ver1_main_procedure	2	1	21	<?xml version="1.0"?>\n<Clock xmlns:dt="urn:schemas-microsoft-com:datatypes"><Description dt:dt="string">E-Prime Primary Realtime Clock</Description><StartTime><Timestamp dt:dt="int">0</Timestamp><DateUtc dt:dt="string">2015-08-07T13:35:18Z</DateUtc></StartTime><FrequencyChanges><FrequencyChange><Frequency dt:dt="r8">2612324</Frequency><Timestamp dt:dt="r8">47334296531</Timestamp><Current dt:dt="r8">0</Current><DateUtc dt:dt="string">2015-08-07T13:35:18Z</DateUtc></FrequencyChange></FrequencyChanges></Clock>\n	1 ver1_main_procedure-2-1	99.935	1.0.0.880	2	as	90156507	prawa	1	2.0.10.182	08-07-2015	2015-08-07 13:35:19	15:35:19	mezczyzna	2.0.10.92	3	3	1	1																							l	{SPACE}		no	BlockProc1		BlockList									3	Cued	l	color_blue.png		-1	13	317354	461																			1					25	prime_left.png	0	316784	0	0	13	0	316784	0	316784	1	316784	20	0	-1	315285	316784	316783	0	prime_left.png	TrialProc1	right	0		0	10	317094	-317094		0	0	TrialList1	target_right.png	1	l	-1	3	316834	260	l	506	317340												5	1	3				neut			450
1 ver1_main_procedure	2	1	21	<?xml version="1.0"?>\n<Clock xmlns:dt="urn:schemas-microsoft-com:datatypes"><Description dt:dt="string">E-Prime Primary Realtime Clock</Description><StartTime><Timestamp dt:dt="int">0</Timestamp><DateUtc dt:dt="string">2015-08-07T13:35:18Z</DateUtc></StartTime><FrequencyChanges><FrequencyChange><Frequency dt:dt="r8">2612324</Frequency><Timestamp dt:dt="r8">47334296531</Timestamp><Current dt:dt="r8">0</Current><DateUtc dt:dt="string">2015-08-07T13:35:18Z</DateUtc></FrequencyChange></FrequencyChanges></Clock>\n	1 ver1_main_procedure-2-1	99.935	1.0.0.880	2	as	90156507	prawa	1	2.0.10.182	08-07-2015	2015-08-07 13:35:19	15:35:19	mezczyzna	2.0.10.92	3	3	1	1																							l	{SPACE}		no	BlockProc1		BlockList									4	Cued	d	color_orange.png		-1	13	320186	160																			2					75	prime_right.png	0	319626	0	0	13	0	319626	0	319626	1	319626	20	0	-1	318127	319626	319625	0	prime_right.png	TrialProc1	left	0		0	10	319936	-319936		0	0	TrialList1	target_left.png	1	d	-1	3	319676	260	d	496	320172												2	1	4				neut			150
1 ver1_main_procedure	2	1	21	<?xml version="1.0"?>\n<Clock xmlns:dt="urn:schemas-microsoft-com:datatypes"><Description dt:dt="string">E-Prime Primary Realtime Clock</Description><StartTime><Timestamp dt:dt="int">0</Timestamp><DateUtc dt:dt="string">2015-08-07T13:35:18Z</DateUtc></StartTime><FrequencyChanges><FrequencyChange><Frequency dt:dt="r8">2612324</Frequency><Timestamp dt:dt="r8">47334296531</Timestamp><Current dt:dt="r8">0</Current><DateUtc dt:dt="string">2015-08-07T13:35:18Z</DateUtc></FrequencyChange></FrequencyChanges></Clock>\n	1 ver1_main_procedure-2-1	99.935	1.0.0.880	2	as	90156507	prawa	1	2.0.10.182	08-07-2015	2015-08-07 13:35:19	15:35:19	mezczyzna	2.0.10.92	3	3	1	1																							l	{SPACE}		no	BlockProc1		BlockList									5	Free	dl	color_yellow.png		-1	7	322788	310																								25	prime_right.png	0	322157	0	0	13	0	322157	0	322157	1	322157	20	0	-1	320658	322157	322156	0		TrialProc1	right	0		0	11	322468	-322468		0	0	TrialList1	target_both.png	0	dl	-1	3	322207	261	l	573	322780												10	1	5				comp			300
1 ver1_main_procedure	2	1	21	<?xml version="1.0"?>\n<Clock xmlns:dt="urn:schemas-microsoft-com:datatypes"><Description dt:dt="string">E-Prime Primary Realtime Clock</Description><StartTime><Timestamp dt:dt="int">0</Timestamp><DateUtc dt:dt="string">2015-08-07T13:35:18Z</DateUtc></StartTime><FrequencyChanges><FrequencyChange><Frequency dt:dt="r8">2612324</Frequency><Timestamp dt:dt="r8">47334296531</Timestamp><Current dt:dt="r8">0</Current><DateUtc dt:dt="string">2015-08-07T13:35:18Z</DateUtc></FrequencyChange></FrequencyChanges></Clock>\n	1 ver1_main_procedure-2-1	99.935	1.0.0.880	2	as	90156507	prawa	1	2.0.10.182	08-07-2015	2015-08-07 13:35:19	15:35:19	mezczyzna	2.0.10.92	3	3	1	1																							l	{SPACE}		no	BlockProc1		BlockList									6	Cued	l	color_blue.png		-1	8	325429	160																			1					75	prime_left.png	0	324909	0	0	13	0	324909	0	324909	1	324909	20	0	-1	323410	324909	324908	0	prime_left.png	TrialProc1	right	0		0	10	325219	-325219		0	0	TrialList1	target_right.png	1	l	-1	3	324959	260	l	461	325420												5	1	6				neut			150
1 ver1_main_procedure	2	1	21	<?xml version="1.0"?>\n<Clock xmlns:dt="urn:schemas-microsoft-com:datatypes"><Description dt:dt="string">E-Prime Primary Realtime Clock</Description><StartTime><Timestamp dt:dt="int">0</Timestamp><DateUtc dt:dt="string">2015-08-07T13:35:18Z</DateUtc></StartTime><FrequencyChanges><FrequencyChange><Frequency dt:dt="r8">2612324</Frequency><Timestamp dt:dt="r8">47334296531</Timestamp><Current dt:dt="r8">0</Current><DateUtc dt:dt="string">2015-08-07T13:35:18Z</DateUtc></FrequencyChange></FrequencyChanges></Clock>\n	1 ver1_main_procedure-2-1	99.935	1.0.0.880	2	as	90156507	prawa	1	2.0.10.182	08-07-2015	2015-08-07 13:35:19	15:35:19	mezczyzna	2.0.10.92	3	3	1	1																							l	{SPACE}		no	BlockProc1		BlockList									7	Cued	d	color_purple.png		-1	8	327941	460																								75	prime_right.png	0	327400	0	0	13	0	327401	0	327400	0	327400	20	0	-1	325901	327400	327400	0		TrialProc1	left	0		0	11	327711	-327711		0	0	TrialList1	target_left.png	1	d	-1	3	327450	261	d	482	327932												3	1	7				incomp			450
1 ver1_main_procedure	2	1	21	<?xml version="1.0"?>\n<Clock xmlns:dt="urn:schemas-microsoft-com:datatypes"><Description dt:dt="string">E-Prime Primary Realtime Clock</Description><StartTime><Timestamp dt:dt="int">0</Timestamp><DateUtc dt:dt="string">2015-08-07T13:35:18Z</DateUtc></StartTime><FrequencyChanges><FrequencyChange><Frequency dt:dt="r8">2612324</Frequency><Timestamp dt:dt="r8">47334296531</Timestamp><Current dt:dt="r8">0</Current><DateUtc dt:dt="string">2015-08-07T13:35:18Z</DateUtc></FrequencyChange></FrequencyChanges></Clock>\n	1 ver1_main_procedure-2-1	99.935	1.0.0.880	2	as	90156507	prawa	1	2.0.10.182	08-07-2015	2015-08-07 13:35:19	15:35:19	mezczyzna	2.0.10.92	3	3	1	1																							l	{SPACE}		no	BlockProc1		BlockList									8	Cued	d	color_purple.png		-1	7	330732	160																								25	prime_right.png	0	330212	0	0	13	0	330212	0	330212	1	330212	20	0	-1	328713	330212	330211	0		TrialProc1	left	0		0	10	330522	-330522		0	0	TrialList1	target_left.png	1	d	-1	3	330262	260	d	462	330724												3	1	8				incomp			150
1 ver1_main_procedure	2	1	21	<?xml version="1.0"?>\n<Clock xmlns:dt="urn:schemas-microsoft-com:datatypes"><Description dt:dt="string">E-Prime Primary Realtime Clock</Description><StartTime><Timestamp dt:dt="int">0</Timestamp><DateUtc dt:dt="string">2015-08-07T13:35:18Z</DateUtc></StartTime><FrequencyChanges><FrequencyChange><Frequency dt:dt="r8">2612324</Frequency><Timestamp dt:dt="r8">47334296531</Timestamp><Current dt:dt="r8">0</Current><DateUtc dt:dt="string">2015-08-07T13:35:18Z</DateUtc></FrequencyChange></FrequencyChanges></Clock>\n	1 ver1_main_procedure-2-1	99.935	1.0.0.880	2	as	90156507	prawa	1	2.0.10.182	08-07-2015	2015-08-07 13:35:19	15:35:19	mezczyzna	2.0.10.92	3	3	1	1																							l	{SPACE}		no	BlockProc1		BlockList									9	Cued	d	color_green.png		-1	7	333244	310																								25	prime_left.png	0	332704	0	0	13	0	332704	0	332704	1	332704	19	0	-1	331204	332704	332703	0		TrialProc1	left	0		0	11	333014	-333014		0	0	TrialList1	target_left.png	1	d	-1	3	332753	261	d	483	333236												1	1	9				comp			300
1 ver1_main_procedure	2	1	21	<?xml version="1.0"?>\n<Clock xmlns:dt="urn:schemas-microsoft-com:datatypes"><Description dt:dt="string">E-Prime Primary Realtime Clock</Description><StartTime><Timestamp dt:dt="int">0</Timestamp><DateUtc dt:dt="string">2015-08-07T13:35:18Z</DateUtc></StartTime><FrequencyChanges><FrequencyChange><Frequency dt:dt="r8">2612324</Frequency><Timestamp dt:dt="r8">47334296531</Timestamp><Current dt:dt="r8">0</Current><DateUtc dt:dt="string">2015-08-07T13:35:18Z</DateUtc></FrequencyChange></FrequencyChanges></Clock>\n	1 ver1_main_procedure-2-1	99.935	1.0.0.880	2	as	90156507	prawa	1	2.0.10.182	08-07-2015	2015-08-07 13:35:19	15:35:19	mezczyzna	2.0.10.92	3	3	1	1																							l	{SPACE}		no	BlockProc1		BlockList									10	Cued	d	color_green.png		-1	8	335845	160																								75	prime_left.png	1	335366	0	0	13	1	335366	1	335366	1	335365	20	0	-1	333866	335365	335364	0		TrialProc1	left	0		0	10	335675	-335675		0	0	TrialList1	target_left.png	1	d	-1	3	335415	260	d	421	335836												1	1	10				comp			150
1 ver1_main_procedure	2	1	21	<?xml version="1.0"?>\n<Clock xmlns:dt="urn:schemas-microsoft-com:datatypes"><Description dt:dt="string">E-Prime Primary Realtime Clock</Description><StartTime><Timestamp dt:dt="int">0</Timestamp><DateUtc dt:dt="string">2015-08-07T13:35:18Z</DateUtc></StartTime><FrequencyChanges><FrequencyChange><Frequency dt:dt="r8">2612324</Frequency><Timestamp dt:dt="r8">47334296531</Timestamp><Current dt:dt="r8">0</Current><DateUtc dt:dt="string">2015-08-07T13:35:18Z</DateUtc></FrequencyChange></FrequencyChanges></Clock>\n	1 ver1_main_procedure-2-1	99.935	1.0.0.880	2	as	90156507	prawa	1	2.0.10.182	08-07-2015	2015-08-07 13:35:19	15:35:19	mezczyzna	2.0.10.92	3	3	1	1																							l	{SPACE}		no	BlockProc1		BlockList									11	Free	dl	color_blue.png		-1	8	338357	160																			2					25	prime_right.png	1	337817	0	0	13	1	337817	1	337817	0	337816	20	0	-1	336317	337816	337816	0	prime_right.png	TrialProc1	left	0		0	11	338127	-338127		0	0	TrialList1	target_both.png	0	dl	-1	3	337866	261	l	482	338348												8	1	11				neut			150
1 ver1_main_procedure	2	1	21	<?xml version="1.0"?>\n<Clock xmlns:dt="urn:schemas-microsoft-com:datatypes"><Description dt:dt="string">E-Prime Primary Realtime Clock</Description><StartTime><Timestamp dt:dt="int">0</Timestamp><DateUtc dt:dt="string">2015-08-07T13:35:18Z</DateUtc></StartTime><FrequencyChanges><FrequencyChange><Frequency dt:dt="r8">2612324</Frequency><Timestamp dt:dt="r8">47334296531</Timestamp><Current dt:dt="r8">0</Current><DateUtc dt:dt="string">2015-08-07T13:35:18Z</DateUtc></FrequencyChange></FrequencyChanges></Clock>\n	1 ver1_main_procedure-2-1	99.935	1.0.0.880	2	as	90156507	prawa	1	2.0.10.182	08-07-2015	2015-08-07 13:35:19	15:35:19	mezczyzna	2.0.10.92	3	3	1	1																							l	{SPACE}		no	BlockProc1		BlockList									12	Cued	l	color_yellow.png		-1	5	340858	160																								75	prime_right.png	0	340328	0	0	13	0	340328	0	340328	1	340328	20	0	-1	338829	340328	340327	0		TrialProc1	right	0		0	10	340638	-340638		0	0	TrialList1	target_right.png	1	l	-1	3	340378	260	l	474	340852												4	1	12				comp			150
1 ver1_main_procedure	2	1	21	<?xml version="1.0"?>\n<Clock xmlns:dt="urn:schemas-microsoft-com:datatypes"><Description dt:dt="string">E-Prime Primary Realtime Clock</Description><StartTime><Timestamp dt:dt="int">0</Timestamp><DateUtc dt:dt="string">2015-08-07T13:35:18Z</DateUtc></StartTime><FrequencyChanges><FrequencyChange><Frequency dt:dt="r8">2612324</Frequency><Timestamp dt:dt="r8">47334296531</Timestamp><Current dt:dt="r8">0</Current><DateUtc dt:dt="string">2015-08-07T13:35:18Z</DateUtc></FrequencyChange></FrequencyChanges></Clock>\n	1 ver1_main_procedure-2-1	99.935	1.0.0.880	2	as	90156507	prawa	1	2.0.10.182	08-07-2015	2015-08-07 13:35:19	15:35:19	mezczyzna	2.0.10.92	3	3	1	1																							l	{SPACE}		no	BlockProc1		BlockList									13	Cued	d	color_orange.png		-1	9	343310	310																			1					25	prime_left.png	0	342829	0	0	13	1	342830	1	342830	0	342829	20	0	-1	341330	342829	342829	0	prime_left.png	TrialProc1	left	0		0	11	343140	-343140		0	0	TrialList1	target_left.png	1	d	-1	3	342879	261	d	421	343300												2	1	13				neut			300
1 ver1_main_procedure	2	1	21	<?xml version="1.0"?>\n<Clock xmlns:dt="urn:schemas-microsoft-com:datatypes"><Description dt:dt="string">E-Prime Primary Realtime Clock</Description><StartTime><Timestamp dt:dt="int">0</Timestamp><DateUtc dt:dt="string">2015-08-07T13:35:18Z</DateUtc></StartTime><FrequencyChanges><FrequencyChange><Frequency dt:dt="r8">2612324</Frequency><Timestamp dt:dt="r8">47334296531</Timestamp><Current dt:dt="r8">0</Current><DateUtc dt:dt="string">2015-08-07T13:35:18Z</DateUtc></FrequencyChange></FrequencyChanges></Clock>\n	1 ver1_main_procedure-2-1	99.935	1.0.0.880	2	as	90156507	prawa	1	2.0.10.182	08-07-2015	2015-08-07 13:35:19	15:35:19	mezczyzna	2.0.10.92	3	3	1	1																							l	{SPACE}		no	BlockProc1		BlockList									14	Cued	d	color_green.png		-1	14	345931	160																								75	prime_left.png	0	345431	0	0	13	0	345431	0	345431	1	345431	20	0	-1	343932	345431	345430	0		TrialProc1	left	0		0	10	345741	-345741		0	0	TrialList1	target_left.png	1	d	-1	3	345481	260	d	435	345916												1	1	14				comp			150
1 ver1_main_procedure	2	1	21	<?xml version="1.0"?>\n<Clock xmlns:dt="urn:schemas-microsoft-com:datatypes"><Description dt:dt="string">E-Prime Primary Realtime Clock</Description><StartTime><Timestamp dt:dt="int">0</Timestamp><DateUtc dt:dt="string">2015-08-07T13:35:18Z</DateUtc></StartTime><FrequencyChanges><FrequencyChange><Frequency dt:dt="r8">2612324</Frequency><Timestamp dt:dt="r8">47334296531</Timestamp><Current dt:dt="r8">0</Current><DateUtc dt:dt="string">2015-08-07T13:35:18Z</DateUtc></FrequencyChange></FrequencyChanges></Clock>\n	1 ver1_main_procedure-2-1	99.935	1.0.0.880	2	as	90156507	prawa	1	2.0.10.182	08-07-2015	2015-08-07 13:35:19	15:35:19	mezczyzna	2.0.10.92	3	3	1	1																							l	{SPACE}		no	BlockProc1		BlockList									15	Cued	d	color_purple.png		-1	6	348363	160																								75	prime_right.png	0	347902	0	0	13	1	347903	1	347903	0	347902	20	0	-1	346403	347902	347902	0		TrialProc1	left	0		0	11	348213	-348213		0	0	TrialList1	target_left.png	1	d	-1	3	347952	261	d	404	348356												3	1	15				incomp			150
1 ver1_main_procedure	2	1	21	<?xml version="1.0"?>\n<Clock xmlns:dt="urn:schemas-microsoft-com:datatypes"><Description dt:dt="string">E-Prime Primary Realtime Clock</Description><StartTime><Timestamp dt:dt="int">0</Timestamp><DateUtc dt:dt="string">2015-08-07T13:35:18Z</DateUtc></StartTime><FrequencyChanges><FrequencyChange><Frequency dt:dt="r8">2612324</Frequency><Timestamp dt:dt="r8">47334296531</Timestamp><Current dt:dt="r8">0</Current><DateUtc dt:dt="string">2015-08-07T13:35:18Z</DateUtc></FrequencyChange></FrequencyChanges></Clock>\n	1 ver1_main_procedure-2-1	99.935	1.0.0.880	2	as	90156507	prawa	1	2.0.10.182	08-07-2015	2015-08-07 13:35:19	15:35:19	mezczyzna	2.0.10.92	3	3	1	1																							l	{SPACE}		no	BlockProc1		BlockList									16	Cued	d	color_green.png		-1	13	350754	460																								75	prime_left.png	0	350334	0	0	13	0	350334	0	350334	1	350334	20	0	-1	348835	350334	350333	0		TrialProc1	left	0		0	10	350644	-350644		0	0	TrialList1	target_left.png	1	d	-1	3	350384	260	d	356	350740												1	1	16				comp			450
1 ver1_main_procedure	2	1	21	<?xml version="1.0"?>\n<Clock xmlns:dt="urn:schemas-microsoft-com:datatypes"><Description dt:dt="string">E-Prime Primary Realtime Clock</Description><StartTime><Timestamp dt:dt="int">0</Timestamp><DateUtc dt:dt="string">2015-08-07T13:35:18Z</DateUtc></StartTime><FrequencyChanges><FrequencyChange><Frequency dt:dt="r8">2612324</Frequency><Timestamp dt:dt="r8">47334296531</Timestamp><Current dt:dt="r8">0</Current><DateUtc dt:dt="string">2015-08-07T13:35:18Z</DateUtc></FrequencyChange></FrequencyChanges></Clock>\n	1 ver1_main_procedure-2-1	99.935	1.0.0.880	2	as	90156507	prawa	1	2.0.10.182	08-07-2015	2015-08-07 13:35:19	15:35:19	mezczyzna	2.0.10.92	3	3	1	1																							l	{SPACE}		no	BlockProc1		BlockList									17	Cued	l	color_yellow.png		-1	7	353516	310																								25	prime_right.png	0	353025	0	0	13	1	353026	1	353026	0	353025	20	0	-1	351526	353025	353025	0		TrialProc1	right	0		0	11	353336	-353336		0	0	TrialList1	target_right.png	1	l	-1	3	353075	261	l	433	353508												4	1	17				comp			300
1 ver1_main_procedure	2	1	21	<?xml version="1.0"?>\n<Clock xmlns:dt="urn:schemas-microsoft-com:datatypes"><Description dt:dt="string">E-Prime Primary Realtime Clock</Description><StartTime><Timestamp dt:dt="int">0</Timestamp><DateUtc dt:dt="string">2015-08-07T13:35:18Z</DateUtc></StartTime><FrequencyChanges><FrequencyChange><Frequency dt:dt="r8">2612324</Frequency><Timestamp dt:dt="r8">47334296531</Timestamp><Current dt:dt="r8">0</Current><DateUtc dt:dt="string">2015-08-07T13:35:18Z</DateUtc></FrequencyChange></FrequencyChanges></Clock>\n	1 ver1_main_procedure-2-1	99.935	1.0.0.880	2	as	90156507	prawa	1	2.0.10.182	08-07-2015	2015-08-07 13:35:19	15:35:19	mezczyzna	2.0.10.92	3	3	1	1																							l	{SPACE}		no	BlockProc1		BlockList									18	Free	dl	color_orange.png		-1	14	356147	160																			2					75	prime_right.png	0	355637	0	0	13	0	355637	0	355637	1	355637	20	0	-1	354138	355637	355636	0	prime_right.png	TrialProc1	left	0		0	10	355947	-355947		0	0	TrialList1	target_both.png	0	dl	-1	3	355687	260	d	445	356132												8	1	18				neut			150
1 ver1_main_procedure	2	1	21	<?xml version="1.0"?>\n<Clock xmlns:dt="urn:schemas-microsoft-com:datatypes"><Description dt:dt="string">E-Prime Primary Realtime Clock</Description><StartTime><Timestamp dt:dt="int">0</Timestamp><DateUtc dt:dt="string">2015-08-07T13:35:18Z</DateUtc></StartTime><FrequencyChanges><FrequencyChange><Frequency dt:dt="r8">2612324</Frequency><Timestamp dt:dt="r8">47334296531</Timestamp><Current dt:dt="r8">0</Current><DateUtc dt:dt="string">2015-08-07T13:35:18Z</DateUtc></FrequencyChange></FrequencyChanges></Clock>\n	1 ver1_main_procedure-2-1	99.935	1.0.0.880	2	as	90156507	prawa	1	2.0.10.182	08-07-2015	2015-08-07 13:35:19	15:35:19	mezczyzna	2.0.10.92	3	3	1	1																							l	{SPACE}		no	BlockProc1		BlockList									19	Cued	l	color_blue.png		-1	8	358669	310																			1					25	prime_left.png	0	358118	0	0	13	1	358119	1	358119	1	358118	20	0	-1	356619	358118	358117	0	prime_left.png	TrialProc1	right	0		0	11	358429	-358429		0	0	TrialList1	target_right.png	1	l	-1	3	358168	261	l	492	358660												5	1	19				neut			300
1 ver1_main_procedure	2	1	21	<?xml version="1.0"?>\n<Clock xmlns:dt="urn:schemas-microsoft-com:datatypes"><Description dt:dt="string">E-Prime Primary Realtime Clock</Description><StartTime><Timestamp dt:dt="int">0</Timestamp><DateUtc dt:dt="string">2015-08-07T13:35:18Z</DateUtc></StartTime><FrequencyChanges><FrequencyChange><Frequency dt:dt="r8">2612324</Frequency><Timestamp dt:dt="r8">47334296531</Timestamp><Current dt:dt="r8">0</Current><DateUtc dt:dt="string">2015-08-07T13:35:18Z</DateUtc></FrequencyChange></FrequencyChanges></Clock>\n	1 ver1_main_procedure-2-1	99.935	1.0.0.880	2	as	90156507	prawa	1	2.0.10.182	08-07-2015	2015-08-07 13:35:19	15:35:19	mezczyzna	2.0.10.92	3	3	1	1																							l	{SPACE}		no	BlockProc1		BlockList									20	Free	dl	color_yellow.png		-1	13	361330	461																								25	prime_right.png	0	360790	0	0	13	0	360790	0	360790	1	360790	20	0	-1	359291	360790	360789	0		TrialProc1	left	0		0	10	361100	-361100		0	0	TrialList1	target_both.png	0	dl	-1	3	360840	260	l	476	361316												9	1	20				incomp			450
1 ver1_main_procedure	2	1	21	<?xml version="1.0"?>\n<Clock xmlns:dt="urn:schemas-microsoft-com:datatypes"><Description dt:dt="string">E-Prime Primary Realtime Clock</Description><StartTime><Timestamp dt:dt="int">0</Timestamp><DateUtc dt:dt="string">2015-08-07T13:35:18Z</DateUtc></StartTime><FrequencyChanges><FrequencyChange><Frequency dt:dt="r8">2612324</Frequency><Timestamp dt:dt="r8">47334296531</Timestamp><Current dt:dt="r8">0</Current><DateUtc dt:dt="string">2015-08-07T13:35:18Z</DateUtc></FrequencyChange></FrequencyChanges></Clock>\n	1 ver1_main_procedure-2-1	99.935	1.0.0.880	2	as	90156507	prawa	1	2.0.10.182	08-07-2015	2015-08-07 13:35:19	15:35:19	mezczyzna	2.0.10.92	3	3	1	1																							l	{SPACE}		no	BlockProc1		BlockList									21	Free	dl	color_green.png		-1	15	364092	460																								75	prime_left.png	0	363602	0	0	13	0	363602	0	363602	1	363602	20	0	-1	362102	363602	363601	0		TrialProc1	left	0		0	10	363912	-363912		0	0	TrialList1	target_both.png	0	dl	-1	3	363652	260	d	425	364077												7	1	21				comp			450
1 ver1_main_procedure	2	1	21	<?xml version="1.0"?>\n<Clock xmlns:dt="urn:schemas-microsoft-com:datatypes"><Description dt:dt="string">E-Prime Primary Realtime Clock</Description><StartTime><Timestamp dt:dt="int">0</Timestamp><DateUtc dt:dt="string">2015-08-07T13:35:18Z</DateUtc></StartTime><FrequencyChanges><FrequencyChange><Frequency dt:dt="r8">2612324</Frequency><Timestamp dt:dt="r8">47334296531</Timestamp><Current dt:dt="r8">0</Current><DateUtc dt:dt="string">2015-08-07T13:35:18Z</DateUtc></FrequencyChange></FrequencyChanges></Clock>\n	1 ver1_main_procedure-2-1	99.935	1.0.0.880	2	as	90156507	prawa	1	2.0.10.182	08-07-2015	2015-08-07 13:35:19	15:35:19	mezczyzna	2.0.10.92	3	3	1	1																							l	{SPACE}		no	BlockProc1		BlockList									22	Free	dl	color_yellow.png		-1	8	366813	161																								25	prime_right.png	0	366363	0	0	13	0	366363	0	366363	1	366363	20	0	-1	364864	366363	366362	0		TrialProc1	left	0		1	10	366673	-366673		0	0	TrialList1	target_both.png	0	dl	-1	3	366413	260	l	392	366805												9	1	22				incomp			150
1 ver1_main_procedure	2	1	21	<?xml version="1.0"?>\n<Clock xmlns:dt="urn:schemas-microsoft-com:datatypes"><Description dt:dt="string">E-Prime Primary Realtime Clock</Description><StartTime><Timestamp dt:dt="int">0</Timestamp><DateUtc dt:dt="string">2015-08-07T13:35:18Z</DateUtc></StartTime><FrequencyChanges><FrequencyChange><Frequency dt:dt="r8">2612324</Frequency><Timestamp dt:dt="r8">47334296531</Timestamp><Current dt:dt="r8">0</Current><DateUtc dt:dt="string">2015-08-07T13:35:18Z</DateUtc></FrequencyChange></FrequencyChanges></Clock>\n	1 ver1_main_procedure-2-1	99.935	1.0.0.880	2	as	90156507	prawa	1	2.0.10.182	08-07-2015	2015-08-07 13:35:19	15:35:19	mezczyzna	2.0.10.92	3	3	1	1																							l	{SPACE}		no	BlockProc1		BlockList									23	Cued	l	color_red.png		-1	12	369265	160																								75	prime_left.png	0	368785	0	0	13	0	368785	0	368785	1	368785	20	0	-1	367286	368785	368784	0		TrialProc1	right	0		0	10	369095	-369095		0	0	TrialList1	target_right.png	1	l	-1	3	368835	260	l	418	369253												6	1	23				incomp			150
1 ver1_main_procedure	2	1	21	<?xml version="1.0"?>\n<Clock xmlns:dt="urn:schemas-microsoft-com:datatypes"><Description dt:dt="string">E-Prime Primary Realtime Clock</Description><StartTime><Timestamp dt:dt="int">0</Timestamp><DateUtc dt:dt="string">2015-08-07T13:35:18Z</DateUtc></StartTime><FrequencyChanges><FrequencyChange><Frequency dt:dt="r8">2612324</Frequency><Timestamp dt:dt="r8">47334296531</Timestamp><Current dt:dt="r8">0</Current><DateUtc dt:dt="string">2015-08-07T13:35:18Z</DateUtc></FrequencyChange></FrequencyChanges></Clock>\n	1 ver1_main_procedure-2-1	99.935	1.0.0.880	2	as	90156507	prawa	1	2.0.10.182	08-07-2015	2015-08-07 13:35:19	15:35:19	mezczyzna	2.0.10.92	3	3	1	1																							l	{SPACE}		no	BlockProc1		BlockList									24	Cued	d	color_orange.png		-1	9	371806	311																			2					75	prime_right.png	0	371236	0	0	13	0	371236	0	371236	1	371236	20	0	-1	369737	371236	371235	0	prime_right.png	TrialProc1	left	0		1	10	371546	-371546		0	0	TrialList1	target_left.png	1	d	-1	3	371286	260	d	511	371797												2	1	24				neut			300
1 ver1_main_procedure	2	1	21	<?xml version="1.0"?>\n<Clock xmlns:dt="urn:schemas-microsoft-com:datatypes"><Description dt:dt="string">E-Prime Primary Realtime Clock</Description><StartTime><Timestamp dt:dt="int">0</Timestamp><DateUtc dt:dt="string">2015-08-07T13:35:18Z</DateUtc></StartTime><FrequencyChanges><FrequencyChange><Frequency dt:dt="r8">2612324</Frequency><Timestamp dt:dt="r8">47334296531</Timestamp><Current dt:dt="r8">0</Current><DateUtc dt:dt="string">2015-08-07T13:35:18Z</DateUtc></FrequencyChange></FrequencyChanges></Clock>\n	1 ver1_main_procedure-2-1	99.935	1.0.0.880	2	as	90156507	prawa	1	2.0.10.182	08-07-2015	2015-08-07 13:35:19	15:35:19	mezczyzna	2.0.10.92	3	3	1	1																							l	{SPACE}		no	BlockProc1		BlockList									25	Cued	l	color_yellow.png		-1	9	374358	460																								25	prime_right.png	0	373928	0	0	13	0	373928	0	373928	1	373928	20	0	-1	372429	373928	373927	0		TrialProc1	right	0		0	10	374238	-374238		0	0	TrialList1	target_right.png	1	l	-1	3	373978	260	l	371	374349												4	1	25				comp			450
1 ver1_main_procedure	2	1	21	<?xml version="1.0"?>\n<Clock xmlns:dt="urn:schemas-microsoft-com:datatypes"><Description dt:dt="string">E-Prime Primary Realtime Clock</Description><StartTime><Timestamp dt:dt="int">0</Timestamp><DateUtc dt:dt="string">2015-08-07T13:35:18Z</DateUtc></StartTime><FrequencyChanges><FrequencyChange><Frequency dt:dt="r8">2612324</Frequency><Timestamp dt:dt="r8">47334296531</Timestamp><Current dt:dt="r8">0</Current><DateUtc dt:dt="string">2015-08-07T13:35:18Z</DateUtc></FrequencyChange></FrequencyChanges></Clock>\n	1 ver1_main_procedure-2-1	99.935	1.0.0.880	2	as	90156507	prawa	1	2.0.10.182	08-07-2015	2015-08-07 13:35:19	15:35:19	mezczyzna	2.0.10.92	3	3	1	1																							l	{SPACE}		no	BlockProc1		BlockList									26	Free	dl	color_yellow.png		-1	13	377090	310																								25	prime_right.png	0	376629	0	0	13	0	376629	0	376629	1	376629	20	0	-1	375130	376629	376628	0		TrialProc1	right	0		1	10	376939	-376939		0	0	TrialList1	target_both.png	0	dl	-1	3	376679	260	l	398	377077												10	1	26				comp			300
1 ver1_main_procedure	2	1	21	<?xml version="1.0"?>\n<Clock xmlns:dt="urn:schemas-microsoft-com:datatypes"><Description dt:dt="string">E-Prime Primary Realtime Clock</Description><StartTime><Timestamp dt:dt="int">0</Timestamp><DateUtc dt:dt="string">2015-08-07T13:35:18Z</DateUtc></StartTime><FrequencyChanges><FrequencyChange><Frequency dt:dt="r8">2612324</Frequency><Timestamp dt:dt="r8">47334296531</Timestamp><Current dt:dt="r8">0</Current><DateUtc dt:dt="string">2015-08-07T13:35:18Z</DateUtc></FrequencyChange></FrequencyChanges></Clock>\n	1 ver1_main_procedure-2-1	99.935	1.0.0.880	2	as	90156507	prawa	1	2.0.10.182	08-07-2015	2015-08-07 13:35:19	15:35:19	mezczyzna	2.0.10.92	3	3	1	1																							l	{SPACE}		no	BlockProc1		BlockList									27	Cued	d	color_green.png		-1	14	379691	460																								25	prime_left.png	0	379211	0	0	13	0	379211	0	379211	1	379211	20	0	-1	377712	379211	379210	0		TrialProc1	left	0		0	10	379521	-379521		0	0	TrialList1	target_left.png	1	d	-1	3	379261	260	d	416	379677												1	1	27				comp			450
1 ver1_main_procedure	2	1	21	<?xml version="1.0"?>\n<Clock xmlns:dt="urn:schemas-microsoft-com:datatypes"><Description dt:dt="string">E-Prime Primary Realtime Clock</Description><StartTime><Timestamp dt:dt="int">0</Timestamp><DateUtc dt:dt="string">2015-08-07T13:35:18Z</DateUtc></StartTime><FrequencyChanges><FrequencyChange><Frequency dt:dt="r8">2612324</Frequency><Timestamp dt:dt="r8">47334296531</Timestamp><Current dt:dt="r8">0</Current><DateUtc dt:dt="string">2015-08-07T13:35:18Z</DateUtc></FrequencyChange></FrequencyChanges></Clock>\n	1 ver1_main_procedure-2-1	99.935	1.0.0.880	2	as	90156507	prawa	1	2.0.10.182	08-07-2015	2015-08-07 13:35:19	15:35:19	mezczyzna	2.0.10.92	3	3	1	1																							l	{SPACE}		no	BlockProc1		BlockList									28	Cued	d	color_orange.png		-1	14	382483	460																			1					75	prime_left.png	0	381962	0	0	13	1	381963	1	381963	0	381962	20	0	-1	380463	381962	381962	0	prime_left.png	TrialProc1	left	0		0	11	382273	-382273		0	0	TrialList1	target_left.png	1	d	-1	3	382012	261	d	457	382469												2	1	28				neut			450
1 ver1_main_procedure	2	1	21	<?xml version="1.0"?>\n<Clock xmlns:dt="urn:schemas-microsoft-com:datatypes"><Description dt:dt="string">E-Prime Primary Realtime Clock</Description><StartTime><Timestamp dt:dt="int">0</Timestamp><DateUtc dt:dt="string">2015-08-07T13:35:18Z</DateUtc></StartTime><FrequencyChanges><FrequencyChange><Frequency dt:dt="r8">2612324</Frequency><Timestamp dt:dt="r8">47334296531</Timestamp><Current dt:dt="r8">0</Current><DateUtc dt:dt="string">2015-08-07T13:35:18Z</DateUtc></FrequencyChange></FrequencyChanges></Clock>\n	1 ver1_main_procedure-2-1	99.935	1.0.0.880	2	as	90156507	prawa	1	2.0.10.182	08-07-2015	2015-08-07 13:35:19	15:35:19	mezczyzna	2.0.10.92	3	3	1	1																							l	{SPACE}		no	BlockProc1		BlockList									29	Cued	l	color_blue.png		-1	13	385154	310																			2					75	prime_right.png	0	384754	0	0	13	0	384754	0	384754	1	384754	20	0	-1	383255	384754	384753	0	prime_right.png	TrialProc1	right	0		0	10	385064	-385064		0	0	TrialList1	target_right.png	1	l	-1	3	384804	260	l	337	385141												5	1	29				neut			300
1 ver1_main_procedure	2	1	21	<?xml version="1.0"?>\n<Clock xmlns:dt="urn:schemas-microsoft-com:datatypes"><Description dt:dt="string">E-Prime Primary Realtime Clock</Description><StartTime><Timestamp dt:dt="int">0</Timestamp><DateUtc dt:dt="string">2015-08-07T13:35:18Z</DateUtc></StartTime><FrequencyChanges><FrequencyChange><Frequency dt:dt="r8">2612324</Frequency><Timestamp dt:dt="r8">47334296531</Timestamp><Current dt:dt="r8">0</Current><DateUtc dt:dt="string">2015-08-07T13:35:18Z</DateUtc></FrequencyChange></FrequencyChanges></Clock>\n	1 ver1_main_procedure-2-1	99.935	1.0.0.880	2	as	90156507	prawa	1	2.0.10.182	08-07-2015	2015-08-07 13:35:19	15:35:19	mezczyzna	2.0.10.92	3	3	1	1																							l	{SPACE}		no	BlockProc1		BlockList									30	Cued	l	color_yellow.png		-1	11	387696	310																								25	prime_right.png	0	387276	0	0	13	0	387276	0	387276	1	387276	20	0	-1	385776	387276	387275	0		TrialProc1	right	0		0	10	387586	-387586		0	0	TrialList1	target_right.png	1	l	-1	3	387326	260	l	359	387685												4	1	30				comp			300
1 ver1_main_procedure	2	1	21	<?xml version="1.0"?>\n<Clock xmlns:dt="urn:schemas-microsoft-com:datatypes"><Description dt:dt="string">E-Prime Primary Realtime Clock</Description><StartTime><Timestamp dt:dt="int">0</Timestamp><DateUtc dt:dt="string">2015-08-07T13:35:18Z</DateUtc></StartTime><FrequencyChanges><FrequencyChange><Frequency dt:dt="r8">2612324</Frequency><Timestamp dt:dt="r8">47334296531</Timestamp><Current dt:dt="r8">0</Current><DateUtc dt:dt="string">2015-08-07T13:35:18Z</DateUtc></FrequencyChange></FrequencyChanges></Clock>\n	1 ver1_main_procedure-2-1	99.935	1.0.0.880	2	as	90156507	prawa	1	2.0.10.182	08-07-2015	2015-08-07 13:35:19	15:35:19	mezczyzna	2.0.10.92	3	3	1	1																							l	{SPACE}		no	BlockProc1		BlockList									31	Cued	l	color_blue.png		-1	8	390237	310																			1					25	prime_left.png	0	389817	0	0	13	0	389817	0	389817	1	389817	20	0	-1	388318	389817	389816	0	prime_left.png	TrialProc1	right	0		0	10	390127	-390127		0	0	TrialList1	target_right.png	1	l	-1	3	389867	260	l	362	390229												5	1	31				neut			300
1 ver1_main_procedure	2	1	21	<?xml version="1.0"?>\n<Clock xmlns:dt="urn:schemas-microsoft-com:datatypes"><Description dt:dt="string">E-Prime Primary Realtime Clock</Description><StartTime><Timestamp dt:dt="int">0</Timestamp><DateUtc dt:dt="string">2015-08-07T13:35:18Z</DateUtc></StartTime><FrequencyChanges><FrequencyChange><Frequency dt:dt="r8">2612324</Frequency><Timestamp dt:dt="r8">47334296531</Timestamp><Current dt:dt="r8">0</Current><DateUtc dt:dt="string">2015-08-07T13:35:18Z</DateUtc></FrequencyChange></FrequencyChanges></Clock>\n	1 ver1_main_procedure-2-1	99.935	1.0.0.880	2	as	90156507	prawa	1	2.0.10.182	08-07-2015	2015-08-07 13:35:19	15:35:19	mezczyzna	2.0.10.92	3	3	1	1																							l	{SPACE}		no	BlockProc1		BlockList									32	Cued	d	color_purple.png		-1	9	392799	160																								75	prime_right.png	1	392359	0	0	13	1	392359	1	392359	0	392358	21	0	-1	390859	392358	392358	0		TrialProc1	left	0		0	10	392669	-392669		0	0	TrialList1	target_left.png	1	d	-1	3	392409	260	d	380	392789												3	1	32				incomp			150
1 ver1_main_procedure	2	1	21	<?xml version="1.0"?>\n<Clock xmlns:dt="urn:schemas-microsoft-com:datatypes"><Description dt:dt="string">E-Prime Primary Realtime Clock</Description><StartTime><Timestamp dt:dt="int">0</Timestamp><DateUtc dt:dt="string">2015-08-07T13:35:18Z</DateUtc></StartTime><FrequencyChanges><FrequencyChange><Frequency dt:dt="r8">2612324</Frequency><Timestamp dt:dt="r8">47334296531</Timestamp><Current dt:dt="r8">0</Current><DateUtc dt:dt="string">2015-08-07T13:35:18Z</DateUtc></FrequencyChange></FrequencyChanges></Clock>\n	1 ver1_main_procedure-2-1	99.935	1.0.0.880	2	as	90156507	prawa	1	2.0.10.182	08-07-2015	2015-08-07 13:35:19	15:35:19	mezczyzna	2.0.10.92	3	3	1	1																							l	{SPACE}		no	BlockProc1		BlockList									33	Cued	l	color_red.png		-1	12	395210	310																								75	prime_left.png	0	394770	0	0	13	0	394770	0	394770	1	394770	20	0	-1	393271	394770	394769	0		TrialProc1	right	0		0	10	395080	-395080		0	0	TrialList1	target_right.png	1	l	-1	3	394820	260	l	377	395197												6	1	33				incomp			300
1 ver1_main_procedure	2	1	21	<?xml version="1.0"?>\n<Clock xmlns:dt="urn:schemas-microsoft-com:datatypes"><Description dt:dt="string">E-Prime Primary Realtime Clock</Description><StartTime><Timestamp dt:dt="int">0</Timestamp><DateUtc dt:dt="string">2015-08-07T13:35:18Z</DateUtc></StartTime><FrequencyChanges><FrequencyChange><Frequency dt:dt="r8">2612324</Frequency><Timestamp dt:dt="r8">47334296531</Timestamp><Current dt:dt="r8">0</Current><DateUtc dt:dt="string">2015-08-07T13:35:18Z</DateUtc></FrequencyChange></FrequencyChanges></Clock>\n	1 ver1_main_procedure-2-1	99.935	1.0.0.880	2	as	90156507	prawa	1	2.0.10.182	08-07-2015	2015-08-07 13:35:19	15:35:19	mezczyzna	2.0.10.92	3	3	1	1																							l	{SPACE}		no	BlockProc1		BlockList									34	Free	dl	color_red.png		-1	6	397972	460																								25	prime_left.png	0	397331	0	0	13	1	397332	1	397332	0	397331	20	0	-1	395832	397331	397331	0		TrialProc1	right	0		0	11	397642	-397642		0	0	TrialList1	target_both.png	0	dl	-1	3	397381	261	l	584	397965												12	1	34				incomp			450
1 ver1_main_procedure	2	1	21	<?xml version="1.0"?>\n<Clock xmlns:dt="urn:schemas-microsoft-com:datatypes"><Description dt:dt="string">E-Prime Primary Realtime Clock</Description><StartTime><Timestamp dt:dt="int">0</Timestamp><DateUtc dt:dt="string">2015-08-07T13:35:18Z</DateUtc></StartTime><FrequencyChanges><FrequencyChange><Frequency dt:dt="r8">2612324</Frequency><Timestamp dt:dt="r8">47334296531</Timestamp><Current dt:dt="r8">0</Current><DateUtc dt:dt="string">2015-08-07T13:35:18Z</DateUtc></FrequencyChange></FrequencyChanges></Clock>\n	1 ver1_main_procedure-2-1	99.935	1.0.0.880	2	as	90156507	prawa	1	2.0.10.182	08-07-2015	2015-08-07 13:35:19	15:35:19	mezczyzna	2.0.10.92	3	3	1	1																							l	{SPACE}		no	BlockProc1		BlockList									35	Free	dl	color_orange.png		-1	5	400843	461																			2					25	prime_right.png	0	400243	0	0	13	0	400243	0	400243	1	400243	20	0	-1	398744	400243	400242	0	prime_right.png	TrialProc1	right	0		1	10	400553	-400553		0	0	TrialList1	target_both.png	0	dl	-1	3	400293	260	d	544	400837												11	1	35				neut			450
1 ver1_main_procedure	2	1	21	<?xml version="1.0"?>\n<Clock xmlns:dt="urn:schemas-microsoft-com:datatypes"><Description dt:dt="string">E-Prime Primary Realtime Clock</Description><StartTime><Timestamp dt:dt="int">0</Timestamp><DateUtc dt:dt="string">2015-08-07T13:35:18Z</DateUtc></StartTime><FrequencyChanges><FrequencyChange><Frequency dt:dt="r8">2612324</Frequency><Timestamp dt:dt="r8">47334296531</Timestamp><Current dt:dt="r8">0</Current><DateUtc dt:dt="string">2015-08-07T13:35:18Z</DateUtc></FrequencyChange></FrequencyChanges></Clock>\n	1 ver1_main_procedure-2-1	99.935	1.0.0.880	2	as	90156507	prawa	1	2.0.10.182	08-07-2015	2015-08-07 13:35:19	15:35:19	mezczyzna	2.0.10.92	3	3	1	1																							l	{SPACE}		no	BlockProc1		BlockList									36	Free	dl	color_blue.png		-1	7	403645	460																			1					25	prime_left.png	0	403115	0	0	13	0	403115	0	403115	1	403115	20	0	-1	401616	403115	403114	0	prime_left.png	TrialProc1	right	0		0	10	403425	-403425		0	0	TrialList1	target_both.png	0	dl	-1	3	403165	260	l	472	403637												11	1	36				neut			450
1 ver1_main_procedure	2	1	21	<?xml version="1.0"?>\n<Clock xmlns:dt="urn:schemas-microsoft-com:datatypes"><Description dt:dt="string">E-Prime Primary Realtime Clock</Description><StartTime><Timestamp dt:dt="int">0</Timestamp><DateUtc dt:dt="string">2015-08-07T13:35:18Z</DateUtc></StartTime><FrequencyChanges><FrequencyChange><Frequency dt:dt="r8">2612324</Frequency><Timestamp dt:dt="r8">47334296531</Timestamp><Current dt:dt="r8">0</Current><DateUtc dt:dt="string">2015-08-07T13:35:18Z</DateUtc></FrequencyChange></FrequencyChanges></Clock>\n	1 ver1_main_procedure-2-1	99.935	1.0.0.880	2	as	90156507	prawa	1	2.0.10.182	08-07-2015	2015-08-07 13:35:19	15:35:19	mezczyzna	2.0.10.92	3	3	1	1																							l	{SPACE}		no	BlockProc1		BlockList									37	Cued	l	color_blue.png		-1	9	406447	460																			2					25	prime_right.png	1	405917	0	0	13	1	405917	1	405917	0	405916	20	0	-1	404417	405916	405916	0	prime_right.png	TrialProc1	right	0		0	11	406227	-406227		0	0	TrialList1	target_right.png	1	l	-1	3	405966	261	l	471	406437												5	1	37				neut			450
1 ver1_main_procedure	2	1	21	<?xml version="1.0"?>\n<Clock xmlns:dt="urn:schemas-microsoft-com:datatypes"><Description dt:dt="string">E-Prime Primary Realtime Clock</Description><StartTime><Timestamp dt:dt="int">0</Timestamp><DateUtc dt:dt="string">2015-08-07T13:35:18Z</DateUtc></StartTime><FrequencyChanges><FrequencyChange><Frequency dt:dt="r8">2612324</Frequency><Timestamp dt:dt="r8">47334296531</Timestamp><Current dt:dt="r8">0</Current><DateUtc dt:dt="string">2015-08-07T13:35:18Z</DateUtc></FrequencyChange></FrequencyChanges></Clock>\n	1 ver1_main_procedure-2-1	99.935	1.0.0.880	2	as	90156507	prawa	1	2.0.10.182	08-07-2015	2015-08-07 13:35:19	15:35:19	mezczyzna	2.0.10.92	3	3	1	1																							l	{SPACE}		no	BlockProc1		BlockList									38	Cued	l	color_red.png		-1	8	409198	461																								25	prime_left.png	0	408718	0	0	13	0	408718	0	408718	1	408718	20	0	-1	407219	408718	408717	0		TrialProc1	right	0		0	10	409028	-409028		0	0	TrialList1	target_right.png	1	l	-1	3	408768	260	l	421	409189												6	1	38				incomp			450
1 ver1_main_procedure	2	1	21	<?xml version="1.0"?>\n<Clock xmlns:dt="urn:schemas-microsoft-com:datatypes"><Description dt:dt="string">E-Prime Primary Realtime Clock</Description><StartTime><Timestamp dt:dt="int">0</Timestamp><DateUtc dt:dt="string">2015-08-07T13:35:18Z</DateUtc></StartTime><FrequencyChanges><FrequencyChange><Frequency dt:dt="r8">2612324</Frequency><Timestamp dt:dt="r8">47334296531</Timestamp><Current dt:dt="r8">0</Current><DateUtc dt:dt="string">2015-08-07T13:35:18Z</DateUtc></FrequencyChange></FrequencyChanges></Clock>\n	1 ver1_main_procedure-2-1	99.935	1.0.0.880	2	as	90156507	prawa	1	2.0.10.182	08-07-2015	2015-08-07 13:35:19	15:35:19	mezczyzna	2.0.10.92	3	3	1	1																							l	{SPACE}		no	BlockProc1		BlockList									39	Free	dl	color_purple.png		-1	12	412130	460																								75	prime_right.png	0	411470	0	0	13	0	411470	0	411470	1	411470	20	0	-1	409971	411470	411469	0		TrialProc1	left	0		0	10	411780	-411780		0	0	TrialList1	target_both.png	0	dl	-1	3	411520	260	d	597	412117												9	1	39				incomp			450
1 ver1_main_procedure	2	1	21	<?xml version="1.0"?>\n<Clock xmlns:dt="urn:schemas-microsoft-com:datatypes"><Description dt:dt="string">E-Prime Primary Realtime Clock</Description><StartTime><Timestamp dt:dt="int">0</Timestamp><DateUtc dt:dt="string">2015-08-07T13:35:18Z</DateUtc></StartTime><FrequencyChanges><FrequencyChange><Frequency dt:dt="r8">2612324</Frequency><Timestamp dt:dt="r8">47334296531</Timestamp><Current dt:dt="r8">0</Current><DateUtc dt:dt="string">2015-08-07T13:35:18Z</DateUtc></FrequencyChange></FrequencyChanges></Clock>\n	1 ver1_main_procedure-2-1	99.935	1.0.0.880	2	as	90156507	prawa	1	2.0.10.182	08-07-2015	2015-08-07 13:35:19	15:35:19	mezczyzna	2.0.10.92	3	3	1	1																							l	{SPACE}		no	BlockProc1		BlockList									40	Cued	l	color_yellow.png		-1	8	414902	310																								75	prime_right.png	1	414402	0	0	13	1	414402	1	414402	0	414401	20	0	-1	412902	414401	414401	0		TrialProc1	right	0		0	11	414712	-414712		0	0	TrialList1	target_right.png	1	l	-1	3	414451	261	l	442	414893												4	1	40				comp			300
1 ver1_main_procedure	2	1	21	<?xml version="1.0"?>\n<Clock xmlns:dt="urn:schemas-microsoft-com:datatypes"><Description dt:dt="string">E-Prime Primary Realtime Clock</Description><StartTime><Timestamp dt:dt="int">0</Timestamp><DateUtc dt:dt="string">2015-08-07T13:35:18Z</DateUtc></StartTime><FrequencyChanges><FrequencyChange><Frequency dt:dt="r8">2612324</Frequency><Timestamp dt:dt="r8">47334296531</Timestamp><Current dt:dt="r8">0</Current><DateUtc dt:dt="string">2015-08-07T13:35:18Z</DateUtc></FrequencyChange></FrequencyChanges></Clock>\n	1 ver1_main_procedure-2-1	99.935	1.0.0.880	2	as	90156507	prawa	1	2.0.10.182	08-07-2015	2015-08-07 13:35:19	15:35:19	mezczyzna	2.0.10.92	3	3	1	1																							l	{SPACE}		no	BlockProc1		BlockList									41	Cued	d	color_green.png		-1	5	417523	310																								75	prime_left.png	0	417023	0	0	13	0	417023	0	417023	1	417023	20	0	-1	415524	417023	417022	0		TrialProc1	left	0		0	10	417333	-417333		0	0	TrialList1	target_left.png	1	d	-1	3	417073	260	d	444	417517												1	1	41				comp			300
1 ver1_main_procedure	2	1	21	<?xml version="1.0"?>\n<Clock xmlns:dt="urn:schemas-microsoft-com:datatypes"><Description dt:dt="string">E-Prime Primary Realtime Clock</Description><StartTime><Timestamp dt:dt="int">0</Timestamp><DateUtc dt:dt="string">2015-08-07T13:35:18Z</DateUtc></StartTime><FrequencyChanges><FrequencyChange><Frequency dt:dt="r8">2612324</Frequency><Timestamp dt:dt="r8">47334296531</Timestamp><Current dt:dt="r8">0</Current><DateUtc dt:dt="string">2015-08-07T13:35:18Z</DateUtc></FrequencyChange></FrequencyChanges></Clock>\n	1 ver1_main_procedure-2-1	99.935	1.0.0.880	2	as	90156507	prawa	1	2.0.10.182	08-07-2015	2015-08-07 13:35:19	15:35:19	mezczyzna	2.0.10.92	3	3	1	1																							l	{SPACE}		no	BlockProc1		BlockList									42	Cued	l	color_red.png		-1	9	420135	160																								75	prime_left.png	0	419645	0	0	13	0	419645	0	419645	1	419645	20	0	-1	418145	419645	419644	0		TrialProc1	right	0		0	10	419955	-419955		0	0	TrialList1	target_right.png	1	l	-1	3	419695	260	l	430	420125												6	1	42				incomp			150
1 ver1_main_procedure	2	1	21	<?xml version="1.0"?>\n<Clock xmlns:dt="urn:schemas-microsoft-com:datatypes"><Description dt:dt="string">E-Prime Primary Realtime Clock</Description><StartTime><Timestamp dt:dt="int">0</Timestamp><DateUtc dt:dt="string">2015-08-07T13:35:18Z</DateUtc></StartTime><FrequencyChanges><FrequencyChange><Frequency dt:dt="r8">2612324</Frequency><Timestamp dt:dt="r8">47334296531</Timestamp><Current dt:dt="r8">0</Current><DateUtc dt:dt="string">2015-08-07T13:35:18Z</DateUtc></FrequencyChange></FrequencyChanges></Clock>\n	1 ver1_main_procedure-2-1	99.935	1.0.0.880	2	as	90156507	prawa	1	2.0.10.182	08-07-2015	2015-08-07 13:35:19	15:35:19	mezczyzna	2.0.10.92	3	3	1	1																							l	{SPACE}		no	BlockProc1		BlockList									43	Cued	d	color_orange.png		-1	10	422696	160																			1					25	prime_left.png	0	422106	0	0	13	0	422106	0	422106	1	422106	20	0	-1	420607	422106	422105	0	prime_left.png	TrialProc1	left	0		0	10	422416	-422416		0	0	TrialList1	target_left.png	1	d	-1	3	422156	260	d	529	422685												2	1	43				neut			150
1 ver1_main_procedure	2	1	21	<?xml version="1.0"?>\n<Clock xmlns:dt="urn:schemas-microsoft-com:datatypes"><Description dt:dt="string">E-Prime Primary Realtime Clock</Description><StartTime><Timestamp dt:dt="int">0</Timestamp><DateUtc dt:dt="string">2015-08-07T13:35:18Z</DateUtc></StartTime><FrequencyChanges><FrequencyChange><Frequency dt:dt="r8">2612324</Frequency><Timestamp dt:dt="r8">47334296531</Timestamp><Current dt:dt="r8">0</Current><DateUtc dt:dt="string">2015-08-07T13:35:18Z</DateUtc></FrequencyChange></FrequencyChanges></Clock>\n	1 ver1_main_procedure-2-1	99.935	1.0.0.880	2	as	90156507	prawa	1	2.0.10.182	08-07-2015	2015-08-07 13:35:19	15:35:19	mezczyzna	2.0.10.92	3	3	1	1																							l	{SPACE}		no	BlockProc1		BlockList									44	Cued	l	color_blue.png		-1	12	425058	460																			2					25	prime_right.png	1	424668	0	0	13	1	424668	1	424668	0	424667	20	0	-1	423168	424667	424667	0	prime_right.png	TrialProc1	right	0		0	10	424978	-424978		0	0	TrialList1	target_right.png	1	l	-1	4	424718	260	l	327	425045												5	1	44				neut			450
1 ver1_main_procedure	2	1	21	<?xml version="1.0"?>\n<Clock xmlns:dt="urn:schemas-microsoft-com:datatypes"><Description dt:dt="string">E-Prime Primary Realtime Clock</Description><StartTime><Timestamp dt:dt="int">0</Timestamp><DateUtc dt:dt="string">2015-08-07T13:35:18Z</DateUtc></StartTime><FrequencyChanges><FrequencyChange><Frequency dt:dt="r8">2612324</Frequency><Timestamp dt:dt="r8">47334296531</Timestamp><Current dt:dt="r8">0</Current><DateUtc dt:dt="string">2015-08-07T13:35:18Z</DateUtc></FrequencyChange></FrequencyChanges></Clock>\n	1 ver1_main_procedure-2-1	99.935	1.0.0.880	2	as	90156507	prawa	1	2.0.10.182	08-07-2015	2015-08-07 13:35:19	15:35:19	mezczyzna	2.0.10.92	3	3	1	1																							l	{SPACE}		no	BlockProc1		BlockList									45	Cued	l	color_red.png		-1	13	427859	160																								75	prime_left.png	0	427329	0	0	13	0	427329	0	427329	1	427329	20	0	-1	425830	427329	427328	0		TrialProc1	right	0		1	10	427639	-427639		0	0	TrialList1	target_right.png	1	l	-1	3	427379	260	l	466	427845												6	1	45				incomp			150
1 ver1_main_procedure	2	1	21	<?xml version="1.0"?>\n<Clock xmlns:dt="urn:schemas-microsoft-com:datatypes"><Description dt:dt="string">E-Prime Primary Realtime Clock</Description><StartTime><Timestamp dt:dt="int">0</Timestamp><DateUtc dt:dt="string">2015-08-07T13:35:18Z</DateUtc></StartTime><FrequencyChanges><FrequencyChange><Frequency dt:dt="r8">2612324</Frequency><Timestamp dt:dt="r8">47334296531</Timestamp><Current dt:dt="r8">0</Current><DateUtc dt:dt="string">2015-08-07T13:35:18Z</DateUtc></FrequencyChange></FrequencyChanges></Clock>\n	1 ver1_main_procedure-2-1	99.935	1.0.0.880	2	as	90156507	prawa	1	2.0.10.182	08-07-2015	2015-08-07 13:35:19	15:35:19	mezczyzna	2.0.10.92	3	3	1	1																							l	{SPACE}		no	BlockProc1		BlockList									46	Cued	d	color_orange.png		-1	7	430381	460																			1					75	prime_left.png	0	429831	0	0	13	0	429831	0	429831	1	429831	20	0	-1	428331	429831	429830	0	prime_left.png	TrialProc1	left	0		0	10	430141	-430141		0	0	TrialList1	target_left.png	1	d	-1	3	429881	260	d	492	430373												2	1	46				neut			450
1 ver1_main_procedure	2	1	21	<?xml version="1.0"?>\n<Clock xmlns:dt="urn:schemas-microsoft-com:datatypes"><Description dt:dt="string">E-Prime Primary Realtime Clock</Description><StartTime><Timestamp dt:dt="int">0</Timestamp><DateUtc dt:dt="string">2015-08-07T13:35:18Z</DateUtc></StartTime><FrequencyChanges><FrequencyChange><Frequency dt:dt="r8">2612324</Frequency><Timestamp dt:dt="r8">47334296531</Timestamp><Current dt:dt="r8">0</Current><DateUtc dt:dt="string">2015-08-07T13:35:18Z</DateUtc></FrequencyChange></FrequencyChanges></Clock>\n	1 ver1_main_procedure-2-1	99.935	1.0.0.880	2	as	90156507	prawa	1	2.0.10.182	08-07-2015	2015-08-07 13:35:19	15:35:19	mezczyzna	2.0.10.92	3	3	1	1																							l	{SPACE}		no	BlockProc1		BlockList									47	Cued	d	color_purple.png		-1	14	433092	311																								75	prime_right.png	0	432652	0	0	13	0	432652	0	432652	1	432652	20	0	-1	431153	432652	432651	0		TrialProc1	left	0		1	10	432962	-432962		0	0	TrialList1	target_left.png	1	d	-1	3	432702	260	d	375	433077												3	1	47				incomp			300
1 ver1_main_procedure	2	1	21	<?xml version="1.0"?>\n<Clock xmlns:dt="urn:schemas-microsoft-com:datatypes"><Description dt:dt="string">E-Prime Primary Realtime Clock</Description><StartTime><Timestamp dt:dt="int">0</Timestamp><DateUtc dt:dt="string">2015-08-07T13:35:18Z</DateUtc></StartTime><FrequencyChanges><FrequencyChange><Frequency dt:dt="r8">2612324</Frequency><Timestamp dt:dt="r8">47334296531</Timestamp><Current dt:dt="r8">0</Current><DateUtc dt:dt="string">2015-08-07T13:35:18Z</DateUtc></FrequencyChange></FrequencyChanges></Clock>\n	1 ver1_main_procedure-2-1	99.935	1.0.0.880	2	as	90156507	prawa	1	2.0.10.182	08-07-2015	2015-08-07 13:35:19	15:35:19	mezczyzna	2.0.10.92	3	3	1	1																							l	{SPACE}		no	BlockProc1		BlockList									48	Cued	l	color_blue.png		-1	12	435674	310																			2					25	prime_right.png	0	435214	0	0	13	0	435214	0	435214	1	435214	20	0	-1	433714	435214	435213	0	prime_right.png	TrialProc1	right	0		0	10	435524	-435524		0	0	TrialList1	target_right.png	1	l	-1	3	435264	260	l	397	435661												5	1	48				neut			300
1 ver1_main_procedure	2	1	21	<?xml version="1.0"?>\n<Clock xmlns:dt="urn:schemas-microsoft-com:datatypes"><Description dt:dt="string">E-Prime Primary Realtime Clock</Description><StartTime><Timestamp dt:dt="int">0</Timestamp><DateUtc dt:dt="string">2015-08-07T13:35:18Z</DateUtc></StartTime><FrequencyChanges><FrequencyChange><Frequency dt:dt="r8">2612324</Frequency><Timestamp dt:dt="r8">47334296531</Timestamp><Current dt:dt="r8">0</Current><DateUtc dt:dt="string">2015-08-07T13:35:18Z</DateUtc></FrequencyChange></FrequencyChanges></Clock>\n	1 ver1_main_procedure-2-1	99.935	1.0.0.880	2	as	90156507	prawa	1	2.0.10.182	08-07-2015	2015-08-07 13:35:19	15:35:19	mezczyzna	2.0.10.92	3	3	1	1																							l	{SPACE}		no	BlockProc1		BlockList									49	Free	dl	color_red.png		-1	5	438315	461																								75	prime_left.png	0	437795	0	0	13	0	437795	0	437795	1	437795	20	0	-1	436296	437795	437794	0		TrialProc1	right	0		1	10	438105	-438105		0	0	TrialList1	target_both.png	0	dl	-1	3	437845	260	l	464	438309												12	1	49				incomp			450
1 ver1_main_procedure	2	1	21	<?xml version="1.0"?>\n<Clock xmlns:dt="urn:schemas-microsoft-com:datatypes"><Description dt:dt="string">E-Prime Primary Realtime Clock</Description><StartTime><Timestamp dt:dt="int">0</Timestamp><DateUtc dt:dt="string">2015-08-07T13:35:18Z</DateUtc></StartTime><FrequencyChanges><FrequencyChange><Frequency dt:dt="r8">2612324</Frequency><Timestamp dt:dt="r8">47334296531</Timestamp><Current dt:dt="r8">0</Current><DateUtc dt:dt="string">2015-08-07T13:35:18Z</DateUtc></FrequencyChange></FrequencyChanges></Clock>\n	1 ver1_main_procedure-2-1	99.935	1.0.0.880	2	as	90156507	prawa	1	2.0.10.182	08-07-2015	2015-08-07 13:35:19	15:35:19	mezczyzna	2.0.10.92	3	3	1	1																							l	{SPACE}		no	BlockProc1		BlockList									50	Cued	d	color_purple.png		-1	11	441017	460																								75	prime_right.png	0	440587	0	0	13	0	440587	0	440587	1	440587	20	0	-1	439088	440587	440586	0		TrialProc1	left	0		0	10	440897	-440897		0	0	TrialList1	target_left.png	1	d	-1	3	440637	260	d	368	441005												3	1	50				incomp			450
1 ver1_main_procedure	2	1	21	<?xml version="1.0"?>\n<Clock xmlns:dt="urn:schemas-microsoft-com:datatypes"><Description dt:dt="string">E-Prime Primary Realtime Clock</Description><StartTime><Timestamp dt:dt="int">0</Timestamp><DateUtc dt:dt="string">2015-08-07T13:35:18Z</DateUtc></StartTime><FrequencyChanges><FrequencyChange><Frequency dt:dt="r8">2612324</Frequency><Timestamp dt:dt="r8">47334296531</Timestamp><Current dt:dt="r8">0</Current><DateUtc dt:dt="string">2015-08-07T13:35:18Z</DateUtc></FrequencyChange></FrequencyChanges></Clock>\n	1 ver1_main_procedure-2-1	99.935	1.0.0.880	2	as	90156507	prawa	1	2.0.10.182	08-07-2015	2015-08-07 13:35:19	15:35:19	mezczyzna	2.0.10.92	3	3	1	1																							l	{SPACE}		no	BlockProc1		BlockList									51	Cued	d	color_purple.png		-1	13	443739	310																								75	prime_right.png	1	443289	0	0	13	1	443289	1	443289	0	443288	20	0	-1	441789	443288	443288	0		TrialProc1	left	0		0	11	443599	-443599		0	0	TrialList1	target_left.png	1	d	-1	3	443338	261	d	387	443725												3	1	51				incomp			300
1 ver1_main_procedure	2	1	21	<?xml version="1.0"?>\n<Clock xmlns:dt="urn:schemas-microsoft-com:datatypes"><Description dt:dt="string">E-Prime Primary Realtime Clock</Description><StartTime><Timestamp dt:dt="int">0</Timestamp><DateUtc dt:dt="string">2015-08-07T13:35:18Z</DateUtc></StartTime><FrequencyChanges><FrequencyChange><Frequency dt:dt="r8">2612324</Frequency><Timestamp dt:dt="r8">47334296531</Timestamp><Current dt:dt="r8">0</Current><DateUtc dt:dt="string">2015-08-07T13:35:18Z</DateUtc></FrequencyChange></FrequencyChanges></Clock>\n	1 ver1_main_procedure-2-1	99.935	1.0.0.880	2	as	90156507	prawa	1	2.0.10.182	08-07-2015	2015-08-07 13:35:19	15:35:19	mezczyzna	2.0.10.92	3	3	1	1																							l	{SPACE}		no	BlockProc1		BlockList									52	Cued	d	color_orange.png		-1	8	446270	160																			1					75	prime_left.png	0	445860	0	0	13	0	445860	0	445860	1	445860	20	0	-1	444361	445860	445859	0	prime_left.png	TrialProc1	left	0		0	10	446170	-446170		0	0	TrialList1	target_left.png	1	d	-1	3	445910	260	d	352	446262												2	1	52				neut			150
1 ver1_main_procedure	2	1	21	<?xml version="1.0"?>\n<Clock xmlns:dt="urn:schemas-microsoft-com:datatypes"><Description dt:dt="string">E-Prime Primary Realtime Clock</Description><StartTime><Timestamp dt:dt="int">0</Timestamp><DateUtc dt:dt="string">2015-08-07T13:35:18Z</DateUtc></StartTime><FrequencyChanges><FrequencyChange><Frequency dt:dt="r8">2612324</Frequency><Timestamp dt:dt="r8">47334296531</Timestamp><Current dt:dt="r8">0</Current><DateUtc dt:dt="string">2015-08-07T13:35:18Z</DateUtc></FrequencyChange></FrequencyChanges></Clock>\n	1 ver1_main_procedure-2-1	99.935	1.0.0.880	2	as	90156507	prawa	1	2.0.10.182	08-07-2015	2015-08-07 13:35:19	15:35:19	mezczyzna	2.0.10.92	3	3	1	1																							l	{SPACE}		no	BlockProc1		BlockList									53	Cued	l	color_red.png		-1	14	448692	460																								75	prime_left.png	0	448241	0	0	13	0	448241	0	448241	1	448241	20	0	-1	446742	448241	448240	0		TrialProc1	right	0		1	10	448551	-448551		0	0	TrialList1	target_right.png	1	l	-1	3	448291	260	l	387	448678												6	1	53				incomp			450
1 ver1_main_procedure	2	1	21	<?xml version="1.0"?>\n<Clock xmlns:dt="urn:schemas-microsoft-com:datatypes"><Description dt:dt="string">E-Prime Primary Realtime Clock</Description><StartTime><Timestamp dt:dt="int">0</Timestamp><DateUtc dt:dt="string">2015-08-07T13:35:18Z</DateUtc></StartTime><FrequencyChanges><FrequencyChange><Frequency dt:dt="r8">2612324</Frequency><Timestamp dt:dt="r8">47334296531</Timestamp><Current dt:dt="r8">0</Current><DateUtc dt:dt="string">2015-08-07T13:35:18Z</DateUtc></FrequencyChange></FrequencyChanges></Clock>\n	1 ver1_main_procedure-2-1	99.935	1.0.0.880	2	as	90156507	prawa	1	2.0.10.182	08-07-2015	2015-08-07 13:35:19	15:35:19	mezczyzna	2.0.10.92	3	3	1	1																							l	{SPACE}		no	BlockProc1		BlockList									54	Cued	l	color_red.png		-1	7	451373	310																								25	prime_left.png	0	450963	0	0	13	0	450963	0	450963	1	450963	20	0	-1	449464	450963	450962	0		TrialProc1	right	0		0	10	451273	-451273		0	0	TrialList1	target_right.png	1	l	-1	3	451013	260	l	353	451366												6	1	54				incomp			300
1 ver1_main_procedure	2	1	21	<?xml version="1.0"?>\n<Clock xmlns:dt="urn:schemas-microsoft-com:datatypes"><Description dt:dt="string">E-Prime Primary Realtime Clock</Description><StartTime><Timestamp dt:dt="int">0</Timestamp><DateUtc dt:dt="string">2015-08-07T13:35:18Z</DateUtc></StartTime><FrequencyChanges><FrequencyChange><Frequency dt:dt="r8">2612324</Frequency><Timestamp dt:dt="r8">47334296531</Timestamp><Current dt:dt="r8">0</Current><DateUtc dt:dt="string">2015-08-07T13:35:18Z</DateUtc></FrequencyChange></FrequencyChanges></Clock>\n	1 ver1_main_procedure-2-1	99.935	1.0.0.880	2	as	90156507	prawa	1	2.0.10.182	08-07-2015	2015-08-07 13:35:19	15:35:19	mezczyzna	2.0.10.92	3	3	1	1																							l	{SPACE}		no	BlockProc1		BlockList									55	Free	dl	color_green.png		-1	15	454125	460																								25	prime_left.png	0	453494	0	0	13	1	453495	1	453495	0	453494	20	0	-1	451995	453494	453494	0		TrialProc1	left	0		0	11	453805	-453805		0	0	TrialList1	target_both.png	0	dl	-1	3	453544	261	d	566	454110												7	1	55				comp			450
1 ver1_main_procedure	2	1	21	<?xml version="1.0"?>\n<Clock xmlns:dt="urn:schemas-microsoft-com:datatypes"><Description dt:dt="string">E-Prime Primary Realtime Clock</Description><StartTime><Timestamp dt:dt="int">0</Timestamp><DateUtc dt:dt="string">2015-08-07T13:35:18Z</DateUtc></StartTime><FrequencyChanges><FrequencyChange><Frequency dt:dt="r8">2612324</Frequency><Timestamp dt:dt="r8">47334296531</Timestamp><Current dt:dt="r8">0</Current><DateUtc dt:dt="string">2015-08-07T13:35:18Z</DateUtc></FrequencyChange></FrequencyChanges></Clock>\n	1 ver1_main_procedure-2-1	99.935	1.0.0.880	2	as	90156507	prawa	1	2.0.10.182	08-07-2015	2015-08-07 13:35:19	15:35:19	mezczyzna	2.0.10.92	3	3	1	1																							l	{SPACE}		no	BlockProc1		BlockList									56	Free	dl	color_blue.png		-1	14	456836	160																			2					25	prime_right.png	0	456396	0	0	13	0	456396	0	456396	1	456396	20	0	-1	454897	456396	456395	0	prime_right.png	TrialProc1	right	0		1	10	456706	-456706		0	0	TrialList1	target_both.png	0	dl	-1	3	456446	260	l	376	456822												11	1	56				neut			150
1 ver1_main_procedure	2	1	21	<?xml version="1.0"?>\n<Clock xmlns:dt="urn:schemas-microsoft-com:datatypes"><Description dt:dt="string">E-Prime Primary Realtime Clock</Description><StartTime><Timestamp dt:dt="int">0</Timestamp><DateUtc dt:dt="string">2015-08-07T13:35:18Z</DateUtc></StartTime><FrequencyChanges><FrequencyChange><Frequency dt:dt="r8">2612324</Frequency><Timestamp dt:dt="r8">47334296531</Timestamp><Current dt:dt="r8">0</Current><DateUtc dt:dt="string">2015-08-07T13:35:18Z</DateUtc></FrequencyChange></FrequencyChanges></Clock>\n	1 ver1_main_procedure-2-1	99.935	1.0.0.880	2	as	90156507	prawa	1	2.0.10.182	08-07-2015	2015-08-07 13:35:19	15:35:19	mezczyzna	2.0.10.92	3	3	1	1																							l	{SPACE}		no	BlockProc1		BlockList									57	Cued	d	color_green.png		-1	10	459288	160																								25	prime_left.png	0	458808	0	0	13	0	458808	0	458808	1	458808	20	0	-1	457308	458808	458807	0		TrialProc1	left	0		0	10	459118	-459118		0	0	TrialList1	target_left.png	1	d	-1	3	458858	260	d	420	459278												1	1	57				comp			150
1 ver1_main_procedure	2	1	21	<?xml version="1.0"?>\n<Clock xmlns:dt="urn:schemas-microsoft-com:datatypes"><Description dt:dt="string">E-Prime Primary Realtime Clock</Description><StartTime><Timestamp dt:dt="int">0</Timestamp><DateUtc dt:dt="string">2015-08-07T13:35:18Z</DateUtc></StartTime><FrequencyChanges><FrequencyChange><Frequency dt:dt="r8">2612324</Frequency><Timestamp dt:dt="r8">47334296531</Timestamp><Current dt:dt="r8">0</Current><DateUtc dt:dt="string">2015-08-07T13:35:18Z</DateUtc></FrequencyChange></FrequencyChanges></Clock>\n	1 ver1_main_procedure-2-1	99.935	1.0.0.880	2	as	90156507	prawa	1	2.0.10.182	08-07-2015	2015-08-07 13:35:19	15:35:19	mezczyzna	2.0.10.92	3	3	1	1																							l	{SPACE}		no	BlockProc1		BlockList									58	Cued	l	color_blue.png		-1	9	461679	160																			1					25	prime_left.png	0	461259	0	0	13	0	461259	0	461259	1	461259	20	0	-1	459760	461259	461258	0	prime_left.png	TrialProc1	right	0		0	10	461569	-461569		0	0	TrialList1	target_right.png	1	l	-1	3	461309	260	l	361	461670												5	1	58				neut			150
1 ver1_main_procedure	2	1	21	<?xml version="1.0"?>\n<Clock xmlns:dt="urn:schemas-microsoft-com:datatypes"><Description dt:dt="string">E-Prime Primary Realtime Clock</Description><StartTime><Timestamp dt:dt="int">0</Timestamp><DateUtc dt:dt="string">2015-08-07T13:35:18Z</DateUtc></StartTime><FrequencyChanges><FrequencyChange><Frequency dt:dt="r8">2612324</Frequency><Timestamp dt:dt="r8">47334296531</Timestamp><Current dt:dt="r8">0</Current><DateUtc dt:dt="string">2015-08-07T13:35:18Z</DateUtc></FrequencyChange></FrequencyChanges></Clock>\n	1 ver1_main_procedure-2-1	99.935	1.0.0.880	2	as	90156507	prawa	1	2.0.10.182	08-07-2015	2015-08-07 13:35:19	15:35:19	mezczyzna	2.0.10.92	3	3	1	1																							l	{SPACE}		no	BlockProc1		BlockList									59	Cued	d	color_green.png		-1	9	464031	310																								75	prime_left.png	0	463650	0	0	13	1	463651	1	463651	1	463650	20	0	-1	462151	463650	463649	0		TrialProc1	left	0		0	11	463961	-463961		0	0	TrialList1	target_left.png	1	d	-1	3	463700	261	d	322	464022												1	1	59				comp			300
1 ver1_main_procedure	2	1	21	<?xml version="1.0"?>\n<Clock xmlns:dt="urn:schemas-microsoft-com:datatypes"><Description dt:dt="string">E-Prime Primary Realtime Clock</Description><StartTime><Timestamp dt:dt="int">0</Timestamp><DateUtc dt:dt="string">2015-08-07T13:35:18Z</DateUtc></StartTime><FrequencyChanges><FrequencyChange><Frequency dt:dt="r8">2612324</Frequency><Timestamp dt:dt="r8">47334296531</Timestamp><Current dt:dt="r8">0</Current><DateUtc dt:dt="string">2015-08-07T13:35:18Z</DateUtc></FrequencyChange></FrequencyChanges></Clock>\n	1 ver1_main_procedure-2-1	99.935	1.0.0.880	2	as	90156507	prawa	1	2.0.10.182	08-07-2015	2015-08-07 13:35:19	15:35:19	mezczyzna	2.0.10.92	3	3	1	1																							l	{SPACE}		no	BlockProc1		BlockList									60	Free	dl	color_green.png		-1	12	466642	460																								75	prime_left.png	0	466152	0	0	13	0	466152	0	466152	1	466152	20	0	-1	464653	466152	466151	0		TrialProc1	left	0		0	10	466462	-466462		0	0	TrialList1	target_both.png	0	dl	-1	3	466202	260	d	428	466630												7	1	60				comp			450
1 ver1_main_procedure	2	1	21	<?xml version="1.0"?>\n<Clock xmlns:dt="urn:schemas-microsoft-com:datatypes"><Description dt:dt="string">E-Prime Primary Realtime Clock</Description><StartTime><Timestamp dt:dt="int">0</Timestamp><DateUtc dt:dt="string">2015-08-07T13:35:18Z</DateUtc></StartTime><FrequencyChanges><FrequencyChange><Frequency dt:dt="r8">2612324</Frequency><Timestamp dt:dt="r8">47334296531</Timestamp><Current dt:dt="r8">0</Current><DateUtc dt:dt="string">2015-08-07T13:35:18Z</DateUtc></FrequencyChange></FrequencyChanges></Clock>\n	1 ver1_main_procedure-2-1	99.935	1.0.0.880	2	as	90156507	prawa	1	2.0.10.182	08-07-2015	2015-08-07 13:35:19	15:35:19	mezczyzna	2.0.10.92	3	3	1	1																							l	{SPACE}		no	BlockProc1		BlockList									61	Cued	d	color_purple.png		-1	6	469404	460																								25	prime_right.png	1	468914	0	0	13	1	468914	1	468914	0	468913	20	0	-1	467414	468913	468913	0		TrialProc1	left	0		0	11	469224	-469224		0	0	TrialList1	target_left.png	1	d	-1	3	468963	261	d	435	469398												3	1	61				incomp			450
1 ver1_main_procedure	2	1	21	<?xml version="1.0"?>\n<Clock xmlns:dt="urn:schemas-microsoft-com:datatypes"><Description dt:dt="string">E-Prime Primary Realtime Clock</Description><StartTime><Timestamp dt:dt="int">0</Timestamp><DateUtc dt:dt="string">2015-08-07T13:35:18Z</DateUtc></StartTime><FrequencyChanges><FrequencyChange><Frequency dt:dt="r8">2612324</Frequency><Timestamp dt:dt="r8">47334296531</Timestamp><Current dt:dt="r8">0</Current><DateUtc dt:dt="string">2015-08-07T13:35:18Z</DateUtc></FrequencyChange></FrequencyChanges></Clock>\n	1 ver1_main_procedure-2-1	99.935	1.0.0.880	2	as	90156507	prawa	1	2.0.10.182	08-07-2015	2015-08-07 13:35:19	15:35:19	mezczyzna	2.0.10.92	3	3	1	1																							l	{SPACE}		no	BlockProc1		BlockList									62	Cued	l	color_yellow.png		-1	12	472115	461																								25	prime_right.png	0	471675	0	0	13	0	471675	0	471675	1	471675	20	0	-1	470176	471675	471674	0		TrialProc1	right	0		0	10	471985	-471985		0	0	TrialList1	target_right.png	1	l	-1	3	471725	260	l	377	472102												4	1	62				comp			450
1 ver1_main_procedure	2	1	21	<?xml version="1.0"?>\n<Clock xmlns:dt="urn:schemas-microsoft-com:datatypes"><Description dt:dt="string">E-Prime Primary Realtime Clock</Description><StartTime><Timestamp dt:dt="int">0</Timestamp><DateUtc dt:dt="string">2015-08-07T13:35:18Z</DateUtc></StartTime><FrequencyChanges><FrequencyChange><Frequency dt:dt="r8">2612324</Frequency><Timestamp dt:dt="r8">47334296531</Timestamp><Current dt:dt="r8">0</Current><DateUtc dt:dt="string">2015-08-07T13:35:18Z</DateUtc></FrequencyChange></FrequencyChanges></Clock>\n	1 ver1_main_procedure-2-1	99.935	1.0.0.880	2	as	90156507	prawa	1	2.0.10.182	08-07-2015	2015-08-07 13:35:19	15:35:19	mezczyzna	2.0.10.92	3	3	1	1																							l	{SPACE}		no	BlockProc1		BlockList									63	Cued	l	color_yellow.png		-1	8	474807	160																								25	prime_right.png	0	474387	0	0	13	0	474387	0	474387	1	474387	20	0	-1	472887	474387	474386	0		TrialProc1	right	0		0	10	474697	-474697		0	0	TrialList1	target_right.png	1	l	-1	3	474437	260	l	361	474798												4	1	63				comp			150
1 ver1_main_procedure	2	1	21	<?xml version="1.0"?>\n<Clock xmlns:dt="urn:schemas-microsoft-com:datatypes"><Description dt:dt="string">E-Prime Primary Realtime Clock</Description><StartTime><Timestamp dt:dt="int">0</Timestamp><DateUtc dt:dt="string">2015-08-07T13:35:18Z</DateUtc></StartTime><FrequencyChanges><FrequencyChange><Frequency dt:dt="r8">2612324</Frequency><Timestamp dt:dt="r8">47334296531</Timestamp><Current dt:dt="r8">0</Current><DateUtc dt:dt="string">2015-08-07T13:35:18Z</DateUtc></FrequencyChange></FrequencyChanges></Clock>\n	1 ver1_main_procedure-2-1	99.935	1.0.0.880	2	as	90156507	prawa	1	2.0.10.182	08-07-2015	2015-08-07 13:35:19	15:35:19	mezczyzna	2.0.10.92	3	3	1	1																							l	{SPACE}		no	BlockProc1		BlockList									64	Cued	l	color_red.png		-1	5	477188	160																								75	prime_left.png	0	476778	0	0	13	0	476778	0	476778	1	476778	20	0	-1	475279	476778	476777	0		TrialProc1	right	0		1	10	477088	-477088		0	0	TrialList1	target_right.png	1	l	-1	3	476828	260	l	354	477182												6	1	64				incomp			150
1 ver1_main_procedure	2	1	21	<?xml version="1.0"?>\n<Clock xmlns:dt="urn:schemas-microsoft-com:datatypes"><Description dt:dt="string">E-Prime Primary Realtime Clock</Description><StartTime><Timestamp dt:dt="int">0</Timestamp><DateUtc dt:dt="string">2015-08-07T13:35:18Z</DateUtc></StartTime><FrequencyChanges><FrequencyChange><Frequency dt:dt="r8">2612324</Frequency><Timestamp dt:dt="r8">47334296531</Timestamp><Current dt:dt="r8">0</Current><DateUtc dt:dt="string">2015-08-07T13:35:18Z</DateUtc></FrequencyChange></FrequencyChanges></Clock>\n	1 ver1_main_procedure-2-1	99.935	1.0.0.880	2	as	90156507	prawa	1	2.0.10.182	08-07-2015	2015-08-07 13:35:19	15:35:19	mezczyzna	2.0.10.92	3	3	1	1																							l	{SPACE}		no	BlockProc1		BlockList									65	Free	dl	color_blue.png		-1	7	479630	160																			2					75	prime_right.png	1	479160	0	0	13	1	479160	1	479160	0	479159	20	0	-1	477660	479159	479159	0	prime_right.png	TrialProc1	left	0		0	11	479470	-479470		0	0	TrialList1	target_both.png	0	dl	-1	3	479209	261	l	413	479622												8	1	65				neut			150
1 ver1_main_procedure	2	1	21	<?xml version="1.0"?>\n<Clock xmlns:dt="urn:schemas-microsoft-com:datatypes"><Description dt:dt="string">E-Prime Primary Realtime Clock</Description><StartTime><Timestamp dt:dt="int">0</Timestamp><DateUtc dt:dt="string">2015-08-07T13:35:18Z</DateUtc></StartTime><FrequencyChanges><FrequencyChange><Frequency dt:dt="r8">2612324</Frequency><Timestamp dt:dt="r8">47334296531</Timestamp><Current dt:dt="r8">0</Current><DateUtc dt:dt="string">2015-08-07T13:35:18Z</DateUtc></FrequencyChange></FrequencyChanges></Clock>\n	1 ver1_main_procedure-2-1	99.935	1.0.0.880	2	as	90156507	prawa	1	2.0.10.182	08-07-2015	2015-08-07 13:35:19	15:35:19	mezczyzna	2.0.10.92	3	3	1	1																							l	{SPACE}		no	BlockProc1		BlockList									66	Cued	d	color_green.png		-1	10	482121	310																								75	prime_left.png	0	481601	0	0	13	0	481601	0	481601	1	481601	20	0	-1	480102	481601	481600	0		TrialProc1	left	0		0	10	481911	-481911		0	0	TrialList1	target_left.png	1	d	-1	3	481651	260	d	459	482110												1	1	66				comp			300
1 ver1_main_procedure	2	1	21	<?xml version="1.0"?>\n<Clock xmlns:dt="urn:schemas-microsoft-com:datatypes"><Description dt:dt="string">E-Prime Primary Realtime Clock</Description><StartTime><Timestamp dt:dt="int">0</Timestamp><DateUtc dt:dt="string">2015-08-07T13:35:18Z</DateUtc></StartTime><FrequencyChanges><FrequencyChange><Frequency dt:dt="r8">2612324</Frequency><Timestamp dt:dt="r8">47334296531</Timestamp><Current dt:dt="r8">0</Current><DateUtc dt:dt="string">2015-08-07T13:35:18Z</DateUtc></FrequencyChange></FrequencyChanges></Clock>\n	1 ver1_main_procedure-2-1	99.935	1.0.0.880	2	as	90156507	prawa	1	2.0.10.182	08-07-2015	2015-08-07 13:35:19	15:35:19	mezczyzna	2.0.10.92	3	3	1	1																							l	{SPACE}		no	BlockProc1		BlockList									67	Cued	d	color_purple.png		-1	10	484793	460																								75	prime_right.png	1	484243	0	0	13	1	484243	1	484243	0	484242	20	0	-1	482743	484242	484242	0		TrialProc1	left	0		0	11	484553	-484553		0	0	TrialList1	target_left.png	1	d	-1	3	484292	261	d	490	484782												3	1	67				incomp			450
1 ver1_main_procedure	2	1	21	<?xml version="1.0"?>\n<Clock xmlns:dt="urn:schemas-microsoft-com:datatypes"><Description dt:dt="string">E-Prime Primary Realtime Clock</Description><StartTime><Timestamp dt:dt="int">0</Timestamp><DateUtc dt:dt="string">2015-08-07T13:35:18Z</DateUtc></StartTime><FrequencyChanges><FrequencyChange><Frequency dt:dt="r8">2612324</Frequency><Timestamp dt:dt="r8">47334296531</Timestamp><Current dt:dt="r8">0</Current><DateUtc dt:dt="string">2015-08-07T13:35:18Z</DateUtc></FrequencyChange></FrequencyChanges></Clock>\n	1 ver1_main_procedure-2-1	99.935	1.0.0.880	2	as	90156507	prawa	1	2.0.10.182	08-07-2015	2015-08-07 13:35:19	15:35:19	mezczyzna	2.0.10.92	3	3	1	1																							l	{SPACE}		no	BlockProc1		BlockList									68	Cued	d	color_orange.png		-1	11	487554	461																			1					25	prime_left.png	0	487064	0	0	13	0	487065	0	487064	1	487064	20	0	-1	485565	487064	487063	0	prime_left.png	TrialProc1	left	0		0	10	487374	-487374		0	0	TrialList1	target_left.png	1	d	-1	3	487114	260	d	428	487542												2	1	68				neut			450
1 ver1_main_procedure	2	1	21	<?xml version="1.0"?>\n<Clock xmlns:dt="urn:schemas-microsoft-com:datatypes"><Description dt:dt="string">E-Prime Primary Realtime Clock</Description><StartTime><Timestamp dt:dt="int">0</Timestamp><DateUtc dt:dt="string">2015-08-07T13:35:18Z</DateUtc></StartTime><FrequencyChanges><FrequencyChange><Frequency dt:dt="r8">2612324</Frequency><Timestamp dt:dt="r8">47334296531</Timestamp><Current dt:dt="r8">0</Current><DateUtc dt:dt="string">2015-08-07T13:35:18Z</DateUtc></FrequencyChange></FrequencyChanges></Clock>\n	1 ver1_main_procedure-2-1	99.935	1.0.0.880	2	as	90156507	prawa	1	2.0.10.182	08-07-2015	2015-08-07 13:35:19	15:35:19	mezczyzna	2.0.10.92	3	3	1	1																							l	{SPACE}		no	BlockProc1		BlockList									69	Free	dl	color_yellow.png		-1	13	490756	160																								25	prime_right.png	0	489826	0	0	13	0	489826	0	489826	1	489826	20	0	-1	488327	489826	489825	0		TrialProc1	right	0		0	10	490136	-490136		0	0	TrialList1	target_both.png	0	dl	-1	3	489876	260	l	866	490742												10	1	69				comp			150
1 ver1_main_procedure	2	1	21	<?xml version="1.0"?>\n<Clock xmlns:dt="urn:schemas-microsoft-com:datatypes"><Description dt:dt="string">E-Prime Primary Realtime Clock</Description><StartTime><Timestamp dt:dt="int">0</Timestamp><DateUtc dt:dt="string">2015-08-07T13:35:18Z</DateUtc></StartTime><FrequencyChanges><FrequencyChange><Frequency dt:dt="r8">2612324</Frequency><Timestamp dt:dt="r8">47334296531</Timestamp><Current dt:dt="r8">0</Current><DateUtc dt:dt="string">2015-08-07T13:35:18Z</DateUtc></FrequencyChange></FrequencyChanges></Clock>\n	1 ver1_main_procedure-2-1	99.935	1.0.0.880	2	as	90156507	prawa	1	2.0.10.182	08-07-2015	2015-08-07 13:35:19	15:35:19	mezczyzna	2.0.10.92	3	3	1	1																							l	{SPACE}		no	BlockProc1		BlockList									70	Cued	l	color_yellow.png		-1	11	493258	160																								25	prime_right.png	1	492728	0	0	13	1	492728	1	492728	0	492727	20	0	-1	491228	492727	492727	0		TrialProc1	right	0		0	11	493038	-493038		0	0	TrialList1	target_right.png	1	l	-1	3	492777	261	l	469	493246												4	1	70				comp			150
1 ver1_main_procedure	2	1	21	<?xml version="1.0"?>\n<Clock xmlns:dt="urn:schemas-microsoft-com:datatypes"><Description dt:dt="string">E-Prime Primary Realtime Clock</Description><StartTime><Timestamp dt:dt="int">0</Timestamp><DateUtc dt:dt="string">2015-08-07T13:35:18Z</DateUtc></StartTime><FrequencyChanges><FrequencyChange><Frequency dt:dt="r8">2612324</Frequency><Timestamp dt:dt="r8">47334296531</Timestamp><Current dt:dt="r8">0</Current><DateUtc dt:dt="string">2015-08-07T13:35:18Z</DateUtc></FrequencyChange></FrequencyChanges></Clock>\n	1 ver1_main_procedure-2-1	99.935	1.0.0.880	2	as	90156507	prawa	1	2.0.10.182	08-07-2015	2015-08-07 13:35:19	15:35:19	mezczyzna	2.0.10.92	3	3	1	1																							l	{SPACE}		no	BlockProc1		BlockList									71	Cued	d	color_orange.png		-1	14	495749	460																			2					75	prime_right.png	0	495229	0	0	13	0	495229	0	495229	1	495229	20	0	-1	493730	495229	495228	0	prime_right.png	TrialProc1	left	0		0	10	495539	-495539		0	0	TrialList1	target_left.png	1	d	-1	3	495279	260	d	455	495734												2	1	71				neut			450
1 ver1_main_procedure	2	1	21	<?xml version="1.0"?>\n<Clock xmlns:dt="urn:schemas-microsoft-com:datatypes"><Description dt:dt="string">E-Prime Primary Realtime Clock</Description><StartTime><Timestamp dt:dt="int">0</Timestamp><DateUtc dt:dt="string">2015-08-07T13:35:18Z</DateUtc></StartTime><FrequencyChanges><FrequencyChange><Frequency dt:dt="r8">2612324</Frequency><Timestamp dt:dt="r8">47334296531</Timestamp><Current dt:dt="r8">0</Current><DateUtc dt:dt="string">2015-08-07T13:35:18Z</DateUtc></FrequencyChange></FrequencyChanges></Clock>\n	1 ver1_main_procedure-2-1	99.935	1.0.0.880	2	as	90156507	prawa	1	2.0.10.182	08-07-2015	2015-08-07 13:35:19	15:35:19	mezczyzna	2.0.10.92	3	3	1	1																							l	{SPACE}		no	BlockProc1		BlockList									72	Cued	l	color_yellow.png		-1	6	498461	310																								75	prime_right.png	0	498021	0	0	13	0	498021	0	498021	1	498021	20	0	-1	496522	498021	498020	0		TrialProc1	right	0		0	10	498331	-498331		0	0	TrialList1	target_right.png	1	l	-1	3	498071	260	l	383	498454												4	1	72				comp			300
1 ver1_main_procedure	2	1	21	<?xml version="1.0"?>\n<Clock xmlns:dt="urn:schemas-microsoft-com:datatypes"><Description dt:dt="string">E-Prime Primary Realtime Clock</Description><StartTime><Timestamp dt:dt="int">0</Timestamp><DateUtc dt:dt="string">2015-08-07T13:35:18Z</DateUtc></StartTime><FrequencyChanges><FrequencyChange><Frequency dt:dt="r8">2612324</Frequency><Timestamp dt:dt="r8">47334296531</Timestamp><Current dt:dt="r8">0</Current><DateUtc dt:dt="string">2015-08-07T13:35:18Z</DateUtc></FrequencyChange></FrequencyChanges></Clock>\n	1 ver1_main_procedure-2-1	99.935	1.0.0.880	2	as	90156507	prawa	1	2.0.10.182	08-07-2015	2015-08-07 13:35:19	15:35:19	mezczyzna	2.0.10.92	3	3	1	1																							l	{SPACE}		no	BlockProc1		BlockList									73									4	1	6	3	5	2	color_yellow.png	color_purple.png	color_red.png	color_green.png	color_orange.png	color_blue.png	color_purple.png	color_blue.png	color_green.png	color_yellow.png	color_orange.png	color_red.png		1	1	1	43159																						DragProc											Ocena																															
1 ver1_main_procedure	2	1	21	<?xml version="1.0"?>\n<Clock xmlns:dt="urn:schemas-microsoft-com:datatypes"><Description dt:dt="string">E-Prime Primary Realtime Clock</Description><StartTime><Timestamp dt:dt="int">0</Timestamp><DateUtc dt:dt="string">2015-08-07T13:35:18Z</DateUtc></StartTime><FrequencyChanges><FrequencyChange><Frequency dt:dt="r8">2612324</Frequency><Timestamp dt:dt="r8">47334296531</Timestamp><Current dt:dt="r8">0</Current><DateUtc dt:dt="string">2015-08-07T13:35:18Z</DateUtc></FrequencyChange></FrequencyChanges></Clock>\n	1 ver1_main_procedure-2-1	99.935	1.0.0.880	2	as	90156507	prawa	1	2.0.10.182	08-07-2015	2015-08-07 13:35:19	15:35:19	mezczyzna	2.0.10.92	3	3	1	1																							l	{SPACE}		no	BlockProc1		BlockList									74															color_yellow.png	color_purple.png	color_red.png	color_green.png	color_orange.png	color_blue.png								2	1	2																							EnterProc											Ocena												67	78	83	86	92	96														
1 ver1_main_procedure	2	1	21	<?xml version="1.0"?>\n<Clock xmlns:dt="urn:schemas-microsoft-com:datatypes"><Description dt:dt="string">E-Prime Primary Realtime Clock</Description><StartTime><Timestamp dt:dt="int">0</Timestamp><DateUtc dt:dt="string">2015-08-07T13:35:18Z</DateUtc></StartTime><FrequencyChanges><FrequencyChange><Frequency dt:dt="r8">2612324</Frequency><Timestamp dt:dt="r8">47334296531</Timestamp><Current dt:dt="r8">0</Current><DateUtc dt:dt="string">2015-08-07T13:35:18Z</DateUtc></FrequencyChange></FrequencyChanges></Clock>\n	1 ver1_main_procedure-2-1	99.935	1.0.0.880	2	as	90156507	prawa	1	2.0.10.182	08-07-2015	2015-08-07 13:35:19	15:35:19	mezczyzna	2.0.10.92	4	1	1	2																							l	{SPACE}		no	BlockProc1		BlockList									1	Cued	l	color_blue.png		-1	7	654152	160																								75	prime_left.png	0	653632	0	0	13	0	653632	0	653632	1	653632	20	0	-1	652133	653632	653631	0		TrialProc1	right	0		0	10	653942	-653942		0	0	TrialList1	target_right.png	1	l	-1	3	653682	260	l	462	654144												6	2	73				incomp			150
1 ver1_main_procedure	2	1	21	<?xml version="1.0"?>\n<Clock xmlns:dt="urn:schemas-microsoft-com:datatypes"><Description dt:dt="string">E-Prime Primary Realtime Clock</Description><StartTime><Timestamp dt:dt="int">0</Timestamp><DateUtc dt:dt="string">2015-08-07T13:35:18Z</DateUtc></StartTime><FrequencyChanges><FrequencyChange><Frequency dt:dt="r8">2612324</Frequency><Timestamp dt:dt="r8">47334296531</Timestamp><Current dt:dt="r8">0</Current><DateUtc dt:dt="string">2015-08-07T13:35:18Z</DateUtc></FrequencyChange></FrequencyChanges></Clock>\n	1 ver1_main_procedure-2-1	99.935	1.0.0.880	2	as	90156507	prawa	1	2.0.10.182	08-07-2015	2015-08-07 13:35:19	15:35:19	mezczyzna	2.0.10.92	4	1	1	2																							l	{SPACE}		no	BlockProc1		BlockList									2	Free	dl	color_purple.png		-1	15	656664	160																			1					75	prime_left.png	0	656123	0	0	13	1	656124	1	656124	0	656123	20	0	-1	654624	656123	656123	0	prime_left.png	TrialProc1	right	0		0	11	656434	-656434		0	0	TrialList1	target_both.png	0	dl	-1	3	656173	261	l	475	656648												11	2	74				neut			150
1 ver1_main_procedure	2	1	21	<?xml version="1.0"?>\n<Clock xmlns:dt="urn:schemas-microsoft-com:datatypes"><Description dt:dt="string">E-Prime Primary Realtime Clock</Description><StartTime><Timestamp dt:dt="int">0</Timestamp><DateUtc dt:dt="string">2015-08-07T13:35:18Z</DateUtc></StartTime><FrequencyChanges><FrequencyChange><Frequency dt:dt="r8">2612324</Frequency><Timestamp dt:dt="r8">47334296531</Timestamp><Current dt:dt="r8">0</Current><DateUtc dt:dt="string">2015-08-07T13:35:18Z</DateUtc></FrequencyChange></FrequencyChanges></Clock>\n	1 ver1_main_procedure-2-1	99.935	1.0.0.880	2	as	90156507	prawa	1	2.0.10.182	08-07-2015	2015-08-07 13:35:19	15:35:19	mezczyzna	2.0.10.92	4	1	1	2																							l	{SPACE}		no	BlockProc1		BlockList									3	Cued	l	color_blue.png		-1	8	659185	310																								25	prime_left.png	0	658635	0	0	13	0	658635	0	658635	1	658635	20	0	-1	657136	658635	658634	0		TrialProc1	right	0		0	10	658945	-658945		0	0	TrialList1	target_right.png	1	l	-1	3	658685	260	l	491	659176												6	2	75				incomp			300
1 ver1_main_procedure	2	1	21	<?xml version="1.0"?>\n<Clock xmlns:dt="urn:schemas-microsoft-com:datatypes"><Description dt:dt="string">E-Prime Primary Realtime Clock</Description><StartTime><Timestamp dt:dt="int">0</Timestamp><DateUtc dt:dt="string">2015-08-07T13:35:18Z</DateUtc></StartTime><FrequencyChanges><FrequencyChange><Frequency dt:dt="r8">2612324</Frequency><Timestamp dt:dt="r8">47334296531</Timestamp><Current dt:dt="r8">0</Current><DateUtc dt:dt="string">2015-08-07T13:35:18Z</DateUtc></FrequencyChange></FrequencyChanges></Clock>\n	1 ver1_main_procedure-2-1	99.935	1.0.0.880	2	as	90156507	prawa	1	2.0.10.182	08-07-2015	2015-08-07 13:35:19	15:35:19	mezczyzna	2.0.10.92	4	1	1	2																							l	{SPACE}		no	BlockProc1		BlockList									4	Free	dl	color_blue.png		-1	12	661877	310																								25	prime_left.png	1	661307	0	0	13	1	661307	1	661307	0	661306	20	0	-1	659807	661306	661306	0		TrialProc1	right	0		0	11	661617	-661617		0	0	TrialList1	target_both.png	0	dl	-1	3	661356	261	l	508	661864												12	2	76				incomp			300
1 ver1_main_procedure	2	1	21	<?xml version="1.0"?>\n<Clock xmlns:dt="urn:schemas-microsoft-com:datatypes"><Description dt:dt="string">E-Prime Primary Realtime Clock</Description><StartTime><Timestamp dt:dt="int">0</Timestamp><DateUtc dt:dt="string">2015-08-07T13:35:18Z</DateUtc></StartTime><FrequencyChanges><FrequencyChange><Frequency dt:dt="r8">2612324</Frequency><Timestamp dt:dt="r8">47334296531</Timestamp><Current dt:dt="r8">0</Current><DateUtc dt:dt="string">2015-08-07T13:35:18Z</DateUtc></FrequencyChange></FrequencyChanges></Clock>\n	1 ver1_main_procedure-2-1	99.935	1.0.0.880	2	as	90156507	prawa	1	2.0.10.182	08-07-2015	2015-08-07 13:35:19	15:35:19	mezczyzna	2.0.10.92	4	1	1	2																							l	{SPACE}		no	BlockProc1		BlockList									5	Cued	l	color_blue.png		-1	13	664478	160																								25	prime_left.png	0	663998	0	0	13	0	663998	0	663998	1	663998	20	0	-1	662499	663998	663997	0		TrialProc1	right	0		0	10	664308	-664308		0	0	TrialList1	target_right.png	1	l	-1	3	664048	260	l	416	664464												6	2	77				incomp			150
1 ver1_main_procedure	2	1	21	<?xml version="1.0"?>\n<Clock xmlns:dt="urn:schemas-microsoft-com:datatypes"><Description dt:dt="string">E-Prime Primary Realtime Clock</Description><StartTime><Timestamp dt:dt="int">0</Timestamp><DateUtc dt:dt="string">2015-08-07T13:35:18Z</DateUtc></StartTime><FrequencyChanges><FrequencyChange><Frequency dt:dt="r8">2612324</Frequency><Timestamp dt:dt="r8">47334296531</Timestamp><Current dt:dt="r8">0</Current><DateUtc dt:dt="string">2015-08-07T13:35:18Z</DateUtc></FrequencyChange></FrequencyChanges></Clock>\n	1 ver1_main_procedure-2-1	99.935	1.0.0.880	2	as	90156507	prawa	1	2.0.10.182	08-07-2015	2015-08-07 13:35:19	15:35:19	mezczyzna	2.0.10.92	4	1	1	2																							l	{SPACE}		no	BlockProc1		BlockList									6	Cued	d	color_orange.png		-1	15	666960	460																								25	prime_left.png	1	666450	0	0	13	1	666450	1	666450	0	666449	20	0	-1	664950	666449	666449	0		TrialProc1	left	0		0	11	666760	-666760		0	0	TrialList1	target_left.png	1	d	-1	3	666499	261	d	445	666944												1	2	78				comp			450
1 ver1_main_procedure	2	1	21	<?xml version="1.0"?>\n<Clock xmlns:dt="urn:schemas-microsoft-com:datatypes"><Description dt:dt="string">E-Prime Primary Realtime Clock</Description><StartTime><Timestamp dt:dt="int">0</Timestamp><DateUtc dt:dt="string">2015-08-07T13:35:18Z</DateUtc></StartTime><FrequencyChanges><FrequencyChange><Frequency dt:dt="r8">2612324</Frequency><Timestamp dt:dt="r8">47334296531</Timestamp><Current dt:dt="r8">0</Current><DateUtc dt:dt="string">2015-08-07T13:35:18Z</DateUtc></FrequencyChange></FrequencyChanges></Clock>\n	1 ver1_main_procedure-2-1	99.935	1.0.0.880	2	as	90156507	prawa	1	2.0.10.182	08-07-2015	2015-08-07 13:35:19	15:35:19	mezczyzna	2.0.10.92	4	1	1	2																							l	{SPACE}		no	BlockProc1		BlockList									7	Cued	l	color_purple.png		-1	14	669671	311																			2					25	prime_right.png	0	669231	0	0	13	0	669231	0	669231	1	669231	20	0	-1	667732	669231	669230	0	prime_right.png	TrialProc1	right	0		1	10	669541	-669541		0	0	TrialList1	target_right.png	1	l	-1	3	669281	260	l	375	669656												5	2	79				neut			300
1 ver1_main_procedure	2	1	21	<?xml version="1.0"?>\n<Clock xmlns:dt="urn:schemas-microsoft-com:datatypes"><Description dt:dt="string">E-Prime Primary Realtime Clock</Description><StartTime><Timestamp dt:dt="int">0</Timestamp><DateUtc dt:dt="string">2015-08-07T13:35:18Z</DateUtc></StartTime><FrequencyChanges><FrequencyChange><Frequency dt:dt="r8">2612324</Frequency><Timestamp dt:dt="r8">47334296531</Timestamp><Current dt:dt="r8">0</Current><DateUtc dt:dt="string">2015-08-07T13:35:18Z</DateUtc></FrequencyChange></FrequencyChanges></Clock>\n	1 ver1_main_procedure-2-1	99.935	1.0.0.880	2	as	90156507	prawa	1	2.0.10.182	08-07-2015	2015-08-07 13:35:19	15:35:19	mezczyzna	2.0.10.92	4	1	1	2																							l	{SPACE}		no	BlockProc1		BlockList									8	Cued	l	color_red.png		-1	10	672163	460																								25	prime_right.png	0	671793	0	0	13	0	671793	0	671793	1	671793	20	0	-1	670293	671793	671792	0		TrialProc1	right	0		0	10	672103	-672103		0	0	TrialList1	target_right.png	1	l	-1	3	671843	260	l	309	672152												4	2	80				comp			450
1 ver1_main_procedure	2	1	21	<?xml version="1.0"?>\n<Clock xmlns:dt="urn:schemas-microsoft-com:datatypes"><Description dt:dt="string">E-Prime Primary Realtime Clock</Description><StartTime><Timestamp dt:dt="int">0</Timestamp><DateUtc dt:dt="string">2015-08-07T13:35:18Z</DateUtc></StartTime><FrequencyChanges><FrequencyChange><Frequency dt:dt="r8">2612324</Frequency><Timestamp dt:dt="r8">47334296531</Timestamp><Current dt:dt="r8">0</Current><DateUtc dt:dt="string">2015-08-07T13:35:18Z</DateUtc></FrequencyChange></FrequencyChanges></Clock>\n	1 ver1_main_procedure-2-1	99.935	1.0.0.880	2	as	90156507	prawa	1	2.0.10.182	08-07-2015	2015-08-07 13:35:19	15:35:19	mezczyzna	2.0.10.92	4	1	1	2																							l	{SPACE}		no	BlockProc1		BlockList									9	Free	dl	color_red.png		-1	9	674874	461																								25	prime_right.png	0	674434	0	0	13	0	674434	0	674434	1	674434	20	0	-1	672935	674434	674433	0		TrialProc1	left	0		0	10	674744	-674744		0	0	TrialList1	target_both.png	0	dl	-1	3	674484	260	l	380	674864												9	2	81				incomp			450
1 ver1_main_procedure	2	1	21	<?xml version="1.0"?>\n<Clock xmlns:dt="urn:schemas-microsoft-com:datatypes"><Description dt:dt="string">E-Prime Primary Realtime Clock</Description><StartTime><Timestamp dt:dt="int">0</Timestamp><DateUtc dt:dt="string">2015-08-07T13:35:18Z</DateUtc></StartTime><FrequencyChanges><FrequencyChange><Frequency dt:dt="r8">2612324</Frequency><Timestamp dt:dt="r8">47334296531</Timestamp><Current dt:dt="r8">0</Current><DateUtc dt:dt="string">2015-08-07T13:35:18Z</DateUtc></FrequencyChange></FrequencyChanges></Clock>\n	1 ver1_main_procedure-2-1	99.935	1.0.0.880	2	as	90156507	prawa	1	2.0.10.182	08-07-2015	2015-08-07 13:35:19	15:35:19	mezczyzna	2.0.10.92	4	1	1	2																							l	{SPACE}		no	BlockProc1		BlockList									10	Free	dl	color_blue.png		-1	9	677626	460																								25	prime_left.png	0	677146	0	0	13	0	677146	0	677146	1	677146	20	0	-1	675647	677146	677145	0		TrialProc1	left	0		0	10	677456	-677456		0	0	TrialList1	target_both.png	0	dl	-1	3	677196	260	l	420	677616												7	2	82				comp			450
