ExperimentName	Subject	Session	Age	Clock.Information	DataFile.Basename	Display.RefreshRate	ExperimentVersion	Group	Name	RandomSeed	Recznosc	ResearcherID	RuntimeVersion	SessionDate	SessionStartDateTimeUtc	SessionTime	Sex	StudioVersion	Block	BlockList	BlockList.Cycle	BlockList.Sample	BlockNumber	GoodBye.RESP	GoodBye2.RESP	GoodByeList	GoodByeList.Cycle	GoodByeList.Sample	InstrList	InstrList.Cycle	InstrList.Sample	Instructions3.RESP	Instructions4.RESP	Instructions5.RESP	kobieta_S1	kobieta_S2	kobieta_S3	kobieta_S4	kobieta_S5	mezczyzna_S1	mezczyzna_S2	mezczyzna_S3	mezczyzna_S4	mezczyzna_S5	NextBlock.RESP	NextBlock0.RESP	planowanie	PracticeMode	Procedure[Block]	proszenie	Running[Block]	TrainingList	TrainingList.Cycle	TrainingList.Sample	WordList	WordList1	wykonanie	zauwazenie	zrozumienie	Trial	ChoiceType	CorrectRespon	Effect	ErrorText	Fixation2.DurationError	Fixation2.OnsetDelay	Fixation2.OnsetTime	Fixation2.OnsetToOnsetTime	GoalRespInd1	GoalRespInd2	GoalRespInd3	GoalRespInd4	GoalRespInd5	GoalRespInd6	GoalRespName1	GoalRespName2	GoalRespName3	GoalRespName4	GoalRespName5	GoalRespName6	kol1	kol2	kol3	kol4	kol5	kol6	NeutralPrimeList1	Ocena	Ocena.Cycle	Ocena.Sample	OverallRT	Posit	Prime	Prime.ActionDelay	Prime.ActionTime	Prime.CustomOffsetTime	Prime.CustomOnsetTime	Prime.Duration	Prime.DurationError	Prime.FinishTime	Prime.OffsetDelay	Prime.OffsetTime	Prime.OnsetDelay	Prime.OnsetTime	Prime.OnsetToOnsetTime	Prime.PendingInputMasks	Prime.PreRelease	Prime.StartTime	Prime.TargetOffsetTime	Prime.TargetOnsetTime	Prime.TimingMode	PrimeChoice	Procedure[Trial]	Resp	RespWin.ACC	RespWin.CRESP	RespWin.DurationError	RespWin.OnsetDelay	RespWin.OnsetTime	RespWin.OnsetToOnsetTime	RespWin.RESP	RespWin.RT	RespWin.RTTime	Running[Trial]	Target	TargetSlide.ACC	TargetSlide.CRESP	TargetSlide.DurationError	TargetSlide.OnsetDelay	TargetSlide.OnsetTime	TargetSlide.OnsetToOnsetTime	TargetSlide.RESP	TargetSlide.RT	TargetSlide.RTTime	TargetTraining	TBox1	TBox2	TBox3	TBox4	TBox5	TBox6	TrainingList1	TrainingList1.Cycle	TrainingList1.Sample	TrCorrectResp	TrialList1	TrialList1.Cycle	TrialList1.Sample	TrialList2	TrialList2.Cycle	TrialList2.Sample	TrialType	TrPosit	TrWaitTime	WaitTime
1 ver1_main_procedure	21	1	33	<?xml version="1.0"?>\n<Clock xmlns:dt="urn:schemas-microsoft-com:datatypes"><Description dt:dt="string">E-Prime Primary Realtime Clock</Description><StartTime><Timestamp dt:dt="int">0</Timestamp><DateUtc dt:dt="string">2015-08-13T11:49:21Z</DateUtc></StartTime><FrequencyChanges><FrequencyChange><Frequency dt:dt="r8">2612294</Frequency><Timestamp dt:dt="r8">18236663306</Timestamp><Current dt:dt="r8">0</Current><DateUtc dt:dt="string">2015-08-13T11:49:21Z</DateUtc></FrequencyChange></FrequencyChanges></Clock>\n	1 ver1_main_procedure-21-1	99.938	1.0.0.880	1	il	1057298980	prawa	1	2.0.10.182	08-13-2015	2015-08-13 11:49:21	13:49:21	kobieta	2.0.10.92	1										1	1	1	{SPACE}	{SPACE}	d	poproszona	planowała	zrozumiałaś	wykonała		poproszony	planował	zrozumiałeś	wykonał				planowała		InstrProc	poproszona	InstrList				1		wykonała		zrozumiałaś																																																																																																
1 ver1_main_procedure	21	1	33	<?xml version="1.0"?>\n<Clock xmlns:dt="urn:schemas-microsoft-com:datatypes"><Description dt:dt="string">E-Prime Primary Realtime Clock</Description><StartTime><Timestamp dt:dt="int">0</Timestamp><DateUtc dt:dt="string">2015-08-13T11:49:21Z</DateUtc></StartTime><FrequencyChanges><FrequencyChange><Frequency dt:dt="r8">2612294</Frequency><Timestamp dt:dt="r8">18236663306</Timestamp><Current dt:dt="r8">0</Current><DateUtc dt:dt="string">2015-08-13T11:49:21Z</DateUtc></FrequencyChange></FrequencyChanges></Clock>\n	1 ver1_main_procedure-21-1	99.938	1.0.0.880	1	il	1057298980	prawa	1	2.0.10.182	08-13-2015	2015-08-13 11:49:21	13:49:21	kobieta	2.0.10.92	2																														TrainingProc1		TrainingList	1	1	1						1																																																					TrainProc											TrainingList1											target_both.png							3	1	1	dl								25	300	
1 ver1_main_procedure	21	1	33	<?xml version="1.0"?>\n<Clock xmlns:dt="urn:schemas-microsoft-com:datatypes"><Description dt:dt="string">E-Prime Primary Realtime Clock</Description><StartTime><Timestamp dt:dt="int">0</Timestamp><DateUtc dt:dt="string">2015-08-13T11:49:21Z</DateUtc></StartTime><FrequencyChanges><FrequencyChange><Frequency dt:dt="r8">2612294</Frequency><Timestamp dt:dt="r8">18236663306</Timestamp><Current dt:dt="r8">0</Current><DateUtc dt:dt="string">2015-08-13T11:49:21Z</DateUtc></FrequencyChange></FrequencyChanges></Clock>\n	1 ver1_main_procedure-21-1	99.938	1.0.0.880	1	il	1057298980	prawa	1	2.0.10.182	08-13-2015	2015-08-13 11:49:21	13:49:21	kobieta	2.0.10.92	2																														TrainingProc1		TrainingList	1	1	1						2																																																					TrainProc											TrainingList1											target_right.png							2	1	2	l								25	300	
1 ver1_main_procedure	21	1	33	<?xml version="1.0"?>\n<Clock xmlns:dt="urn:schemas-microsoft-com:datatypes"><Description dt:dt="string">E-Prime Primary Realtime Clock</Description><StartTime><Timestamp dt:dt="int">0</Timestamp><DateUtc dt:dt="string">2015-08-13T11:49:21Z</DateUtc></StartTime><FrequencyChanges><FrequencyChange><Frequency dt:dt="r8">2612294</Frequency><Timestamp dt:dt="r8">18236663306</Timestamp><Current dt:dt="r8">0</Current><DateUtc dt:dt="string">2015-08-13T11:49:21Z</DateUtc></FrequencyChange></FrequencyChanges></Clock>\n	1 ver1_main_procedure-21-1	99.938	1.0.0.880	1	il	1057298980	prawa	1	2.0.10.182	08-13-2015	2015-08-13 11:49:21	13:49:21	kobieta	2.0.10.92	2																														TrainingProc1		TrainingList	1	1	1						3																																																					TrainProc											TrainingList1											target_left.png							1	1	3	d								25	450	
1 ver1_main_procedure	21	1	33	<?xml version="1.0"?>\n<Clock xmlns:dt="urn:schemas-microsoft-com:datatypes"><Description dt:dt="string">E-Prime Primary Realtime Clock</Description><StartTime><Timestamp dt:dt="int">0</Timestamp><DateUtc dt:dt="string">2015-08-13T11:49:21Z</DateUtc></StartTime><FrequencyChanges><FrequencyChange><Frequency dt:dt="r8">2612294</Frequency><Timestamp dt:dt="r8">18236663306</Timestamp><Current dt:dt="r8">0</Current><DateUtc dt:dt="string">2015-08-13T11:49:21Z</DateUtc></FrequencyChange></FrequencyChanges></Clock>\n	1 ver1_main_procedure-21-1	99.938	1.0.0.880	1	il	1057298980	prawa	1	2.0.10.182	08-13-2015	2015-08-13 11:49:21	13:49:21	kobieta	2.0.10.92	2																														TrainingProc1		TrainingList	1	1	1						4																																																					TrainProc											TrainingList1											target_right.png							2	1	4	l								75	450	
1 ver1_main_procedure	21	1	33	<?xml version="1.0"?>\n<Clock xmlns:dt="urn:schemas-microsoft-com:datatypes"><Description dt:dt="string">E-Prime Primary Realtime Clock</Description><StartTime><Timestamp dt:dt="int">0</Timestamp><DateUtc dt:dt="string">2015-08-13T11:49:21Z</DateUtc></StartTime><FrequencyChanges><FrequencyChange><Frequency dt:dt="r8">2612294</Frequency><Timestamp dt:dt="r8">18236663306</Timestamp><Current dt:dt="r8">0</Current><DateUtc dt:dt="string">2015-08-13T11:49:21Z</DateUtc></FrequencyChange></FrequencyChanges></Clock>\n	1 ver1_main_procedure-21-1	99.938	1.0.0.880	1	il	1057298980	prawa	1	2.0.10.182	08-13-2015	2015-08-13 11:49:21	13:49:21	kobieta	2.0.10.92	2																														TrainingProc1		TrainingList	1	1	1						5																																																					TrainProc											TrainingList1											target_left.png							1	1	5	d								75	300	
1 ver1_main_procedure	21	1	33	<?xml version="1.0"?>\n<Clock xmlns:dt="urn:schemas-microsoft-com:datatypes"><Description dt:dt="string">E-Prime Primary Realtime Clock</Description><StartTime><Timestamp dt:dt="int">0</Timestamp><DateUtc dt:dt="string">2015-08-13T11:49:21Z</DateUtc></StartTime><FrequencyChanges><FrequencyChange><Frequency dt:dt="r8">2612294</Frequency><Timestamp dt:dt="r8">18236663306</Timestamp><Current dt:dt="r8">0</Current><DateUtc dt:dt="string">2015-08-13T11:49:21Z</DateUtc></FrequencyChange></FrequencyChanges></Clock>\n	1 ver1_main_procedure-21-1	99.938	1.0.0.880	1	il	1057298980	prawa	1	2.0.10.182	08-13-2015	2015-08-13 11:49:21	13:49:21	kobieta	2.0.10.92	2																														TrainingProc1		TrainingList	1	1	1						6																																																					TrainProc											TrainingList1											target_left.png							1	1	6	d								75	150	
1 ver1_main_procedure	21	1	33	<?xml version="1.0"?>\n<Clock xmlns:dt="urn:schemas-microsoft-com:datatypes"><Description dt:dt="string">E-Prime Primary Realtime Clock</Description><StartTime><Timestamp dt:dt="int">0</Timestamp><DateUtc dt:dt="string">2015-08-13T11:49:21Z</DateUtc></StartTime><FrequencyChanges><FrequencyChange><Frequency dt:dt="r8">2612294</Frequency><Timestamp dt:dt="r8">18236663306</Timestamp><Current dt:dt="r8">0</Current><DateUtc dt:dt="string">2015-08-13T11:49:21Z</DateUtc></FrequencyChange></FrequencyChanges></Clock>\n	1 ver1_main_procedure-21-1	99.938	1.0.0.880	1	il	1057298980	prawa	1	2.0.10.182	08-13-2015	2015-08-13 11:49:21	13:49:21	kobieta	2.0.10.92	2																														TrainingProc1		TrainingList	1	1	1						7																																																					TrainProc											TrainingList1											target_both.png							3	1	7	dl								75	450	
1 ver1_main_procedure	21	1	33	<?xml version="1.0"?>\n<Clock xmlns:dt="urn:schemas-microsoft-com:datatypes"><Description dt:dt="string">E-Prime Primary Realtime Clock</Description><StartTime><Timestamp dt:dt="int">0</Timestamp><DateUtc dt:dt="string">2015-08-13T11:49:21Z</DateUtc></StartTime><FrequencyChanges><FrequencyChange><Frequency dt:dt="r8">2612294</Frequency><Timestamp dt:dt="r8">18236663306</Timestamp><Current dt:dt="r8">0</Current><DateUtc dt:dt="string">2015-08-13T11:49:21Z</DateUtc></FrequencyChange></FrequencyChanges></Clock>\n	1 ver1_main_procedure-21-1	99.938	1.0.0.880	1	il	1057298980	prawa	1	2.0.10.182	08-13-2015	2015-08-13 11:49:21	13:49:21	kobieta	2.0.10.92	2																														TrainingProc1		TrainingList	1	1	1						8																																																					TrainProc											TrainingList1											target_both.png							3	1	8	dl								75	150	
1 ver1_main_procedure	21	1	33	<?xml version="1.0"?>\n<Clock xmlns:dt="urn:schemas-microsoft-com:datatypes"><Description dt:dt="string">E-Prime Primary Realtime Clock</Description><StartTime><Timestamp dt:dt="int">0</Timestamp><DateUtc dt:dt="string">2015-08-13T11:49:21Z</DateUtc></StartTime><FrequencyChanges><FrequencyChange><Frequency dt:dt="r8">2612294</Frequency><Timestamp dt:dt="r8">18236663306</Timestamp><Current dt:dt="r8">0</Current><DateUtc dt:dt="string">2015-08-13T11:49:21Z</DateUtc></FrequencyChange></FrequencyChanges></Clock>\n	1 ver1_main_procedure-21-1	99.938	1.0.0.880	1	il	1057298980	prawa	1	2.0.10.182	08-13-2015	2015-08-13 11:49:21	13:49:21	kobieta	2.0.10.92	2																														TrainingProc1		TrainingList	1	1	1						9																																																					TrainProc											TrainingList1											target_right.png							2	1	9	l								25	300	
1 ver1_main_procedure	21	1	33	<?xml version="1.0"?>\n<Clock xmlns:dt="urn:schemas-microsoft-com:datatypes"><Description dt:dt="string">E-Prime Primary Realtime Clock</Description><StartTime><Timestamp dt:dt="int">0</Timestamp><DateUtc dt:dt="string">2015-08-13T11:49:21Z</DateUtc></StartTime><FrequencyChanges><FrequencyChange><Frequency dt:dt="r8">2612294</Frequency><Timestamp dt:dt="r8">18236663306</Timestamp><Current dt:dt="r8">0</Current><DateUtc dt:dt="string">2015-08-13T11:49:21Z</DateUtc></FrequencyChange></FrequencyChanges></Clock>\n	1 ver1_main_procedure-21-1	99.938	1.0.0.880	1	il	1057298980	prawa	1	2.0.10.182	08-13-2015	2015-08-13 11:49:21	13:49:21	kobieta	2.0.10.92	3	5	1	1																							l	{SPACE}		no	BlockProc2		BlockList									1	Free	dl	color_red.png		-1	13	359953	160																			1					25	prime_left.png	0	359283	0	0	13	0	359283	0	359283	1	359283	20	0	-1	357783	359283	359282	0	prime_left.png	TrialProc1	right	0		0	20	359603	-359603		0	0	TrialList2	target_both.png	0	dl	-1	3	359333	270	l	606	359939															11	1	1	neut			150
1 ver1_main_procedure	21	1	33	<?xml version="1.0"?>\n<Clock xmlns:dt="urn:schemas-microsoft-com:datatypes"><Description dt:dt="string">E-Prime Primary Realtime Clock</Description><StartTime><Timestamp dt:dt="int">0</Timestamp><DateUtc dt:dt="string">2015-08-13T11:49:21Z</DateUtc></StartTime><FrequencyChanges><FrequencyChange><Frequency dt:dt="r8">2612294</Frequency><Timestamp dt:dt="r8">18236663306</Timestamp><Current dt:dt="r8">0</Current><DateUtc dt:dt="string">2015-08-13T11:49:21Z</DateUtc></FrequencyChange></FrequencyChanges></Clock>\n	1 ver1_main_procedure-21-1	99.938	1.0.0.880	1	il	1057298980	prawa	1	2.0.10.182	08-13-2015	2015-08-13 11:49:21	13:49:21	kobieta	2.0.10.92	3	5	1	1																							l	{SPACE}		no	BlockProc2		BlockList									2	Free	dl	color_yellow.png		-1	6	362585	310																								25	prime_right.png	0	361924	0	0	13	0	361924	0	361924	1	361924	20	0	-1	360425	361924	361923	0		TrialProc1	left	0		0	10	362234	-362234		0	0	TrialList2	target_both.png	0	dl	-1	3	361974	260	l	605	362579															9	1	2	incomp			300
1 ver1_main_procedure	21	1	33	<?xml version="1.0"?>\n<Clock xmlns:dt="urn:schemas-microsoft-com:datatypes"><Description dt:dt="string">E-Prime Primary Realtime Clock</Description><StartTime><Timestamp dt:dt="int">0</Timestamp><DateUtc dt:dt="string">2015-08-13T11:49:21Z</DateUtc></StartTime><FrequencyChanges><FrequencyChange><Frequency dt:dt="r8">2612294</Frequency><Timestamp dt:dt="r8">18236663306</Timestamp><Current dt:dt="r8">0</Current><DateUtc dt:dt="string">2015-08-13T11:49:21Z</DateUtc></FrequencyChange></FrequencyChanges></Clock>\n	1 ver1_main_procedure-21-1	99.938	1.0.0.880	1	il	1057298980	prawa	1	2.0.10.182	08-13-2015	2015-08-13 11:49:21	13:49:21	kobieta	2.0.10.92	3	5	1	1																							l	{SPACE}		no	BlockProc2		BlockList									3	Cued	d	color_orange.png		-1	11	365286	160																								25	prime_left.png	0	364706	0	0	13	0	364706	0	364706	1	364706	20	0	-1	363207	364706	364705	0		TrialProc1	left	0		0	10	365016	-365016		0	0	TrialList2	target_left.png	1	d	-1	3	364756	260	d	519	365275															1	1	3	comp			150
1 ver1_main_procedure	21	1	33	<?xml version="1.0"?>\n<Clock xmlns:dt="urn:schemas-microsoft-com:datatypes"><Description dt:dt="string">E-Prime Primary Realtime Clock</Description><StartTime><Timestamp dt:dt="int">0</Timestamp><DateUtc dt:dt="string">2015-08-13T11:49:21Z</DateUtc></StartTime><FrequencyChanges><FrequencyChange><Frequency dt:dt="r8">2612294</Frequency><Timestamp dt:dt="r8">18236663306</Timestamp><Current dt:dt="r8">0</Current><DateUtc dt:dt="string">2015-08-13T11:49:21Z</DateUtc></FrequencyChange></FrequencyChanges></Clock>\n	1 ver1_main_procedure-21-1	99.938	1.0.0.880	1	il	1057298980	prawa	1	2.0.10.182	08-13-2015	2015-08-13 11:49:21	13:49:21	kobieta	2.0.10.92	3	5	1	1																							l	{SPACE}		no	BlockProc2		BlockList									4	Free	dl	color_green.png		-1	15	367978	460																								25	prime_right.png	0	367257	0	0	13	0	367258	0	367257	1	367257	20	0	-1	365758	367257	367256	0		TrialProc1	right	0		0	11	367568	-367568		0	0	TrialList2	target_both.png	0	dl	-1	3	367307	261	d	656	367963															10	1	4	comp			450
1 ver1_main_procedure	21	1	33	<?xml version="1.0"?>\n<Clock xmlns:dt="urn:schemas-microsoft-com:datatypes"><Description dt:dt="string">E-Prime Primary Realtime Clock</Description><StartTime><Timestamp dt:dt="int">0</Timestamp><DateUtc dt:dt="string">2015-08-13T11:49:21Z</DateUtc></StartTime><FrequencyChanges><FrequencyChange><Frequency dt:dt="r8">2612294</Frequency><Timestamp dt:dt="r8">18236663306</Timestamp><Current dt:dt="r8">0</Current><DateUtc dt:dt="string">2015-08-13T11:49:21Z</DateUtc></FrequencyChange></FrequencyChanges></Clock>\n	1 ver1_main_procedure-21-1	99.938	1.0.0.880	1	il	1057298980	prawa	1	2.0.10.182	08-13-2015	2015-08-13 11:49:21	13:49:21	kobieta	2.0.10.92	3	5	1	1																							l	{SPACE}		no	BlockProc2		BlockList									5	Free	dl	color_yellow.png		-1	11	371110	160																								75	prime_right.png	0	370249	0	0	13	0	370249	0	370249	1	370249	20	0	-1	368750	370249	370248	0		TrialProc1	left	0		0	10	370559	-370559		0	0	TrialList2	target_both.png	0	dl	-1	3	370299	260	l	800	371099															9	1	5	incomp			150
1 ver1_main_procedure	21	1	33	<?xml version="1.0"?>\n<Clock xmlns:dt="urn:schemas-microsoft-com:datatypes"><Description dt:dt="string">E-Prime Primary Realtime Clock</Description><StartTime><Timestamp dt:dt="int">0</Timestamp><DateUtc dt:dt="string">2015-08-13T11:49:21Z</DateUtc></StartTime><FrequencyChanges><FrequencyChange><Frequency dt:dt="r8">2612294</Frequency><Timestamp dt:dt="r8">18236663306</Timestamp><Current dt:dt="r8">0</Current><DateUtc dt:dt="string">2015-08-13T11:49:21Z</DateUtc></FrequencyChange></FrequencyChanges></Clock>\n	1 ver1_main_procedure-21-1	99.938	1.0.0.880	1	il	1057298980	prawa	1	2.0.10.182	08-13-2015	2015-08-13 11:49:21	13:49:21	kobieta	2.0.10.92	3	5	1	1																							l	{SPACE}		no	BlockProc2		BlockList									6	Cued	l	color_red.png		-1	5	373881	160																			2					25	prime_right.png	0	373081	0	0	13	0	373081	0	373081	1	373081	20	0	-1	371582	373081	373080	0	prime_right.png	TrialProc1	right	0		0	10	373391	-373391		0	0	TrialList2	target_right.png	1	l	-1	3	373131	260	l	744	373875															5	1	6	neut			150
1 ver1_main_procedure	21	1	33	<?xml version="1.0"?>\n<Clock xmlns:dt="urn:schemas-microsoft-com:datatypes"><Description dt:dt="string">E-Prime Primary Realtime Clock</Description><StartTime><Timestamp dt:dt="int">0</Timestamp><DateUtc dt:dt="string">2015-08-13T11:49:21Z</DateUtc></StartTime><FrequencyChanges><FrequencyChange><Frequency dt:dt="r8">2612294</Frequency><Timestamp dt:dt="r8">18236663306</Timestamp><Current dt:dt="r8">0</Current><DateUtc dt:dt="string">2015-08-13T11:49:21Z</DateUtc></FrequencyChange></FrequencyChanges></Clock>\n	1 ver1_main_procedure-21-1	99.938	1.0.0.880	1	il	1057298980	prawa	1	2.0.10.182	08-13-2015	2015-08-13 11:49:21	13:49:21	kobieta	2.0.10.92	3	5	1	1																							l	{SPACE}		no	BlockProc2		BlockList									7	Free	dl	color_purple.png		-1	9	376533	160																			1					25	prime_left.png	1	375853	0	0	13	1	375853	1	375853	0	375852	21	0	-1	374353	375852	375852	0	prime_left.png	TrialProc1	left	0		0	10	376163	-376163		0	0	TrialList2	target_both.png	0	dl	-1	3	375903	260	d	620	376523															8	1	7	neut			150
1 ver1_main_procedure	21	1	33	<?xml version="1.0"?>\n<Clock xmlns:dt="urn:schemas-microsoft-com:datatypes"><Description dt:dt="string">E-Prime Primary Realtime Clock</Description><StartTime><Timestamp dt:dt="int">0</Timestamp><DateUtc dt:dt="string">2015-08-13T11:49:21Z</DateUtc></StartTime><FrequencyChanges><FrequencyChange><Frequency dt:dt="r8">2612294</Frequency><Timestamp dt:dt="r8">18236663306</Timestamp><Current dt:dt="r8">0</Current><DateUtc dt:dt="string">2015-08-13T11:49:21Z</DateUtc></FrequencyChange></FrequencyChanges></Clock>\n	1 ver1_main_procedure-21-1	99.938	1.0.0.880	1	il	1057298980	prawa	1	2.0.10.182	08-13-2015	2015-08-13 11:49:21	13:49:21	kobieta	2.0.10.92	3	5	1	1																							l	{SPACE}		no	BlockProc2		BlockList									8	Free	dl	color_yellow.png		-1	13	379465	460																								75	prime_right.png	0	378504	0	0	13	0	378504	0	378504	1	378504	20	0	-1	377005	378504	378503	0		TrialProc1	right	0		0	10	378814	-378814		0	0	TrialList2	target_both.png	0	dl	-1	3	378554	260	l	897	379451															10	1	8	comp			450
1 ver1_main_procedure	21	1	33	<?xml version="1.0"?>\n<Clock xmlns:dt="urn:schemas-microsoft-com:datatypes"><Description dt:dt="string">E-Prime Primary Realtime Clock</Description><StartTime><Timestamp dt:dt="int">0</Timestamp><DateUtc dt:dt="string">2015-08-13T11:49:21Z</DateUtc></StartTime><FrequencyChanges><FrequencyChange><Frequency dt:dt="r8">2612294</Frequency><Timestamp dt:dt="r8">18236663306</Timestamp><Current dt:dt="r8">0</Current><DateUtc dt:dt="string">2015-08-13T11:49:21Z</DateUtc></FrequencyChange></FrequencyChanges></Clock>\n	1 ver1_main_procedure-21-1	99.938	1.0.0.880	1	il	1057298980	prawa	1	2.0.10.182	08-13-2015	2015-08-13 11:49:21	13:49:21	kobieta	2.0.10.92	3	5	1	1																							l	{SPACE}		no	BlockProc2		BlockList									9	Free	dl	color_orange.png		-1	12	382376	461																								75	prime_left.png	0	381736	0	0	13	0	381736	0	381736	1	381736	20	0	-1	380237	381736	381735	0		TrialProc1	right	0		0	10	382046	-382046		0	0	TrialList2	target_both.png	0	dl	-1	3	381786	260	d	577	382363															12	1	9	incomp			450
1 ver1_main_procedure	21	1	33	<?xml version="1.0"?>\n<Clock xmlns:dt="urn:schemas-microsoft-com:datatypes"><Description dt:dt="string">E-Prime Primary Realtime Clock</Description><StartTime><Timestamp dt:dt="int">0</Timestamp><DateUtc dt:dt="string">2015-08-13T11:49:21Z</DateUtc></StartTime><FrequencyChanges><FrequencyChange><Frequency dt:dt="r8">2612294</Frequency><Timestamp dt:dt="r8">18236663306</Timestamp><Current dt:dt="r8">0</Current><DateUtc dt:dt="string">2015-08-13T11:49:21Z</DateUtc></FrequencyChange></FrequencyChanges></Clock>\n	1 ver1_main_procedure-21-1	99.938	1.0.0.880	1	il	1057298980	prawa	1	2.0.10.182	08-13-2015	2015-08-13 11:49:21	13:49:21	kobieta	2.0.10.92	3	5	1	1																							l	{SPACE}		no	BlockProc2		BlockList									10	Free	dl	color_blue.png		-1	14	385258	160																								25	prime_left.png	0	384648	0	0	13	0	384648	0	384648	1	384648	20	0	-1	383148	384648	384647	0		TrialProc1	right	0		0	10	384958	-384958		0	0	TrialList2	target_both.png	0	dl	-1	3	384698	260	l	545	385243															12	1	10	incomp			150
1 ver1_main_procedure	21	1	33	<?xml version="1.0"?>\n<Clock xmlns:dt="urn:schemas-microsoft-com:datatypes"><Description dt:dt="string">E-Prime Primary Realtime Clock</Description><StartTime><Timestamp dt:dt="int">0</Timestamp><DateUtc dt:dt="string">2015-08-13T11:49:21Z</DateUtc></StartTime><FrequencyChanges><FrequencyChange><Frequency dt:dt="r8">2612294</Frequency><Timestamp dt:dt="r8">18236663306</Timestamp><Current dt:dt="r8">0</Current><DateUtc dt:dt="string">2015-08-13T11:49:21Z</DateUtc></FrequencyChange></FrequencyChanges></Clock>\n	1 ver1_main_procedure-21-1	99.938	1.0.0.880	1	il	1057298980	prawa	1	2.0.10.182	08-13-2015	2015-08-13 11:49:21	13:49:21	kobieta	2.0.10.92	3	5	1	1																							l	{SPACE}		no	BlockProc2		BlockList									11	Cued	d	color_orange.png		-1	6	387810	310																								25	prime_left.png	0	387229	0	0	13	1	387230	1	387230	1	387229	20	0	-1	385730	387229	387228	0		TrialProc1	left	0		1	10	387539	-387539		0	0	TrialList2	target_left.png	1	d	-1	3	387279	260	d	524	387803															1	1	11	comp			300
1 ver1_main_procedure	21	1	33	<?xml version="1.0"?>\n<Clock xmlns:dt="urn:schemas-microsoft-com:datatypes"><Description dt:dt="string">E-Prime Primary Realtime Clock</Description><StartTime><Timestamp dt:dt="int">0</Timestamp><DateUtc dt:dt="string">2015-08-13T11:49:21Z</DateUtc></StartTime><FrequencyChanges><FrequencyChange><Frequency dt:dt="r8">2612294</Frequency><Timestamp dt:dt="r8">18236663306</Timestamp><Current dt:dt="r8">0</Current><DateUtc dt:dt="string">2015-08-13T11:49:21Z</DateUtc></FrequencyChange></FrequencyChanges></Clock>\n	1 ver1_main_procedure-21-1	99.938	1.0.0.880	1	il	1057298980	prawa	1	2.0.10.182	08-13-2015	2015-08-13 11:49:21	13:49:21	kobieta	2.0.10.92	3	5	1	1																							l	{SPACE}		no	BlockProc2		BlockList									12	Cued	d	color_purple.png		-1	11	390471	160																			2					25	prime_right.png	0	389931	0	0	13	0	389931	0	389931	1	389931	20	0	-1	388432	389931	389930	0	prime_right.png	TrialProc1	left	0		0	10	390241	-390241		0	0	TrialList2	target_left.png	1	d	-1	3	389981	260	d	478	390459															2	1	12	neut			150
1 ver1_main_procedure	21	1	33	<?xml version="1.0"?>\n<Clock xmlns:dt="urn:schemas-microsoft-com:datatypes"><Description dt:dt="string">E-Prime Primary Realtime Clock</Description><StartTime><Timestamp dt:dt="int">0</Timestamp><DateUtc dt:dt="string">2015-08-13T11:49:21Z</DateUtc></StartTime><FrequencyChanges><FrequencyChange><Frequency dt:dt="r8">2612294</Frequency><Timestamp dt:dt="r8">18236663306</Timestamp><Current dt:dt="r8">0</Current><DateUtc dt:dt="string">2015-08-13T11:49:21Z</DateUtc></FrequencyChange></FrequencyChanges></Clock>\n	1 ver1_main_procedure-21-1	99.938	1.0.0.880	1	il	1057298980	prawa	1	2.0.10.182	08-13-2015	2015-08-13 11:49:21	13:49:21	kobieta	2.0.10.92	3	5	1	1																							l	{SPACE}		no	BlockProc2		BlockList									13	Cued	l	color_yellow.png		-1	15	393283	310																								25	prime_right.png	0	392442	0	0	13	1	392443	1	392443	1	392442	20	0	-1	390943	392442	392441	0		TrialProc1	right	0		0	11	392753	-392753		0	0	TrialList2	target_right.png	1	l	-1	3	392492	261	l	775	393267															4	1	13	comp			300
1 ver1_main_procedure	21	1	33	<?xml version="1.0"?>\n<Clock xmlns:dt="urn:schemas-microsoft-com:datatypes"><Description dt:dt="string">E-Prime Primary Realtime Clock</Description><StartTime><Timestamp dt:dt="int">0</Timestamp><DateUtc dt:dt="string">2015-08-13T11:49:21Z</DateUtc></StartTime><FrequencyChanges><FrequencyChange><Frequency dt:dt="r8">2612294</Frequency><Timestamp dt:dt="r8">18236663306</Timestamp><Current dt:dt="r8">0</Current><DateUtc dt:dt="string">2015-08-13T11:49:21Z</DateUtc></FrequencyChange></FrequencyChanges></Clock>\n	1 ver1_main_procedure-21-1	99.938	1.0.0.880	1	il	1057298980	prawa	1	2.0.10.182	08-13-2015	2015-08-13 11:49:21	13:49:21	kobieta	2.0.10.92	3	5	1	1																							l	{SPACE}		no	BlockProc2		BlockList									14	Free	dl	color_purple.png		-1	15	395995	460																			1					25	prime_left.png	0	395404	0	0	13	0	395404	0	395404	1	395404	20	0	-1	393905	395404	395403	0	prime_left.png	TrialProc1	right	0		1	10	395714	-395714		0	0	TrialList2	target_both.png	0	dl	-1	3	395454	260	d	525	395979															11	1	14	neut			450
1 ver1_main_procedure	21	1	33	<?xml version="1.0"?>\n<Clock xmlns:dt="urn:schemas-microsoft-com:datatypes"><Description dt:dt="string">E-Prime Primary Realtime Clock</Description><StartTime><Timestamp dt:dt="int">0</Timestamp><DateUtc dt:dt="string">2015-08-13T11:49:21Z</DateUtc></StartTime><FrequencyChanges><FrequencyChange><Frequency dt:dt="r8">2612294</Frequency><Timestamp dt:dt="r8">18236663306</Timestamp><Current dt:dt="r8">0</Current><DateUtc dt:dt="string">2015-08-13T11:49:21Z</DateUtc></FrequencyChange></FrequencyChanges></Clock>\n	1 ver1_main_procedure-21-1	99.938	1.0.0.880	1	il	1057298980	prawa	1	2.0.10.182	08-13-2015	2015-08-13 11:49:21	13:49:21	kobieta	2.0.10.92	3	5	1	1																							l	{SPACE}		no	BlockProc2		BlockList									15	Free	dl	color_blue.png		-1	6	398866	160																								75	prime_left.png	0	398266	0	0	13	0	398266	0	398266	1	398266	20	0	-1	396767	398266	398265	0		TrialProc1	right	0		0	10	398576	-398576		0	0	TrialList2	target_both.png	0	dl	-1	3	398316	260	l	543	398859															12	1	15	incomp			150
1 ver1_main_procedure	21	1	33	<?xml version="1.0"?>\n<Clock xmlns:dt="urn:schemas-microsoft-com:datatypes"><Description dt:dt="string">E-Prime Primary Realtime Clock</Description><StartTime><Timestamp dt:dt="int">0</Timestamp><DateUtc dt:dt="string">2015-08-13T11:49:21Z</DateUtc></StartTime><FrequencyChanges><FrequencyChange><Frequency dt:dt="r8">2612294</Frequency><Timestamp dt:dt="r8">18236663306</Timestamp><Current dt:dt="r8">0</Current><DateUtc dt:dt="string">2015-08-13T11:49:21Z</DateUtc></FrequencyChange></FrequencyChanges></Clock>\n	1 ver1_main_procedure-21-1	99.938	1.0.0.880	1	il	1057298980	prawa	1	2.0.10.182	08-13-2015	2015-08-13 11:49:21	13:49:21	kobieta	2.0.10.92	3	5	1	1																							l	{SPACE}		no	BlockProc2		BlockList									16	Free	dl	color_purple.png		-1	8	401428	310																			2					75	prime_right.png	0	400837	0	0	13	1	400838	1	400838	0	400837	20	0	-1	399338	400837	400837	0	prime_right.png	TrialProc1	left	0		0	11	401148	-401148		0	0	TrialList2	target_both.png	0	dl	-1	3	400887	261	d	533	401420															8	1	16	neut			300
1 ver1_main_procedure	21	1	33	<?xml version="1.0"?>\n<Clock xmlns:dt="urn:schemas-microsoft-com:datatypes"><Description dt:dt="string">E-Prime Primary Realtime Clock</Description><StartTime><Timestamp dt:dt="int">0</Timestamp><DateUtc dt:dt="string">2015-08-13T11:49:21Z</DateUtc></StartTime><FrequencyChanges><FrequencyChange><Frequency dt:dt="r8">2612294</Frequency><Timestamp dt:dt="r8">18236663306</Timestamp><Current dt:dt="r8">0</Current><DateUtc dt:dt="string">2015-08-13T11:49:21Z</DateUtc></FrequencyChange></FrequencyChanges></Clock>\n	1 ver1_main_procedure-21-1	99.938	1.0.0.880	1	il	1057298980	prawa	1	2.0.10.182	08-13-2015	2015-08-13 11:49:21	13:49:21	kobieta	2.0.10.92	3	5	1	1																							l	{SPACE}		no	BlockProc2		BlockList									17	Free	dl	color_yellow.png		-1	5	404129	311																								25	prime_right.png	0	403549	0	0	13	0	403549	0	403549	1	403549	20	0	-1	402050	403549	403548	0		TrialProc1	left	0		0	10	403859	-403859		0	0	TrialList2	target_both.png	0	dl	-1	3	403599	260	l	525	404124															9	1	17	incomp			300
1 ver1_main_procedure	21	1	33	<?xml version="1.0"?>\n<Clock xmlns:dt="urn:schemas-microsoft-com:datatypes"><Description dt:dt="string">E-Prime Primary Realtime Clock</Description><StartTime><Timestamp dt:dt="int">0</Timestamp><DateUtc dt:dt="string">2015-08-13T11:49:21Z</DateUtc></StartTime><FrequencyChanges><FrequencyChange><Frequency dt:dt="r8">2612294</Frequency><Timestamp dt:dt="r8">18236663306</Timestamp><Current dt:dt="r8">0</Current><DateUtc dt:dt="string">2015-08-13T11:49:21Z</DateUtc></FrequencyChange></FrequencyChanges></Clock>\n	1 ver1_main_procedure-21-1	99.938	1.0.0.880	1	il	1057298980	prawa	1	2.0.10.182	08-13-2015	2015-08-13 11:49:21	13:49:21	kobieta	2.0.10.92	3	5	1	1																							l	{SPACE}		no	BlockProc2		BlockList									18	Free	dl	color_orange.png		-1	7	406811	310																								75	prime_left.png	0	406251	0	0	13	0	406251	0	406251	1	406251	20	0	-1	404751	406251	406250	0		TrialProc1	left	0		0	10	406561	-406561		0	0	TrialList2	target_both.png	0	dl	-1	3	406301	260	d	503	406804															7	1	18	comp			300
1 ver1_main_procedure	21	1	33	<?xml version="1.0"?>\n<Clock xmlns:dt="urn:schemas-microsoft-com:datatypes"><Description dt:dt="string">E-Prime Primary Realtime Clock</Description><StartTime><Timestamp dt:dt="int">0</Timestamp><DateUtc dt:dt="string">2015-08-13T11:49:21Z</DateUtc></StartTime><FrequencyChanges><FrequencyChange><Frequency dt:dt="r8">2612294</Frequency><Timestamp dt:dt="r8">18236663306</Timestamp><Current dt:dt="r8">0</Current><DateUtc dt:dt="string">2015-08-13T11:49:21Z</DateUtc></FrequencyChange></FrequencyChanges></Clock>\n	1 ver1_main_procedure-21-1	99.938	1.0.0.880	1	il	1057298980	prawa	1	2.0.10.182	08-13-2015	2015-08-13 11:49:21	13:49:21	kobieta	2.0.10.92	3	5	1	1																							l	{SPACE}		no	BlockProc2		BlockList									19	Free	dl	color_blue.png		-1	9	409493	460																								25	prime_left.png	0	408932	0	0	13	1	408933	1	408933	1	408932	20	0	-1	407433	408932	408931	0		TrialProc1	right	0		1	10	409242	-409242		0	0	TrialList2	target_both.png	0	dl	-1	3	408982	260	l	502	409484															12	1	19	incomp			450
1 ver1_main_procedure	21	1	33	<?xml version="1.0"?>\n<Clock xmlns:dt="urn:schemas-microsoft-com:datatypes"><Description dt:dt="string">E-Prime Primary Realtime Clock</Description><StartTime><Timestamp dt:dt="int">0</Timestamp><DateUtc dt:dt="string">2015-08-13T11:49:21Z</DateUtc></StartTime><FrequencyChanges><FrequencyChange><Frequency dt:dt="r8">2612294</Frequency><Timestamp dt:dt="r8">18236663306</Timestamp><Current dt:dt="r8">0</Current><DateUtc dt:dt="string">2015-08-13T11:49:21Z</DateUtc></FrequencyChange></FrequencyChanges></Clock>\n	1 ver1_main_procedure-21-1	99.938	1.0.0.880	1	il	1057298980	prawa	1	2.0.10.182	08-13-2015	2015-08-13 11:49:21	13:49:21	kobieta	2.0.10.92	3	5	1	1																							l	{SPACE}		no	BlockProc2		BlockList									20	Free	dl	color_green.png		-1	10	412294	160																								75	prime_right.png	0	411764	0	0	13	0	411764	0	411764	1	411764	20	0	-1	410265	411764	411763	0		TrialProc1	right	0		0	10	412074	-412074		0	0	TrialList2	target_both.png	0	dl	-1	3	411814	260	d	470	412284															10	1	20	comp			150
1 ver1_main_procedure	21	1	33	<?xml version="1.0"?>\n<Clock xmlns:dt="urn:schemas-microsoft-com:datatypes"><Description dt:dt="string">E-Prime Primary Realtime Clock</Description><StartTime><Timestamp dt:dt="int">0</Timestamp><DateUtc dt:dt="string">2015-08-13T11:49:21Z</DateUtc></StartTime><FrequencyChanges><FrequencyChange><Frequency dt:dt="r8">2612294</Frequency><Timestamp dt:dt="r8">18236663306</Timestamp><Current dt:dt="r8">0</Current><DateUtc dt:dt="string">2015-08-13T11:49:21Z</DateUtc></FrequencyChange></FrequencyChanges></Clock>\n	1 ver1_main_procedure-21-1	99.938	1.0.0.880	1	il	1057298980	prawa	1	2.0.10.182	08-13-2015	2015-08-13 11:49:21	13:49:21	kobieta	2.0.10.92	3	5	1	1																							l	{SPACE}		no	BlockProc2		BlockList									21	Free	dl	color_yellow.png		-1	13	414826	160																								25	prime_right.png	1	414266	0	0	13	1	414266	1	414266	0	414265	20	0	-1	412766	414265	414265	0		TrialProc1	right	0		0	11	414576	-414576		0	0	TrialList2	target_both.png	0	dl	-1	3	414315	261	l	497	414812															10	1	21	comp			150
1 ver1_main_procedure	21	1	33	<?xml version="1.0"?>\n<Clock xmlns:dt="urn:schemas-microsoft-com:datatypes"><Description dt:dt="string">E-Prime Primary Realtime Clock</Description><StartTime><Timestamp dt:dt="int">0</Timestamp><DateUtc dt:dt="string">2015-08-13T11:49:21Z</DateUtc></StartTime><FrequencyChanges><FrequencyChange><Frequency dt:dt="r8">2612294</Frequency><Timestamp dt:dt="r8">18236663306</Timestamp><Current dt:dt="r8">0</Current><DateUtc dt:dt="string">2015-08-13T11:49:21Z</DateUtc></FrequencyChange></FrequencyChanges></Clock>\n	1 ver1_main_procedure-21-1	99.938	1.0.0.880	1	il	1057298980	prawa	1	2.0.10.182	08-13-2015	2015-08-13 11:49:21	13:49:21	kobieta	2.0.10.92	3	5	1	1																							l	{SPACE}		no	BlockProc2		BlockList									22	Free	dl	color_orange.png		-1	6	417307	310																								25	prime_left.png	0	416797	0	0	13	0	416797	0	416797	1	416797	20	0	-1	415298	416797	416796	0		TrialProc1	left	0		0	10	417107	-417107		0	0	TrialList2	target_both.png	0	dl	-1	3	416847	260	d	453	417300															7	1	22	comp			300
1 ver1_main_procedure	21	1	33	<?xml version="1.0"?>\n<Clock xmlns:dt="urn:schemas-microsoft-com:datatypes"><Description dt:dt="string">E-Prime Primary Realtime Clock</Description><StartTime><Timestamp dt:dt="int">0</Timestamp><DateUtc dt:dt="string">2015-08-13T11:49:21Z</DateUtc></StartTime><FrequencyChanges><FrequencyChange><Frequency dt:dt="r8">2612294</Frequency><Timestamp dt:dt="r8">18236663306</Timestamp><Current dt:dt="r8">0</Current><DateUtc dt:dt="string">2015-08-13T11:49:21Z</DateUtc></FrequencyChange></FrequencyChanges></Clock>\n	1 ver1_main_procedure-21-1	99.938	1.0.0.880	1	il	1057298980	prawa	1	2.0.10.182	08-13-2015	2015-08-13 11:49:21	13:49:21	kobieta	2.0.10.92	3	5	1	1																							l	{SPACE}		no	BlockProc2		BlockList									23	Free	dl	color_yellow.png		-1	12	420009	460																								25	prime_right.png	0	419429	0	0	13	0	419429	0	419429	1	419429	20	0	-1	417929	419429	419428	0		TrialProc1	left	0		0	10	419739	-419739		0	0	TrialList2	target_both.png	0	dl	-1	3	419479	260	l	517	419996															9	1	23	incomp			450
1 ver1_main_procedure	21	1	33	<?xml version="1.0"?>\n<Clock xmlns:dt="urn:schemas-microsoft-com:datatypes"><Description dt:dt="string">E-Prime Primary Realtime Clock</Description><StartTime><Timestamp dt:dt="int">0</Timestamp><DateUtc dt:dt="string">2015-08-13T11:49:21Z</DateUtc></StartTime><FrequencyChanges><FrequencyChange><Frequency dt:dt="r8">2612294</Frequency><Timestamp dt:dt="r8">18236663306</Timestamp><Current dt:dt="r8">0</Current><DateUtc dt:dt="string">2015-08-13T11:49:21Z</DateUtc></FrequencyChange></FrequencyChanges></Clock>\n	1 ver1_main_procedure-21-1	99.938	1.0.0.880	1	il	1057298980	prawa	1	2.0.10.182	08-13-2015	2015-08-13 11:49:21	13:49:21	kobieta	2.0.10.92	3	5	1	1																							l	{SPACE}		no	BlockProc2		BlockList									24	Free	dl	color_purple.png		-1	10	422831	160																			1					75	prime_left.png	0	422280	0	0	13	0	422280	0	422280	1	422280	20	0	-1	420781	422280	422279	0	prime_left.png	TrialProc1	left	0		1	10	422590	-422590		0	0	TrialList2	target_both.png	0	dl	-1	3	422330	260	d	490	422820															8	1	24	neut			150
1 ver1_main_procedure	21	1	33	<?xml version="1.0"?>\n<Clock xmlns:dt="urn:schemas-microsoft-com:datatypes"><Description dt:dt="string">E-Prime Primary Realtime Clock</Description><StartTime><Timestamp dt:dt="int">0</Timestamp><DateUtc dt:dt="string">2015-08-13T11:49:21Z</DateUtc></StartTime><FrequencyChanges><FrequencyChange><Frequency dt:dt="r8">2612294</Frequency><Timestamp dt:dt="r8">18236663306</Timestamp><Current dt:dt="r8">0</Current><DateUtc dt:dt="string">2015-08-13T11:49:21Z</DateUtc></FrequencyChange></FrequencyChanges></Clock>\n	1 ver1_main_procedure-21-1	99.938	1.0.0.880	1	il	1057298980	prawa	1	2.0.10.182	08-13-2015	2015-08-13 11:49:21	13:49:21	kobieta	2.0.10.92	3	5	1	1																							l	{SPACE}		no	BlockProc2		BlockList									25	Free	dl	color_red.png		-1	13	425322	460																			2					75	prime_right.png	0	424802	0	0	13	0	424802	0	424802	1	424802	20	0	-1	423302	424802	424801	0	prime_right.png	TrialProc1	right	0		0	10	425112	-425112		0	0	TrialList2	target_both.png	0	dl	-1	3	424852	260	l	456	425308															11	1	25	neut			450
1 ver1_main_procedure	21	1	33	<?xml version="1.0"?>\n<Clock xmlns:dt="urn:schemas-microsoft-com:datatypes"><Description dt:dt="string">E-Prime Primary Realtime Clock</Description><StartTime><Timestamp dt:dt="int">0</Timestamp><DateUtc dt:dt="string">2015-08-13T11:49:21Z</DateUtc></StartTime><FrequencyChanges><FrequencyChange><Frequency dt:dt="r8">2612294</Frequency><Timestamp dt:dt="r8">18236663306</Timestamp><Current dt:dt="r8">0</Current><DateUtc dt:dt="string">2015-08-13T11:49:21Z</DateUtc></FrequencyChange></FrequencyChanges></Clock>\n	1 ver1_main_procedure-21-1	99.938	1.0.0.880	1	il	1057298980	prawa	1	2.0.10.182	08-13-2015	2015-08-13 11:49:21	13:49:21	kobieta	2.0.10.92	3	5	1	1																							l	{SPACE}		no	BlockProc2		BlockList									26	Free	dl	color_green.png		-1	9	428134	460																								25	prime_right.png	1	427594	0	0	13	1	427594	1	427594	0	427593	20	0	-1	426094	427593	427593	0		TrialProc1	right	0		0	11	427904	-427904		0	0	TrialList2	target_both.png	0	dl	-1	3	427643	261	d	481	428124															10	1	26	comp			450
1 ver1_main_procedure	21	1	33	<?xml version="1.0"?>\n<Clock xmlns:dt="urn:schemas-microsoft-com:datatypes"><Description dt:dt="string">E-Prime Primary Realtime Clock</Description><StartTime><Timestamp dt:dt="int">0</Timestamp><DateUtc dt:dt="string">2015-08-13T11:49:21Z</DateUtc></StartTime><FrequencyChanges><FrequencyChange><Frequency dt:dt="r8">2612294</Frequency><Timestamp dt:dt="r8">18236663306</Timestamp><Current dt:dt="r8">0</Current><DateUtc dt:dt="string">2015-08-13T11:49:21Z</DateUtc></FrequencyChange></FrequencyChanges></Clock>\n	1 ver1_main_procedure-21-1	99.938	1.0.0.880	1	il	1057298980	prawa	1	2.0.10.182	08-13-2015	2015-08-13 11:49:21	13:49:21	kobieta	2.0.10.92	3	5	1	1																							l	{SPACE}		no	BlockProc2		BlockList									27	Free	dl	color_red.png		-1	12	430905	311																			1					75	prime_left.png	0	430405	0	0	13	0	430405	0	430405	1	430405	20	0	-1	428906	430405	430404	0	prime_left.png	TrialProc1	left	0		0	10	430715	-430715		0	0	TrialList2	target_both.png	0	dl	-1	3	430455	260	l	437	430892															8	1	27	neut			300
1 ver1_main_procedure	21	1	33	<?xml version="1.0"?>\n<Clock xmlns:dt="urn:schemas-microsoft-com:datatypes"><Description dt:dt="string">E-Prime Primary Realtime Clock</Description><StartTime><Timestamp dt:dt="int">0</Timestamp><DateUtc dt:dt="string">2015-08-13T11:49:21Z</DateUtc></StartTime><FrequencyChanges><FrequencyChange><Frequency dt:dt="r8">2612294</Frequency><Timestamp dt:dt="r8">18236663306</Timestamp><Current dt:dt="r8">0</Current><DateUtc dt:dt="string">2015-08-13T11:49:21Z</DateUtc></FrequencyChange></FrequencyChanges></Clock>\n	1 ver1_main_procedure-21-1	99.938	1.0.0.880	1	il	1057298980	prawa	1	2.0.10.182	08-13-2015	2015-08-13 11:49:21	13:49:21	kobieta	2.0.10.92	3	5	1	1																							l	{SPACE}		no	BlockProc2		BlockList									28	Free	dl	color_purple.png		-1	6	433507	460																			2					75	prime_right.png	0	433027	0	0	13	0	433027	0	433027	1	433027	20	0	-1	431527	433027	433026	0	prime_right.png	TrialProc1	left	0		0	10	433337	-433337		0	0	TrialList2	target_both.png	0	dl	-1	3	433077	260	d	423	433500															8	1	28	neut			450
1 ver1_main_procedure	21	1	33	<?xml version="1.0"?>\n<Clock xmlns:dt="urn:schemas-microsoft-com:datatypes"><Description dt:dt="string">E-Prime Primary Realtime Clock</Description><StartTime><Timestamp dt:dt="int">0</Timestamp><DateUtc dt:dt="string">2015-08-13T11:49:21Z</DateUtc></StartTime><FrequencyChanges><FrequencyChange><Frequency dt:dt="r8">2612294</Frequency><Timestamp dt:dt="r8">18236663306</Timestamp><Current dt:dt="r8">0</Current><DateUtc dt:dt="string">2015-08-13T11:49:21Z</DateUtc></FrequencyChange></FrequencyChanges></Clock>\n	1 ver1_main_procedure-21-1	99.938	1.0.0.880	1	il	1057298980	prawa	1	2.0.10.182	08-13-2015	2015-08-13 11:49:21	13:49:21	kobieta	2.0.10.92	3	5	1	1																							l	{SPACE}		no	BlockProc2		BlockList									29	Free	dl	color_blue.png		-1	6	436299	460																								25	prime_left.png	0	435778	0	0	13	1	435779	1	435779	0	435778	20	0	-1	434279	435778	435778	0		TrialProc1	left	0		0	11	436089	-436089		0	0	TrialList2	target_both.png	0	dl	-1	3	435828	261	l	464	436292															7	1	29	comp			450
1 ver1_main_procedure	21	1	33	<?xml version="1.0"?>\n<Clock xmlns:dt="urn:schemas-microsoft-com:datatypes"><Description dt:dt="string">E-Prime Primary Realtime Clock</Description><StartTime><Timestamp dt:dt="int">0</Timestamp><DateUtc dt:dt="string">2015-08-13T11:49:21Z</DateUtc></StartTime><FrequencyChanges><FrequencyChange><Frequency dt:dt="r8">2612294</Frequency><Timestamp dt:dt="r8">18236663306</Timestamp><Current dt:dt="r8">0</Current><DateUtc dt:dt="string">2015-08-13T11:49:21Z</DateUtc></FrequencyChange></FrequencyChanges></Clock>\n	1 ver1_main_procedure-21-1	99.938	1.0.0.880	1	il	1057298980	prawa	1	2.0.10.182	08-13-2015	2015-08-13 11:49:21	13:49:21	kobieta	2.0.10.92	3	5	1	1																							l	{SPACE}		no	BlockProc2		BlockList									30	Free	dl	color_orange.png		-1	13	439090	311																								75	prime_left.png	0	438570	0	0	13	0	438570	0	438570	1	438570	20	0	-1	437071	438570	438569	0		TrialProc1	right	0		1	10	438880	-438880		0	0	TrialList2	target_both.png	0	dl	-1	3	438620	260	d	456	439076															12	1	30	incomp			300
1 ver1_main_procedure	21	1	33	<?xml version="1.0"?>\n<Clock xmlns:dt="urn:schemas-microsoft-com:datatypes"><Description dt:dt="string">E-Prime Primary Realtime Clock</Description><StartTime><Timestamp dt:dt="int">0</Timestamp><DateUtc dt:dt="string">2015-08-13T11:49:21Z</DateUtc></StartTime><FrequencyChanges><FrequencyChange><Frequency dt:dt="r8">2612294</Frequency><Timestamp dt:dt="r8">18236663306</Timestamp><Current dt:dt="r8">0</Current><DateUtc dt:dt="string">2015-08-13T11:49:21Z</DateUtc></FrequencyChange></FrequencyChanges></Clock>\n	1 ver1_main_procedure-21-1	99.938	1.0.0.880	1	il	1057298980	prawa	1	2.0.10.182	08-13-2015	2015-08-13 11:49:21	13:49:21	kobieta	2.0.10.92	3	5	1	1																							l	{SPACE}		no	BlockProc2		BlockList									31	Free	dl	color_blue.png		-1	9	441702	160																								25	prime_left.png	0	441212	0	0	13	0	441212	0	441212	1	441212	20	0	-1	439712	441212	441211	0		TrialProc1	left	0		0	10	441522	-441522		0	0	TrialList2	target_both.png	0	dl	-1	3	441262	260	l	430	441692															7	1	31	comp			150
1 ver1_main_procedure	21	1	33	<?xml version="1.0"?>\n<Clock xmlns:dt="urn:schemas-microsoft-com:datatypes"><Description dt:dt="string">E-Prime Primary Realtime Clock</Description><StartTime><Timestamp dt:dt="int">0</Timestamp><DateUtc dt:dt="string">2015-08-13T11:49:21Z</DateUtc></StartTime><FrequencyChanges><FrequencyChange><Frequency dt:dt="r8">2612294</Frequency><Timestamp dt:dt="r8">18236663306</Timestamp><Current dt:dt="r8">0</Current><DateUtc dt:dt="string">2015-08-13T11:49:21Z</DateUtc></FrequencyChange></FrequencyChanges></Clock>\n	1 ver1_main_procedure-21-1	99.938	1.0.0.880	1	il	1057298980	prawa	1	2.0.10.182	08-13-2015	2015-08-13 11:49:21	13:49:21	kobieta	2.0.10.92	3	5	1	1																							l	{SPACE}		no	BlockProc2		BlockList									32	Cued	d	color_purple.png		-1	8	444293	161																			1					75	prime_left.png	0	443673	0	0	13	0	443673	0	443673	1	443673	20	0	-1	442174	443673	443672	0	prime_left.png	TrialProc1	left	0		0	10	443983	-443983		0	0	TrialList2	target_left.png	1	d	-1	3	443723	260	d	562	444285															2	1	32	neut			150
1 ver1_main_procedure	21	1	33	<?xml version="1.0"?>\n<Clock xmlns:dt="urn:schemas-microsoft-com:datatypes"><Description dt:dt="string">E-Prime Primary Realtime Clock</Description><StartTime><Timestamp dt:dt="int">0</Timestamp><DateUtc dt:dt="string">2015-08-13T11:49:21Z</DateUtc></StartTime><FrequencyChanges><FrequencyChange><Frequency dt:dt="r8">2612294</Frequency><Timestamp dt:dt="r8">18236663306</Timestamp><Current dt:dt="r8">0</Current><DateUtc dt:dt="string">2015-08-13T11:49:21Z</DateUtc></FrequencyChange></FrequencyChanges></Clock>\n	1 ver1_main_procedure-21-1	99.938	1.0.0.880	1	il	1057298980	prawa	1	2.0.10.182	08-13-2015	2015-08-13 11:49:21	13:49:21	kobieta	2.0.10.92	3	5	1	1																							l	{SPACE}		no	BlockProc2		BlockList									33	Cued	l	color_blue.png		-1	6	446875	310																								25	prime_left.png	0	446265	0	0	13	0	446265	0	446265	1	446265	20	0	-1	444765	446265	446264	0		TrialProc1	right	0		0	10	446575	-446575		0	0	TrialList2	target_right.png	1	l	-1	3	446315	260	l	554	446869															6	1	33	incomp			300
1 ver1_main_procedure	21	1	33	<?xml version="1.0"?>\n<Clock xmlns:dt="urn:schemas-microsoft-com:datatypes"><Description dt:dt="string">E-Prime Primary Realtime Clock</Description><StartTime><Timestamp dt:dt="int">0</Timestamp><DateUtc dt:dt="string">2015-08-13T11:49:21Z</DateUtc></StartTime><FrequencyChanges><FrequencyChange><Frequency dt:dt="r8">2612294</Frequency><Timestamp dt:dt="r8">18236663306</Timestamp><Current dt:dt="r8">0</Current><DateUtc dt:dt="string">2015-08-13T11:49:21Z</DateUtc></FrequencyChange></FrequencyChanges></Clock>\n	1 ver1_main_procedure-21-1	99.938	1.0.0.880	1	il	1057298980	prawa	1	2.0.10.182	08-13-2015	2015-08-13 11:49:21	13:49:21	kobieta	2.0.10.92	3	5	1	1																							l	{SPACE}		no	BlockProc2		BlockList									34	Cued	d	color_purple.png		-1	6	449587	310																			2					75	prime_right.png	0	448996	0	0	13	0	448996	0	448996	1	448996	20	0	-1	447497	448996	448995	0	prime_right.png	TrialProc1	left	0		1	10	449306	-449306		0	0	TrialList2	target_left.png	1	d	-1	3	449046	260	d	535	449581															2	1	34	neut			300
1 ver1_main_procedure	21	1	33	<?xml version="1.0"?>\n<Clock xmlns:dt="urn:schemas-microsoft-com:datatypes"><Description dt:dt="string">E-Prime Primary Realtime Clock</Description><StartTime><Timestamp dt:dt="int">0</Timestamp><DateUtc dt:dt="string">2015-08-13T11:49:21Z</DateUtc></StartTime><FrequencyChanges><FrequencyChange><Frequency dt:dt="r8">2612294</Frequency><Timestamp dt:dt="r8">18236663306</Timestamp><Current dt:dt="r8">0</Current><DateUtc dt:dt="string">2015-08-13T11:49:21Z</DateUtc></FrequencyChange></FrequencyChanges></Clock>\n	1 ver1_main_procedure-21-1	99.938	1.0.0.880	1	il	1057298980	prawa	1	2.0.10.182	08-13-2015	2015-08-13 11:49:21	13:49:21	kobieta	2.0.10.92	3	5	1	1																							l	{SPACE}		no	BlockProc2		BlockList									35	Free	dl	color_yellow.png		-1	11	452288	160																								25	prime_right.png	0	451708	0	0	13	0	451708	0	451708	1	451708	20	0	-1	450209	451708	451707	0		TrialProc1	left	0		0	10	452018	-452018		0	0	TrialList2	target_both.png	0	dl	-1	3	451758	260	l	519	452277															9	1	35	incomp			150
1 ver1_main_procedure	21	1	33	<?xml version="1.0"?>\n<Clock xmlns:dt="urn:schemas-microsoft-com:datatypes"><Description dt:dt="string">E-Prime Primary Realtime Clock</Description><StartTime><Timestamp dt:dt="int">0</Timestamp><DateUtc dt:dt="string">2015-08-13T11:49:21Z</DateUtc></StartTime><FrequencyChanges><FrequencyChange><Frequency dt:dt="r8">2612294</Frequency><Timestamp dt:dt="r8">18236663306</Timestamp><Current dt:dt="r8">0</Current><DateUtc dt:dt="string">2015-08-13T11:49:21Z</DateUtc></FrequencyChange></FrequencyChanges></Clock>\n	1 ver1_main_procedure-21-1	99.938	1.0.0.880	1	il	1057298980	prawa	1	2.0.10.182	08-13-2015	2015-08-13 11:49:21	13:49:21	kobieta	2.0.10.92	3	5	1	1																							l	{SPACE}		no	BlockProc2		BlockList									36	Free	dl	color_purple.png		-1	9	454910	160																			1					75	prime_left.png	0	454259	0	0	13	1	454260	1	454260	0	454259	20	0	-1	452760	454259	454259	0	prime_left.png	TrialProc1	left	0		0	11	454570	-454570		0	0	TrialList2	target_both.png	0	dl	-1	3	454309	261	d	592	454901															8	1	36	neut			150
1 ver1_main_procedure	21	1	33	<?xml version="1.0"?>\n<Clock xmlns:dt="urn:schemas-microsoft-com:datatypes"><Description dt:dt="string">E-Prime Primary Realtime Clock</Description><StartTime><Timestamp dt:dt="int">0</Timestamp><DateUtc dt:dt="string">2015-08-13T11:49:21Z</DateUtc></StartTime><FrequencyChanges><FrequencyChange><Frequency dt:dt="r8">2612294</Frequency><Timestamp dt:dt="r8">18236663306</Timestamp><Current dt:dt="r8">0</Current><DateUtc dt:dt="string">2015-08-13T11:49:21Z</DateUtc></FrequencyChange></FrequencyChanges></Clock>\n	1 ver1_main_procedure-21-1	99.938	1.0.0.880	1	il	1057298980	prawa	1	2.0.10.182	08-13-2015	2015-08-13 11:49:21	13:49:21	kobieta	2.0.10.92	3	5	1	1																							l	{SPACE}		no	BlockProc2		BlockList									37	Cued	d	color_green.png		-1	9	457711	461																								25	prime_right.png	0	456881	0	0	13	0	456881	0	456881	1	456881	20	0	-1	455382	456881	456880	0		TrialProc1	left	0		0	10	457191	-457191		0	0	TrialList2	target_left.png	1	d	-1	3	456931	260	d	770	457701															3	1	37	incomp			450
1 ver1_main_procedure	21	1	33	<?xml version="1.0"?>\n<Clock xmlns:dt="urn:schemas-microsoft-com:datatypes"><Description dt:dt="string">E-Prime Primary Realtime Clock</Description><StartTime><Timestamp dt:dt="int">0</Timestamp><DateUtc dt:dt="string">2015-08-13T11:49:21Z</DateUtc></StartTime><FrequencyChanges><FrequencyChange><Frequency dt:dt="r8">2612294</Frequency><Timestamp dt:dt="r8">18236663306</Timestamp><Current dt:dt="r8">0</Current><DateUtc dt:dt="string">2015-08-13T11:49:21Z</DateUtc></FrequencyChange></FrequencyChanges></Clock>\n	1 ver1_main_procedure-21-1	99.938	1.0.0.880	1	il	1057298980	prawa	1	2.0.10.182	08-13-2015	2015-08-13 11:49:21	13:49:21	kobieta	2.0.10.92	3	5	1	1																							l	{SPACE}		no	BlockProc2		BlockList									38	Cued	d	color_orange.png		-1	9	460583	160																								75	prime_left.png	0	459983	0	0	13	0	459983	0	459983	1	459983	20	0	-1	458484	459983	459982	0		TrialProc1	left	0		0	10	460293	-460293		0	0	TrialList2	target_left.png	1	d	-1	3	460033	260	d	540	460573															1	1	38	comp			150
1 ver1_main_procedure	21	1	33	<?xml version="1.0"?>\n<Clock xmlns:dt="urn:schemas-microsoft-com:datatypes"><Description dt:dt="string">E-Prime Primary Realtime Clock</Description><StartTime><Timestamp dt:dt="int">0</Timestamp><DateUtc dt:dt="string">2015-08-13T11:49:21Z</DateUtc></StartTime><FrequencyChanges><FrequencyChange><Frequency dt:dt="r8">2612294</Frequency><Timestamp dt:dt="r8">18236663306</Timestamp><Current dt:dt="r8">0</Current><DateUtc dt:dt="string">2015-08-13T11:49:21Z</DateUtc></FrequencyChange></FrequencyChanges></Clock>\n	1 ver1_main_procedure-21-1	99.938	1.0.0.880	1	il	1057298980	prawa	1	2.0.10.182	08-13-2015	2015-08-13 11:49:21	13:49:21	kobieta	2.0.10.92	3	5	1	1																							l	{SPACE}		no	BlockProc2		BlockList									39	Free	dl	color_blue.png		-1	13	463475	310																								75	prime_left.png	0	462554	0	0	13	1	462555	1	462555	1	462554	20	0	-1	461055	462554	462553	0		TrialProc1	left	0		0	11	462865	-462865		0	0	TrialList2	target_both.png	0	dl	-1	3	462604	261	l	857	463461															7	1	39	comp			300
1 ver1_main_procedure	21	1	33	<?xml version="1.0"?>\n<Clock xmlns:dt="urn:schemas-microsoft-com:datatypes"><Description dt:dt="string">E-Prime Primary Realtime Clock</Description><StartTime><Timestamp dt:dt="int">0</Timestamp><DateUtc dt:dt="string">2015-08-13T11:49:21Z</DateUtc></StartTime><FrequencyChanges><FrequencyChange><Frequency dt:dt="r8">2612294</Frequency><Timestamp dt:dt="r8">18236663306</Timestamp><Current dt:dt="r8">0</Current><DateUtc dt:dt="string">2015-08-13T11:49:21Z</DateUtc></FrequencyChange></FrequencyChanges></Clock>\n	1 ver1_main_procedure-21-1	99.938	1.0.0.880	1	il	1057298980	prawa	1	2.0.10.182	08-13-2015	2015-08-13 11:49:21	13:49:21	kobieta	2.0.10.92	3	5	1	1																							l	{SPACE}		no	BlockProc2		BlockList									40	Free	dl	color_orange.png		-1	11	466337	310																								25	prime_left.png	0	465596	0	0	13	0	465596	0	465596	1	465596	20	0	-1	464097	465596	465595	0		TrialProc1	right	0		1	10	465906	-465906		0	0	TrialList2	target_both.png	0	dl	-1	3	465646	260	d	679	466325															12	1	40	incomp			300
1 ver1_main_procedure	21	1	33	<?xml version="1.0"?>\n<Clock xmlns:dt="urn:schemas-microsoft-com:datatypes"><Description dt:dt="string">E-Prime Primary Realtime Clock</Description><StartTime><Timestamp dt:dt="int">0</Timestamp><DateUtc dt:dt="string">2015-08-13T11:49:21Z</DateUtc></StartTime><FrequencyChanges><FrequencyChange><Frequency dt:dt="r8">2612294</Frequency><Timestamp dt:dt="r8">18236663306</Timestamp><Current dt:dt="r8">0</Current><DateUtc dt:dt="string">2015-08-13T11:49:21Z</DateUtc></FrequencyChange></FrequencyChanges></Clock>\n	1 ver1_main_procedure-21-1	99.938	1.0.0.880	1	il	1057298980	prawa	1	2.0.10.182	08-13-2015	2015-08-13 11:49:21	13:49:21	kobieta	2.0.10.92	3	5	1	1																							l	{SPACE}		no	BlockProc2		BlockList									41	Free	dl	color_blue.png		-1	8	469038	461																								75	prime_left.png	0	468458	0	0	13	0	468458	0	468458	1	468458	20	0	-1	466959	468458	468457	0		TrialProc1	left	0		0	10	468768	-468768		0	0	TrialList2	target_both.png	0	dl	-1	3	468508	260	l	521	469029															7	1	41	comp			450
1 ver1_main_procedure	21	1	33	<?xml version="1.0"?>\n<Clock xmlns:dt="urn:schemas-microsoft-com:datatypes"><Description dt:dt="string">E-Prime Primary Realtime Clock</Description><StartTime><Timestamp dt:dt="int">0</Timestamp><DateUtc dt:dt="string">2015-08-13T11:49:21Z</DateUtc></StartTime><FrequencyChanges><FrequencyChange><Frequency dt:dt="r8">2612294</Frequency><Timestamp dt:dt="r8">18236663306</Timestamp><Current dt:dt="r8">0</Current><DateUtc dt:dt="string">2015-08-13T11:49:21Z</DateUtc></FrequencyChange></FrequencyChanges></Clock>\n	1 ver1_main_procedure-21-1	99.938	1.0.0.880	1	il	1057298980	prawa	1	2.0.10.182	08-13-2015	2015-08-13 11:49:21	13:49:21	kobieta	2.0.10.92	3	5	1	1																							l	{SPACE}		no	BlockProc2		BlockList									42	Free	dl	color_yellow.png		-1	6	471860	160																								25	prime_right.png	0	471310	0	0	13	0	471310	0	471310	1	471310	20	0	-1	469810	471310	471309	0		TrialProc1	right	0		0	10	471620	-471620		0	0	TrialList2	target_both.png	0	dl	-1	3	471360	260	l	493	471853															10	1	42	comp			150
1 ver1_main_procedure	21	1	33	<?xml version="1.0"?>\n<Clock xmlns:dt="urn:schemas-microsoft-com:datatypes"><Description dt:dt="string">E-Prime Primary Realtime Clock</Description><StartTime><Timestamp dt:dt="int">0</Timestamp><DateUtc dt:dt="string">2015-08-13T11:49:21Z</DateUtc></StartTime><FrequencyChanges><FrequencyChange><Frequency dt:dt="r8">2612294</Frequency><Timestamp dt:dt="r8">18236663306</Timestamp><Current dt:dt="r8">0</Current><DateUtc dt:dt="string">2015-08-13T11:49:21Z</DateUtc></FrequencyChange></FrequencyChanges></Clock>\n	1 ver1_main_procedure-21-1	99.938	1.0.0.880	1	il	1057298980	prawa	1	2.0.10.182	08-13-2015	2015-08-13 11:49:21	13:49:21	kobieta	2.0.10.92	3	5	1	1																							l	{SPACE}		no	BlockProc2		BlockList									43	Free	dl	color_purple.png		-1	10	474392	310																			2					75	prime_right.png	0	473831	0	0	13	0	473831	0	473831	1	473831	20	0	-1	472332	473831	473830	0	prime_right.png	TrialProc1	right	0		0	10	474141	-474141		0	0	TrialList2	target_both.png	0	dl	-1	3	473881	260	d	500	474381															11	1	43	neut			300
1 ver1_main_procedure	21	1	33	<?xml version="1.0"?>\n<Clock xmlns:dt="urn:schemas-microsoft-com:datatypes"><Description dt:dt="string">E-Prime Primary Realtime Clock</Description><StartTime><Timestamp dt:dt="int">0</Timestamp><DateUtc dt:dt="string">2015-08-13T11:49:21Z</DateUtc></StartTime><FrequencyChanges><FrequencyChange><Frequency dt:dt="r8">2612294</Frequency><Timestamp dt:dt="r8">18236663306</Timestamp><Current dt:dt="r8">0</Current><DateUtc dt:dt="string">2015-08-13T11:49:21Z</DateUtc></FrequencyChange></FrequencyChanges></Clock>\n	1 ver1_main_procedure-21-1	99.938	1.0.0.880	1	il	1057298980	prawa	1	2.0.10.182	08-13-2015	2015-08-13 11:49:21	13:49:21	kobieta	2.0.10.92	3	5	1	1																							l	{SPACE}		no	BlockProc2		BlockList									44	Free	dl	color_blue.png		-1	9	477063	160																								75	prime_left.png	0	476513	0	0	13	0	476513	0	476513	1	476513	20	0	-1	475014	476513	476512	0		TrialProc1	right	0		0	10	476823	-476823		0	0	TrialList2	target_both.png	0	dl	-1	3	476563	260	l	490	477053															12	1	44	incomp			150
1 ver1_main_procedure	21	1	33	<?xml version="1.0"?>\n<Clock xmlns:dt="urn:schemas-microsoft-com:datatypes"><Description dt:dt="string">E-Prime Primary Realtime Clock</Description><StartTime><Timestamp dt:dt="int">0</Timestamp><DateUtc dt:dt="string">2015-08-13T11:49:21Z</DateUtc></StartTime><FrequencyChanges><FrequencyChange><Frequency dt:dt="r8">2612294</Frequency><Timestamp dt:dt="r8">18236663306</Timestamp><Current dt:dt="r8">0</Current><DateUtc dt:dt="string">2015-08-13T11:49:21Z</DateUtc></FrequencyChange></FrequencyChanges></Clock>\n	1 ver1_main_procedure-21-1	99.938	1.0.0.880	1	il	1057298980	prawa	1	2.0.10.182	08-13-2015	2015-08-13 11:49:21	13:49:21	kobieta	2.0.10.92	3	5	1	1																							l	{SPACE}		no	BlockProc2		BlockList									45	Free	dl	color_green.png		-1	15	479645	310																								25	prime_right.png	0	479034	0	0	13	0	479034	0	479034	1	479034	20	0	-1	477535	479034	479033	0		TrialProc1	left	0		1	10	479344	-479344		0	0	TrialList2	target_both.png	0	dl	-1	3	479084	260	d	545	479629															9	1	45	incomp			300
1 ver1_main_procedure	21	1	33	<?xml version="1.0"?>\n<Clock xmlns:dt="urn:schemas-microsoft-com:datatypes"><Description dt:dt="string">E-Prime Primary Realtime Clock</Description><StartTime><Timestamp dt:dt="int">0</Timestamp><DateUtc dt:dt="string">2015-08-13T11:49:21Z</DateUtc></StartTime><FrequencyChanges><FrequencyChange><Frequency dt:dt="r8">2612294</Frequency><Timestamp dt:dt="r8">18236663306</Timestamp><Current dt:dt="r8">0</Current><DateUtc dt:dt="string">2015-08-13T11:49:21Z</DateUtc></FrequencyChange></FrequencyChanges></Clock>\n	1 ver1_main_procedure-21-1	99.938	1.0.0.880	1	il	1057298980	prawa	1	2.0.10.182	08-13-2015	2015-08-13 11:49:21	13:49:21	kobieta	2.0.10.92	3	5	1	1																							l	{SPACE}		no	BlockProc2		BlockList									46	Free	dl	color_yellow.png		-1	6	482356	160																								25	prime_right.png	0	481766	0	0	13	0	481766	0	481766	1	481766	20	0	-1	480267	481766	481765	0		TrialProc1	left	0		0	10	482076	-482076		0	0	TrialList2	target_both.png	0	dl	-1	3	481816	260	l	533	482349															9	1	46	incomp			150
1 ver1_main_procedure	21	1	33	<?xml version="1.0"?>\n<Clock xmlns:dt="urn:schemas-microsoft-com:datatypes"><Description dt:dt="string">E-Prime Primary Realtime Clock</Description><StartTime><Timestamp dt:dt="int">0</Timestamp><DateUtc dt:dt="string">2015-08-13T11:49:21Z</DateUtc></StartTime><FrequencyChanges><FrequencyChange><Frequency dt:dt="r8">2612294</Frequency><Timestamp dt:dt="r8">18236663306</Timestamp><Current dt:dt="r8">0</Current><DateUtc dt:dt="string">2015-08-13T11:49:21Z</DateUtc></FrequencyChange></FrequencyChanges></Clock>\n	1 ver1_main_procedure-21-1	99.938	1.0.0.880	1	il	1057298980	prawa	1	2.0.10.182	08-13-2015	2015-08-13 11:49:21	13:49:21	kobieta	2.0.10.92	3	5	1	1																							l	{SPACE}		no	BlockProc2		BlockList									47	Free	dl	color_purple.png		-1	6	484908	460																			1					25	prime_left.png	1	484328	0	0	13	1	484328	1	484328	0	484327	20	0	-1	482828	484327	484327	0	prime_left.png	TrialProc1	right	0		0	11	484638	-484638		0	0	TrialList2	target_both.png	0	dl	-1	3	484377	261	d	525	484902															11	1	47	neut			450
1 ver1_main_procedure	21	1	33	<?xml version="1.0"?>\n<Clock xmlns:dt="urn:schemas-microsoft-com:datatypes"><Description dt:dt="string">E-Prime Primary Realtime Clock</Description><StartTime><Timestamp dt:dt="int">0</Timestamp><DateUtc dt:dt="string">2015-08-13T11:49:21Z</DateUtc></StartTime><FrequencyChanges><FrequencyChange><Frequency dt:dt="r8">2612294</Frequency><Timestamp dt:dt="r8">18236663306</Timestamp><Current dt:dt="r8">0</Current><DateUtc dt:dt="string">2015-08-13T11:49:21Z</DateUtc></FrequencyChange></FrequencyChanges></Clock>\n	1 ver1_main_procedure-21-1	99.938	1.0.0.880	1	il	1057298980	prawa	1	2.0.10.182	08-13-2015	2015-08-13 11:49:21	13:49:21	kobieta	2.0.10.92	3	5	1	1																							l	{SPACE}		no	BlockProc2		BlockList									48	Free	dl	color_yellow.png		-1	9	487719	161																								25	prime_right.png	0	487179	0	0	13	0	487179	0	487179	1	487179	20	0	-1	485680	487179	487178	0		TrialProc1	right	0		1	10	487489	-487489		0	0	TrialList2	target_both.png	0	dl	-1	3	487229	260	l	481	487710															10	1	48	comp			150
1 ver1_main_procedure	21	1	33	<?xml version="1.0"?>\n<Clock xmlns:dt="urn:schemas-microsoft-com:datatypes"><Description dt:dt="string">E-Prime Primary Realtime Clock</Description><StartTime><Timestamp dt:dt="int">0</Timestamp><DateUtc dt:dt="string">2015-08-13T11:49:21Z</DateUtc></StartTime><FrequencyChanges><FrequencyChange><Frequency dt:dt="r8">2612294</Frequency><Timestamp dt:dt="r8">18236663306</Timestamp><Current dt:dt="r8">0</Current><DateUtc dt:dt="string">2015-08-13T11:49:21Z</DateUtc></FrequencyChange></FrequencyChanges></Clock>\n	1 ver1_main_procedure-21-1	99.938	1.0.0.880	1	il	1057298980	prawa	1	2.0.10.182	08-13-2015	2015-08-13 11:49:21	13:49:21	kobieta	2.0.10.92	3	5	1	1																							l	{SPACE}		no	BlockProc2		BlockList									49	Free	dl	color_green.png		-1	9	490271	160																								25	prime_right.png	0	489691	0	0	13	0	489691	0	489691	1	489691	20	0	-1	488191	489691	489690	0		TrialProc1	left	0		0	10	490001	-490001		0	0	TrialList2	target_both.png	0	dl	-1	3	489741	260	d	521	490262															9	1	49	incomp			150
1 ver1_main_procedure	21	1	33	<?xml version="1.0"?>\n<Clock xmlns:dt="urn:schemas-microsoft-com:datatypes"><Description dt:dt="string">E-Prime Primary Realtime Clock</Description><StartTime><Timestamp dt:dt="int">0</Timestamp><DateUtc dt:dt="string">2015-08-13T11:49:21Z</DateUtc></StartTime><FrequencyChanges><FrequencyChange><Frequency dt:dt="r8">2612294</Frequency><Timestamp dt:dt="r8">18236663306</Timestamp><Current dt:dt="r8">0</Current><DateUtc dt:dt="string">2015-08-13T11:49:21Z</DateUtc></FrequencyChange></FrequencyChanges></Clock>\n	1 ver1_main_procedure-21-1	99.938	1.0.0.880	1	il	1057298980	prawa	1	2.0.10.182	08-13-2015	2015-08-13 11:49:21	13:49:21	kobieta	2.0.10.92	3	5	1	1																							l	{SPACE}		no	BlockProc2		BlockList									50	Free	dl	color_blue.png		-1	7	492813	460																								75	prime_left.png	0	492242	0	0	13	0	492242	0	492242	1	492242	20	0	-1	490743	492242	492241	0		TrialProc1	right	0		0	10	492552	-492552		0	0	TrialList2	target_both.png	0	dl	-1	3	492292	260	l	514	492806															12	1	50	incomp			450
1 ver1_main_procedure	21	1	33	<?xml version="1.0"?>\n<Clock xmlns:dt="urn:schemas-microsoft-com:datatypes"><Description dt:dt="string">E-Prime Primary Realtime Clock</Description><StartTime><Timestamp dt:dt="int">0</Timestamp><DateUtc dt:dt="string">2015-08-13T11:49:21Z</DateUtc></StartTime><FrequencyChanges><FrequencyChange><Frequency dt:dt="r8">2612294</Frequency><Timestamp dt:dt="r8">18236663306</Timestamp><Current dt:dt="r8">0</Current><DateUtc dt:dt="string">2015-08-13T11:49:21Z</DateUtc></FrequencyChange></FrequencyChanges></Clock>\n	1 ver1_main_procedure-21-1	99.938	1.0.0.880	1	il	1057298980	prawa	1	2.0.10.182	08-13-2015	2015-08-13 11:49:21	13:49:21	kobieta	2.0.10.92	3	5	1	1																							l	{SPACE}		no	BlockProc2		BlockList									51	Free	dl	color_purple.png		-1	10	495664	310																			2					75	prime_right.png	0	495084	0	0	13	0	495084	0	495084	1	495084	20	0	-1	493585	495084	495083	0	prime_right.png	TrialProc1	left	0		0	10	495394	-495394		0	0	TrialList2	target_both.png	0	dl	-1	3	495134	260	d	520	495654															8	1	51	neut			300
1 ver1_main_procedure	21	1	33	<?xml version="1.0"?>\n<Clock xmlns:dt="urn:schemas-microsoft-com:datatypes"><Description dt:dt="string">E-Prime Primary Realtime Clock</Description><StartTime><Timestamp dt:dt="int">0</Timestamp><DateUtc dt:dt="string">2015-08-13T11:49:21Z</DateUtc></StartTime><FrequencyChanges><FrequencyChange><Frequency dt:dt="r8">2612294</Frequency><Timestamp dt:dt="r8">18236663306</Timestamp><Current dt:dt="r8">0</Current><DateUtc dt:dt="string">2015-08-13T11:49:21Z</DateUtc></FrequencyChange></FrequencyChanges></Clock>\n	1 ver1_main_procedure-21-1	99.938	1.0.0.880	1	il	1057298980	prawa	1	2.0.10.182	08-13-2015	2015-08-13 11:49:21	13:49:21	kobieta	2.0.10.92	3	5	1	1																							l	{SPACE}		no	BlockProc2		BlockList									52	Cued	l	color_yellow.png		-1	13	498396	310																								25	prime_right.png	1	497786	0	0	13	1	497786	1	497786	0	497785	21	0	-1	496286	497785	497785	0		TrialProc1	right	0		0	10	498096	-498096		0	0	TrialList2	target_right.png	1	l	-1	3	497836	260	l	546	498382															4	1	52	comp			300
1 ver1_main_procedure	21	1	33	<?xml version="1.0"?>\n<Clock xmlns:dt="urn:schemas-microsoft-com:datatypes"><Description dt:dt="string">E-Prime Primary Realtime Clock</Description><StartTime><Timestamp dt:dt="int">0</Timestamp><DateUtc dt:dt="string">2015-08-13T11:49:21Z</DateUtc></StartTime><FrequencyChanges><FrequencyChange><Frequency dt:dt="r8">2612294</Frequency><Timestamp dt:dt="r8">18236663306</Timestamp><Current dt:dt="r8">0</Current><DateUtc dt:dt="string">2015-08-13T11:49:21Z</DateUtc></FrequencyChange></FrequencyChanges></Clock>\n	1 ver1_main_procedure-21-1	99.938	1.0.0.880	1	il	1057298980	prawa	1	2.0.10.182	08-13-2015	2015-08-13 11:49:21	13:49:21	kobieta	2.0.10.92	3	5	1	1																							l	{SPACE}		no	BlockProc2		BlockList									53	Free	dl	color_green.png		-1	10	501097	461																								75	prime_right.png	0	500517	0	0	13	0	500517	0	500517	1	500517	20	0	-1	499018	500517	500516	0		TrialProc1	right	0		0	10	500827	-500827		0	0	TrialList2	target_both.png	0	dl	-1	3	500567	260	d	519	501086															10	1	53	comp			450
1 ver1_main_procedure	21	1	33	<?xml version="1.0"?>\n<Clock xmlns:dt="urn:schemas-microsoft-com:datatypes"><Description dt:dt="string">E-Prime Primary Realtime Clock</Description><StartTime><Timestamp dt:dt="int">0</Timestamp><DateUtc dt:dt="string">2015-08-13T11:49:21Z</DateUtc></StartTime><FrequencyChanges><FrequencyChange><Frequency dt:dt="r8">2612294</Frequency><Timestamp dt:dt="r8">18236663306</Timestamp><Current dt:dt="r8">0</Current><DateUtc dt:dt="string">2015-08-13T11:49:21Z</DateUtc></FrequencyChange></FrequencyChanges></Clock>\n	1 ver1_main_procedure-21-1	99.938	1.0.0.880	1	il	1057298980	prawa	1	2.0.10.182	08-13-2015	2015-08-13 11:49:21	13:49:21	kobieta	2.0.10.92	3	5	1	1																							l	{SPACE}		no	BlockProc2		BlockList									54	Cued	l	color_red.png		-1	6	503989	461																			1					25	prime_left.png	0	503369	0	0	13	0	503369	0	503369	1	503369	20	0	-1	501870	503369	503368	0	prime_left.png	TrialProc1	right	0		0	10	503679	-503679		0	0	TrialList2	target_right.png	1	l	-1	3	503419	260	l	563	503982															5	1	54	neut			450
1 ver1_main_procedure	21	1	33	<?xml version="1.0"?>\n<Clock xmlns:dt="urn:schemas-microsoft-com:datatypes"><Description dt:dt="string">E-Prime Primary Realtime Clock</Description><StartTime><Timestamp dt:dt="int">0</Timestamp><DateUtc dt:dt="string">2015-08-13T11:49:21Z</DateUtc></StartTime><FrequencyChanges><FrequencyChange><Frequency dt:dt="r8">2612294</Frequency><Timestamp dt:dt="r8">18236663306</Timestamp><Current dt:dt="r8">0</Current><DateUtc dt:dt="string">2015-08-13T11:49:21Z</DateUtc></FrequencyChange></FrequencyChanges></Clock>\n	1 ver1_main_procedure-21-1	99.938	1.0.0.880	1	il	1057298980	prawa	1	2.0.10.182	08-13-2015	2015-08-13 11:49:21	13:49:21	kobieta	2.0.10.92	3	5	1	1																							l	{SPACE}		no	BlockProc2		BlockList									55	Cued	l	color_yellow.png		-1	10	506881	460																								25	prime_right.png	0	506261	0	0	13	0	506261	0	506261	1	506261	20	0	-1	504761	506261	506260	0		TrialProc1	right	0		0	10	506571	-506571		0	0	TrialList2	target_right.png	1	l	-1	3	506311	260	l	559	506870															4	1	55	comp			450
1 ver1_main_procedure	21	1	33	<?xml version="1.0"?>\n<Clock xmlns:dt="urn:schemas-microsoft-com:datatypes"><Description dt:dt="string">E-Prime Primary Realtime Clock</Description><StartTime><Timestamp dt:dt="int">0</Timestamp><DateUtc dt:dt="string">2015-08-13T11:49:21Z</DateUtc></StartTime><FrequencyChanges><FrequencyChange><Frequency dt:dt="r8">2612294</Frequency><Timestamp dt:dt="r8">18236663306</Timestamp><Current dt:dt="r8">0</Current><DateUtc dt:dt="string">2015-08-13T11:49:21Z</DateUtc></FrequencyChange></FrequencyChanges></Clock>\n	1 ver1_main_procedure-21-1	99.938	1.0.0.880	1	il	1057298980	prawa	1	2.0.10.182	08-13-2015	2015-08-13 11:49:21	13:49:21	kobieta	2.0.10.92	3	5	1	1																							l	{SPACE}		no	BlockProc2		BlockList									56	Free	dl	color_orange.png		-1	14	509853	160																								25	prime_left.png	0	509152	0	0	13	0	509152	0	509152	1	509152	20	0	-1	507653	509152	509151	0		TrialProc1	left	0		1	10	509462	-509462		0	0	TrialList2	target_both.png	0	dl	-1	3	509202	260	d	636	509838															7	1	56	comp			150
1 ver1_main_procedure	21	1	33	<?xml version="1.0"?>\n<Clock xmlns:dt="urn:schemas-microsoft-com:datatypes"><Description dt:dt="string">E-Prime Primary Realtime Clock</Description><StartTime><Timestamp dt:dt="int">0</Timestamp><DateUtc dt:dt="string">2015-08-13T11:49:21Z</DateUtc></StartTime><FrequencyChanges><FrequencyChange><Frequency dt:dt="r8">2612294</Frequency><Timestamp dt:dt="r8">18236663306</Timestamp><Current dt:dt="r8">0</Current><DateUtc dt:dt="string">2015-08-13T11:49:21Z</DateUtc></FrequencyChange></FrequencyChanges></Clock>\n	1 ver1_main_procedure-21-1	99.938	1.0.0.880	1	il	1057298980	prawa	1	2.0.10.182	08-13-2015	2015-08-13 11:49:21	13:49:21	kobieta	2.0.10.92	3	5	1	1																							l	{SPACE}		no	BlockProc2		BlockList									57	Free	dl	color_blue.png		-1	9	512424	310																								75	prime_left.png	0	511824	0	0	13	0	511824	0	511824	1	511824	20	0	-1	510325	511824	511823	0		TrialProc1	left	0		0	10	512134	-512134		0	0	TrialList2	target_both.png	0	dl	-1	3	511874	260	l	540	512414															7	1	57	comp			300
1 ver1_main_procedure	21	1	33	<?xml version="1.0"?>\n<Clock xmlns:dt="urn:schemas-microsoft-com:datatypes"><Description dt:dt="string">E-Prime Primary Realtime Clock</Description><StartTime><Timestamp dt:dt="int">0</Timestamp><DateUtc dt:dt="string">2015-08-13T11:49:21Z</DateUtc></StartTime><FrequencyChanges><FrequencyChange><Frequency dt:dt="r8">2612294</Frequency><Timestamp dt:dt="r8">18236663306</Timestamp><Current dt:dt="r8">0</Current><DateUtc dt:dt="string">2015-08-13T11:49:21Z</DateUtc></FrequencyChange></FrequencyChanges></Clock>\n	1 ver1_main_procedure-21-1	99.938	1.0.0.880	1	il	1057298980	prawa	1	2.0.10.182	08-13-2015	2015-08-13 11:49:21	13:49:21	kobieta	2.0.10.92	3	5	1	1																							l	{SPACE}		no	BlockProc2		BlockList									58	Free	dl	color_purple.png		-1	11	515146	310																			2					75	prime_right.png	0	514546	0	0	13	0	514546	0	514546	1	514546	20	0	-1	513046	514546	514545	0	prime_right.png	TrialProc1	left	0		0	10	514856	-514856		0	0	TrialList2	target_both.png	0	dl	-1	3	514596	260	d	538	515134															8	1	58	neut			300
1 ver1_main_procedure	21	1	33	<?xml version="1.0"?>\n<Clock xmlns:dt="urn:schemas-microsoft-com:datatypes"><Description dt:dt="string">E-Prime Primary Realtime Clock</Description><StartTime><Timestamp dt:dt="int">0</Timestamp><DateUtc dt:dt="string">2015-08-13T11:49:21Z</DateUtc></StartTime><FrequencyChanges><FrequencyChange><Frequency dt:dt="r8">2612294</Frequency><Timestamp dt:dt="r8">18236663306</Timestamp><Current dt:dt="r8">0</Current><DateUtc dt:dt="string">2015-08-13T11:49:21Z</DateUtc></FrequencyChange></FrequencyChanges></Clock>\n	1 ver1_main_procedure-21-1	99.938	1.0.0.880	1	il	1057298980	prawa	1	2.0.10.182	08-13-2015	2015-08-13 11:49:21	13:49:21	kobieta	2.0.10.92	3	5	1	1																							l	{SPACE}		no	BlockProc2		BlockList									59	Free	dl	color_red.png		-1	13	517828	460																			1					25	prime_left.png	0	517267	0	0	13	0	517267	0	517267	1	517267	20	0	-1	515768	517267	517266	0	prime_left.png	TrialProc1	right	0		0	10	517577	-517577		0	0	TrialList2	target_both.png	0	dl	-1	3	517317	260	l	497	517814															11	1	59	neut			450
1 ver1_main_procedure	21	1	33	<?xml version="1.0"?>\n<Clock xmlns:dt="urn:schemas-microsoft-com:datatypes"><Description dt:dt="string">E-Prime Primary Realtime Clock</Description><StartTime><Timestamp dt:dt="int">0</Timestamp><DateUtc dt:dt="string">2015-08-13T11:49:21Z</DateUtc></StartTime><FrequencyChanges><FrequencyChange><Frequency dt:dt="r8">2612294</Frequency><Timestamp dt:dt="r8">18236663306</Timestamp><Current dt:dt="r8">0</Current><DateUtc dt:dt="string">2015-08-13T11:49:21Z</DateUtc></FrequencyChange></FrequencyChanges></Clock>\n	1 ver1_main_procedure-21-1	99.938	1.0.0.880	1	il	1057298980	prawa	1	2.0.10.182	08-13-2015	2015-08-13 11:49:21	13:49:21	kobieta	2.0.10.92	3	5	1	1																							l	{SPACE}		no	BlockProc2		BlockList									60	Free	dl	color_purple.png		-1	14	520709	160																			2					25	prime_right.png	0	520099	0	0	13	0	520099	0	520099	1	520099	20	0	-1	518600	520099	520098	0	prime_right.png	TrialProc1	left	0		0	10	520409	-520409		0	0	TrialList2	target_both.png	0	dl	-1	3	520149	260	d	545	520694															8	1	60	neut			150
1 ver1_main_procedure	21	1	33	<?xml version="1.0"?>\n<Clock xmlns:dt="urn:schemas-microsoft-com:datatypes"><Description dt:dt="string">E-Prime Primary Realtime Clock</Description><StartTime><Timestamp dt:dt="int">0</Timestamp><DateUtc dt:dt="string">2015-08-13T11:49:21Z</DateUtc></StartTime><FrequencyChanges><FrequencyChange><Frequency dt:dt="r8">2612294</Frequency><Timestamp dt:dt="r8">18236663306</Timestamp><Current dt:dt="r8">0</Current><DateUtc dt:dt="string">2015-08-13T11:49:21Z</DateUtc></FrequencyChange></FrequencyChanges></Clock>\n	1 ver1_main_procedure-21-1	99.938	1.0.0.880	1	il	1057298980	prawa	1	2.0.10.182	08-13-2015	2015-08-13 11:49:21	13:49:21	kobieta	2.0.10.92	3	5	1	1																							l	{SPACE}		no	BlockProc2		BlockList									61	Free	dl	color_blue.png		-1	6	523261	460																								25	prime_left.png	0	522680	0	0	13	1	522681	1	522681	1	522680	20	0	-1	521181	522680	522679	0		TrialProc1	right	0		0	11	522991	-522991		0	0	TrialList2	target_both.png	0	dl	-1	3	522730	261	l	524	523254															12	1	61	incomp			450
1 ver1_main_procedure	21	1	33	<?xml version="1.0"?>\n<Clock xmlns:dt="urn:schemas-microsoft-com:datatypes"><Description dt:dt="string">E-Prime Primary Realtime Clock</Description><StartTime><Timestamp dt:dt="int">0</Timestamp><DateUtc dt:dt="string">2015-08-13T11:49:21Z</DateUtc></StartTime><FrequencyChanges><FrequencyChange><Frequency dt:dt="r8">2612294</Frequency><Timestamp dt:dt="r8">18236663306</Timestamp><Current dt:dt="r8">0</Current><DateUtc dt:dt="string">2015-08-13T11:49:21Z</DateUtc></FrequencyChange></FrequencyChanges></Clock>\n	1 ver1_main_procedure-21-1	99.938	1.0.0.880	1	il	1057298980	prawa	1	2.0.10.182	08-13-2015	2015-08-13 11:49:21	13:49:21	kobieta	2.0.10.92	3	5	1	1																							l	{SPACE}		no	BlockProc2		BlockList									62	Cued	d	color_green.png		-1	9	526152	461																								75	prime_right.png	0	525532	0	0	13	0	525532	0	525532	1	525532	20	0	-1	524033	525532	525531	0		TrialProc1	left	0		0	10	525842	-525842		0	0	TrialList2	target_left.png	1	d	-1	3	525582	260	d	561	526143															3	1	62	incomp			450
1 ver1_main_procedure	21	1	33	<?xml version="1.0"?>\n<Clock xmlns:dt="urn:schemas-microsoft-com:datatypes"><Description dt:dt="string">E-Prime Primary Realtime Clock</Description><StartTime><Timestamp dt:dt="int">0</Timestamp><DateUtc dt:dt="string">2015-08-13T11:49:21Z</DateUtc></StartTime><FrequencyChanges><FrequencyChange><Frequency dt:dt="r8">2612294</Frequency><Timestamp dt:dt="r8">18236663306</Timestamp><Current dt:dt="r8">0</Current><DateUtc dt:dt="string">2015-08-13T11:49:21Z</DateUtc></FrequencyChange></FrequencyChanges></Clock>\n	1 ver1_main_procedure-21-1	99.938	1.0.0.880	1	il	1057298980	prawa	1	2.0.10.182	08-13-2015	2015-08-13 11:49:21	13:49:21	kobieta	2.0.10.92	3	5	1	1																							l	{SPACE}		no	BlockProc2		BlockList									63	Cued	l	color_red.png		-1	9	528944	460																			1					25	prime_left.png	0	528424	0	0	13	0	528424	0	528424	1	528424	20	0	-1	526925	528424	528423	0	prime_left.png	TrialProc1	right	0		0	10	528734	-528734		0	0	TrialList2	target_right.png	1	l	-1	3	528474	260	l	461	528935															5	1	63	neut			450
1 ver1_main_procedure	21	1	33	<?xml version="1.0"?>\n<Clock xmlns:dt="urn:schemas-microsoft-com:datatypes"><Description dt:dt="string">E-Prime Primary Realtime Clock</Description><StartTime><Timestamp dt:dt="int">0</Timestamp><DateUtc dt:dt="string">2015-08-13T11:49:21Z</DateUtc></StartTime><FrequencyChanges><FrequencyChange><Frequency dt:dt="r8">2612294</Frequency><Timestamp dt:dt="r8">18236663306</Timestamp><Current dt:dt="r8">0</Current><DateUtc dt:dt="string">2015-08-13T11:49:21Z</DateUtc></FrequencyChange></FrequencyChanges></Clock>\n	1 ver1_main_procedure-21-1	99.938	1.0.0.880	1	il	1057298980	prawa	1	2.0.10.182	08-13-2015	2015-08-13 11:49:21	13:49:21	kobieta	2.0.10.92	3	5	1	1																							l	{SPACE}		no	BlockProc2		BlockList									64	Free	dl	color_purple.png		-1	7	531766	310																			2					25	prime_right.png	0	531216	0	0	13	0	531216	0	531216	1	531216	20	0	-1	529716	531216	531215	0	prime_right.png	TrialProc1	right	0		0	10	531526	-531526		0	0	TrialList2	target_both.png	0	dl	-1	3	531266	260	d	493	531759															11	1	64	neut			300
1 ver1_main_procedure	21	1	33	<?xml version="1.0"?>\n<Clock xmlns:dt="urn:schemas-microsoft-com:datatypes"><Description dt:dt="string">E-Prime Primary Realtime Clock</Description><StartTime><Timestamp dt:dt="int">0</Timestamp><DateUtc dt:dt="string">2015-08-13T11:49:21Z</DateUtc></StartTime><FrequencyChanges><FrequencyChange><Frequency dt:dt="r8">2612294</Frequency><Timestamp dt:dt="r8">18236663306</Timestamp><Current dt:dt="r8">0</Current><DateUtc dt:dt="string">2015-08-13T11:49:21Z</DateUtc></FrequencyChange></FrequencyChanges></Clock>\n	1 ver1_main_procedure-21-1	99.938	1.0.0.880	1	il	1057298980	prawa	1	2.0.10.182	08-13-2015	2015-08-13 11:49:21	13:49:21	kobieta	2.0.10.92	3	5	1	1																							l	{SPACE}		no	BlockProc2		BlockList									65	Free	dl	color_yellow.png		-1	15	534478	160																								75	prime_right.png	0	533887	0	0	13	0	533887	0	533887	1	533887	20	0	-1	532388	533887	533886	0		TrialProc1	right	0		1	10	534197	-534197		0	0	TrialList2	target_both.png	0	dl	-1	3	533937	260	l	526	534463															10	1	65	comp			150
1 ver1_main_procedure	21	1	33	<?xml version="1.0"?>\n<Clock xmlns:dt="urn:schemas-microsoft-com:datatypes"><Description dt:dt="string">E-Prime Primary Realtime Clock</Description><StartTime><Timestamp dt:dt="int">0</Timestamp><DateUtc dt:dt="string">2015-08-13T11:49:21Z</DateUtc></StartTime><FrequencyChanges><FrequencyChange><Frequency dt:dt="r8">2612294</Frequency><Timestamp dt:dt="r8">18236663306</Timestamp><Current dt:dt="r8">0</Current><DateUtc dt:dt="string">2015-08-13T11:49:21Z</DateUtc></FrequencyChange></FrequencyChanges></Clock>\n	1 ver1_main_procedure-21-1	99.938	1.0.0.880	1	il	1057298980	prawa	1	2.0.10.182	08-13-2015	2015-08-13 11:49:21	13:49:21	kobieta	2.0.10.92	3	5	1	1																							l	{SPACE}		no	BlockProc2		BlockList									66	Cued	l	color_blue.png		-1	13	537069	160																								75	prime_left.png	0	536449	0	0	13	0	536449	0	536449	1	536449	20	0	-1	534949	536449	536448	0		TrialProc1	right	0		0	10	536759	-536759		0	0	TrialList2	target_right.png	1	l	-1	3	536499	260	l	556	537055															6	1	66	incomp			150
1 ver1_main_procedure	21	1	33	<?xml version="1.0"?>\n<Clock xmlns:dt="urn:schemas-microsoft-com:datatypes"><Description dt:dt="string">E-Prime Primary Realtime Clock</Description><StartTime><Timestamp dt:dt="int">0</Timestamp><DateUtc dt:dt="string">2015-08-13T11:49:21Z</DateUtc></StartTime><FrequencyChanges><FrequencyChange><Frequency dt:dt="r8">2612294</Frequency><Timestamp dt:dt="r8">18236663306</Timestamp><Current dt:dt="r8">0</Current><DateUtc dt:dt="string">2015-08-13T11:49:21Z</DateUtc></FrequencyChange></FrequencyChanges></Clock>\n	1 ver1_main_procedure-21-1	99.938	1.0.0.880	1	il	1057298980	prawa	1	2.0.10.182	08-13-2015	2015-08-13 11:49:21	13:49:21	kobieta	2.0.10.92	3	5	1	1																							l	{SPACE}		no	BlockProc2		BlockList									67	Free	dl	color_purple.png		-1	8	539671	460																			1					75	prime_left.png	0	539040	0	0	13	0	539040	0	539040	1	539040	20	0	-1	537541	539040	539039	0	prime_left.png	TrialProc1	right	0		1	10	539350	-539350		0	0	TrialList2	target_both.png	0	dl	-1	3	539090	260	d	573	539663															11	1	67	neut			450
1 ver1_main_procedure	21	1	33	<?xml version="1.0"?>\n<Clock xmlns:dt="urn:schemas-microsoft-com:datatypes"><Description dt:dt="string">E-Prime Primary Realtime Clock</Description><StartTime><Timestamp dt:dt="int">0</Timestamp><DateUtc dt:dt="string">2015-08-13T11:49:21Z</DateUtc></StartTime><FrequencyChanges><FrequencyChange><Frequency dt:dt="r8">2612294</Frequency><Timestamp dt:dt="r8">18236663306</Timestamp><Current dt:dt="r8">0</Current><DateUtc dt:dt="string">2015-08-13T11:49:21Z</DateUtc></FrequencyChange></FrequencyChanges></Clock>\n	1 ver1_main_procedure-21-1	99.938	1.0.0.880	1	il	1057298980	prawa	1	2.0.10.182	08-13-2015	2015-08-13 11:49:21	13:49:21	kobieta	2.0.10.92	3	5	1	1																							l	{SPACE}		no	BlockProc2		BlockList									68	Free	dl	color_blue.png		-1	10	542562	160																								25	prime_left.png	0	541942	0	0	13	0	541942	0	541942	1	541942	20	0	-1	540443	541942	541941	0		TrialProc1	left	0		0	10	542252	-542252		0	0	TrialList2	target_both.png	0	dl	-1	3	541992	260	l	559	542551															7	1	68	comp			150
1 ver1_main_procedure	21	1	33	<?xml version="1.0"?>\n<Clock xmlns:dt="urn:schemas-microsoft-com:datatypes"><Description dt:dt="string">E-Prime Primary Realtime Clock</Description><StartTime><Timestamp dt:dt="int">0</Timestamp><DateUtc dt:dt="string">2015-08-13T11:49:21Z</DateUtc></StartTime><FrequencyChanges><FrequencyChange><Frequency dt:dt="r8">2612294</Frequency><Timestamp dt:dt="r8">18236663306</Timestamp><Current dt:dt="r8">0</Current><DateUtc dt:dt="string">2015-08-13T11:49:21Z</DateUtc></FrequencyChange></FrequencyChanges></Clock>\n	1 ver1_main_procedure-21-1	99.938	1.0.0.880	1	il	1057298980	prawa	1	2.0.10.182	08-13-2015	2015-08-13 11:49:21	13:49:21	kobieta	2.0.10.92	3	5	1	1																							l	{SPACE}		no	BlockProc2		BlockList									69	Cued	d	color_green.png		-1	8	545104	160																								75	prime_right.png	0	544534	0	0	13	0	544534	0	544534	1	544534	19	0	-1	543034	544534	544533	0		TrialProc1	left	0		0	10	544844	-544844		0	0	TrialList2	target_left.png	1	d	-1	4	544584	260	d	511	545095															3	1	69	incomp			150
1 ver1_main_procedure	21	1	33	<?xml version="1.0"?>\n<Clock xmlns:dt="urn:schemas-microsoft-com:datatypes"><Description dt:dt="string">E-Prime Primary Realtime Clock</Description><StartTime><Timestamp dt:dt="int">0</Timestamp><DateUtc dt:dt="string">2015-08-13T11:49:21Z</DateUtc></StartTime><FrequencyChanges><FrequencyChange><Frequency dt:dt="r8">2612294</Frequency><Timestamp dt:dt="r8">18236663306</Timestamp><Current dt:dt="r8">0</Current><DateUtc dt:dt="string">2015-08-13T11:49:21Z</DateUtc></FrequencyChange></FrequencyChanges></Clock>\n	1 ver1_main_procedure-21-1	99.938	1.0.0.880	1	il	1057298980	prawa	1	2.0.10.182	08-13-2015	2015-08-13 11:49:21	13:49:21	kobieta	2.0.10.92	3	5	1	1																							l	{SPACE}		no	BlockProc2		BlockList									70	Cued	l	color_blue.png		-1	11	547635	461																								75	prime_left.png	0	547075	0	0	13	0	547075	0	547075	1	547075	20	0	-1	545576	547075	547074	0		TrialProc1	right	0		0	10	547385	-547385		0	0	TrialList2	target_right.png	1	l	-1	3	547125	260	l	498	547623															6	1	70	incomp			450
1 ver1_main_procedure	21	1	33	<?xml version="1.0"?>\n<Clock xmlns:dt="urn:schemas-microsoft-com:datatypes"><Description dt:dt="string">E-Prime Primary Realtime Clock</Description><StartTime><Timestamp dt:dt="int">0</Timestamp><DateUtc dt:dt="string">2015-08-13T11:49:21Z</DateUtc></StartTime><FrequencyChanges><FrequencyChange><Frequency dt:dt="r8">2612294</Frequency><Timestamp dt:dt="r8">18236663306</Timestamp><Current dt:dt="r8">0</Current><DateUtc dt:dt="string">2015-08-13T11:49:21Z</DateUtc></FrequencyChange></FrequencyChanges></Clock>\n	1 ver1_main_procedure-21-1	99.938	1.0.0.880	1	il	1057298980	prawa	1	2.0.10.182	08-13-2015	2015-08-13 11:49:21	13:49:21	kobieta	2.0.10.92	3	5	1	1																							l	{SPACE}		no	BlockProc2		BlockList									71	Free	dl	color_purple.png		-1	5	550517	160																			2					75	prime_right.png	0	549907	0	0	13	0	549907	0	549907	1	549907	20	0	-1	548407	549907	549906	0	prime_right.png	TrialProc1	right	0		0	10	550217	-550217		0	0	TrialList2	target_both.png	0	dl	-1	3	549957	260	d	554	550511															11	1	71	neut			150
1 ver1_main_procedure	21	1	33	<?xml version="1.0"?>\n<Clock xmlns:dt="urn:schemas-microsoft-com:datatypes"><Description dt:dt="string">E-Prime Primary Realtime Clock</Description><StartTime><Timestamp dt:dt="int">0</Timestamp><DateUtc dt:dt="string">2015-08-13T11:49:21Z</DateUtc></StartTime><FrequencyChanges><FrequencyChange><Frequency dt:dt="r8">2612294</Frequency><Timestamp dt:dt="r8">18236663306</Timestamp><Current dt:dt="r8">0</Current><DateUtc dt:dt="string">2015-08-13T11:49:21Z</DateUtc></FrequencyChange></FrequencyChanges></Clock>\n	1 ver1_main_procedure-21-1	99.938	1.0.0.880	1	il	1057298980	prawa	1	2.0.10.182	08-13-2015	2015-08-13 11:49:21	13:49:21	kobieta	2.0.10.92	3	5	1	1																							l	{SPACE}		no	BlockProc2		BlockList									72	Free	dl	color_yellow.png		-1	15	553119	160																								25	prime_right.png	0	552488	0	0	13	0	552488	0	552488	1	552488	20	0	-1	550989	552488	552487	0		TrialProc1	left	0		1	10	552798	-552798		0	0	TrialList2	target_both.png	0	dl	-1	3	552538	260	l	565	553103															9	1	72	incomp			150
1 ver1_main_procedure	21	1	33	<?xml version="1.0"?>\n<Clock xmlns:dt="urn:schemas-microsoft-com:datatypes"><Description dt:dt="string">E-Prime Primary Realtime Clock</Description><StartTime><Timestamp dt:dt="int">0</Timestamp><DateUtc dt:dt="string">2015-08-13T11:49:21Z</DateUtc></StartTime><FrequencyChanges><FrequencyChange><Frequency dt:dt="r8">2612294</Frequency><Timestamp dt:dt="r8">18236663306</Timestamp><Current dt:dt="r8">0</Current><DateUtc dt:dt="string">2015-08-13T11:49:21Z</DateUtc></FrequencyChange></FrequencyChanges></Clock>\n	1 ver1_main_procedure-21-1	99.938	1.0.0.880	1	il	1057298980	prawa	1	2.0.10.182	08-13-2015	2015-08-13 11:49:21	13:49:21	kobieta	2.0.10.92	3	5	1	1																							l	{SPACE}		no	BlockProc2		BlockList									73									6	1	4	5	3	2	color_orange.png	color_yellow.png	color_purple.png	color_blue.png	color_green.png	color_red.png	color_yellow.png	color_red.png	color_green.png	color_purple.png	color_blue.png	color_orange.png		1	1	1	59976																						DragProc											Ocena																															
1 ver1_main_procedure	21	1	33	<?xml version="1.0"?>\n<Clock xmlns:dt="urn:schemas-microsoft-com:datatypes"><Description dt:dt="string">E-Prime Primary Realtime Clock</Description><StartTime><Timestamp dt:dt="int">0</Timestamp><DateUtc dt:dt="string">2015-08-13T11:49:21Z</DateUtc></StartTime><FrequencyChanges><FrequencyChange><Frequency dt:dt="r8">2612294</Frequency><Timestamp dt:dt="r8">18236663306</Timestamp><Current dt:dt="r8">0</Current><DateUtc dt:dt="string">2015-08-13T11:49:21Z</DateUtc></FrequencyChange></FrequencyChanges></Clock>\n	1 ver1_main_procedure-21-1	99.938	1.0.0.880	1	il	1057298980	prawa	1	2.0.10.182	08-13-2015	2015-08-13 11:49:21	13:49:21	kobieta	2.0.10.92	3	5	1	1																							l	{SPACE}		no	BlockProc2		BlockList									74															color_orange.png	color_yellow.png	color_purple.png	color_blue.png	color_green.png	color_red.png								2	1	2																							EnterProc											Ocena												25	30	40	65	85	90														
1 ver1_main_procedure	21	1	33	<?xml version="1.0"?>\n<Clock xmlns:dt="urn:schemas-microsoft-com:datatypes"><Description dt:dt="string">E-Prime Primary Realtime Clock</Description><StartTime><Timestamp dt:dt="int">0</Timestamp><DateUtc dt:dt="string">2015-08-13T11:49:21Z</DateUtc></StartTime><FrequencyChanges><FrequencyChange><Frequency dt:dt="r8">2612294</Frequency><Timestamp dt:dt="r8">18236663306</Timestamp><Current dt:dt="r8">0</Current><DateUtc dt:dt="string">2015-08-13T11:49:21Z</DateUtc></FrequencyChange></FrequencyChanges></Clock>\n	1 ver1_main_procedure-21-1	99.938	1.0.0.880	1	il	1057298980	prawa	1	2.0.10.182	08-13-2015	2015-08-13 11:49:21	13:49:21	kobieta	2.0.10.92	4	4	1	2																							l	{SPACE}		no	BlockProc2		BlockList									1	Free	dl	color_purple.png		-1	11	791401	311																								25	prime_left.png	0	790611	0	0	13	0	790611	0	790611	1	790611	20	0	-1	789112	790611	790610	0		TrialProc1	left	0		0	10	790921	-790921		0	0	TrialList2	target_both.png	0	dl	-1	3	790661	260	d	728	791389															7	2	73	comp			300
1 ver1_main_procedure	21	1	33	<?xml version="1.0"?>\n<Clock xmlns:dt="urn:schemas-microsoft-com:datatypes"><Description dt:dt="string">E-Prime Primary Realtime Clock</Description><StartTime><Timestamp dt:dt="int">0</Timestamp><DateUtc dt:dt="string">2015-08-13T11:49:21Z</DateUtc></StartTime><FrequencyChanges><FrequencyChange><Frequency dt:dt="r8">2612294</Frequency><Timestamp dt:dt="r8">18236663306</Timestamp><Current dt:dt="r8">0</Current><DateUtc dt:dt="string">2015-08-13T11:49:21Z</DateUtc></FrequencyChange></FrequencyChanges></Clock>\n	1 ver1_main_procedure-21-1	99.938	1.0.0.880	1	il	1057298980	prawa	1	2.0.10.182	08-13-2015	2015-08-13 11:49:21	13:49:21	kobieta	2.0.10.92	4	4	1	2																							l	{SPACE}		no	BlockProc2		BlockList									2	Free	dl	color_green.png		-1	9	794143	460																			1					25	prime_left.png	0	793523	0	0	13	0	793523	0	793523	1	793523	20	0	-1	792023	793523	793522	0	prime_left.png	TrialProc1	left	0		0	10	793833	-793833		0	0	TrialList2	target_both.png	0	dl	-1	3	793573	260	l	560	794133															8	2	74	neut			450
1 ver1_main_procedure	21	1	33	<?xml version="1.0"?>\n<Clock xmlns:dt="urn:schemas-microsoft-com:datatypes"><Description dt:dt="string">E-Prime Primary Realtime Clock</Description><StartTime><Timestamp dt:dt="int">0</Timestamp><DateUtc dt:dt="string">2015-08-13T11:49:21Z</DateUtc></StartTime><FrequencyChanges><FrequencyChange><Frequency dt:dt="r8">2612294</Frequency><Timestamp dt:dt="r8">18236663306</Timestamp><Current dt:dt="r8">0</Current><DateUtc dt:dt="string">2015-08-13T11:49:21Z</DateUtc></FrequencyChange></FrequencyChanges></Clock>\n	1 ver1_main_procedure-21-1	99.938	1.0.0.880	1	il	1057298980	prawa	1	2.0.10.182	08-13-2015	2015-08-13 11:49:21	13:49:21	kobieta	2.0.10.92	4	4	1	2																							l	{SPACE}		no	BlockProc2		BlockList									3	Free	dl	color_orange.png		-1	11	797145	310																								25	prime_right.png	0	796414	0	0	13	0	796414	0	796414	1	796414	20	0	-1	794915	796414	796413	0		TrialProc1	right	0		1	10	796724	-796724		0	0	TrialList2	target_both.png	0	dl	-1	3	796464	260	d	669	797133															10	2	75	comp			300
1 ver1_main_procedure	21	1	33	<?xml version="1.0"?>\n<Clock xmlns:dt="urn:schemas-microsoft-com:datatypes"><Description dt:dt="string">E-Prime Primary Realtime Clock</Description><StartTime><Timestamp dt:dt="int">0</Timestamp><DateUtc dt:dt="string">2015-08-13T11:49:21Z</DateUtc></StartTime><FrequencyChanges><FrequencyChange><Frequency dt:dt="r8">2612294</Frequency><Timestamp dt:dt="r8">18236663306</Timestamp><Current dt:dt="r8">0</Current><DateUtc dt:dt="string">2015-08-13T11:49:21Z</DateUtc></FrequencyChange></FrequencyChanges></Clock>\n	1 ver1_main_procedure-21-1	99.938	1.0.0.880	1	il	1057298980	prawa	1	2.0.10.182	08-13-2015	2015-08-13 11:49:21	13:49:21	kobieta	2.0.10.92	4	4	1	2																							l	{SPACE}		no	BlockProc2		BlockList									4	Cued	l	color_green.png		-1	8	799966	161																			2					75	prime_right.png	0	799266	0	0	13	0	799266	0	799266	1	799266	20	0	-1	797767	799266	799265	0	prime_right.png	TrialProc1	right	0		0	10	799576	-799576		0	0	TrialList2	target_right.png	1	l	-1	3	799316	260	l	641	799957															5	2	76	neut			150
1 ver1_main_procedure	21	1	33	<?xml version="1.0"?>\n<Clock xmlns:dt="urn:schemas-microsoft-com:datatypes"><Description dt:dt="string">E-Prime Primary Realtime Clock</Description><StartTime><Timestamp dt:dt="int">0</Timestamp><DateUtc dt:dt="string">2015-08-13T11:49:21Z</DateUtc></StartTime><FrequencyChanges><FrequencyChange><Frequency dt:dt="r8">2612294</Frequency><Timestamp dt:dt="r8">18236663306</Timestamp><Current dt:dt="r8">0</Current><DateUtc dt:dt="string">2015-08-13T11:49:21Z</DateUtc></FrequencyChange></FrequencyChanges></Clock>\n	1 ver1_main_procedure-21-1	99.938	1.0.0.880	1	il	1057298980	prawa	1	2.0.10.182	08-13-2015	2015-08-13 11:49:21	13:49:21	kobieta	2.0.10.92	4	4	1	2																							l	{SPACE}		no	BlockProc2		BlockList									5	Free	dl	color_yellow.png		-1	12	802578	310																			1					25	prime_left.png	0	801938	0	0	13	0	801938	0	801938	1	801938	20	0	-1	800439	801938	801937	0	prime_left.png	TrialProc1	right	0		0	10	802248	-802248		0	0	TrialList2	target_both.png	0	dl	-1	3	801988	260	d	577	802565															11	2	77	neut			300
1 ver1_main_procedure	21	1	33	<?xml version="1.0"?>\n<Clock xmlns:dt="urn:schemas-microsoft-com:datatypes"><Description dt:dt="string">E-Prime Primary Realtime Clock</Description><StartTime><Timestamp dt:dt="int">0</Timestamp><DateUtc dt:dt="string">2015-08-13T11:49:21Z</DateUtc></StartTime><FrequencyChanges><FrequencyChange><Frequency dt:dt="r8">2612294</Frequency><Timestamp dt:dt="r8">18236663306</Timestamp><Current dt:dt="r8">0</Current><DateUtc dt:dt="string">2015-08-13T11:49:21Z</DateUtc></FrequencyChange></FrequencyChanges></Clock>\n	1 ver1_main_procedure-21-1	99.938	1.0.0.880	1	il	1057298980	prawa	1	2.0.10.182	08-13-2015	2015-08-13 11:49:21	13:49:21	kobieta	2.0.10.92	4	4	1	2																							l	{SPACE}		no	BlockProc2		BlockList									6	Cued	d	color_purple.png		-1	12	805650	310																								25	prime_left.png	0	804699	0	0	13	0	804699	0	804699	1	804699	20	0	-1	803200	804699	804698	0		TrialProc1	left	0		1	10	805009	-805009		0	0	TrialList2	target_left.png	1	d	-1	3	804749	260	d	888	805637															1	2	78	comp			300
1 ver1_main_procedure	21	1	33	<?xml version="1.0"?>\n<Clock xmlns:dt="urn:schemas-microsoft-com:datatypes"><Description dt:dt="string">E-Prime Primary Realtime Clock</Description><StartTime><Timestamp dt:dt="int">0</Timestamp><DateUtc dt:dt="string">2015-08-13T11:49:21Z</DateUtc></StartTime><FrequencyChanges><FrequencyChange><Frequency dt:dt="r8">2612294</Frequency><Timestamp dt:dt="r8">18236663306</Timestamp><Current dt:dt="r8">0</Current><DateUtc dt:dt="string">2015-08-13T11:49:21Z</DateUtc></FrequencyChange></FrequencyChanges></Clock>\n	1 ver1_main_procedure-21-1	99.938	1.0.0.880	1	il	1057298980	prawa	1	2.0.10.182	08-13-2015	2015-08-13 11:49:21	13:49:21	kobieta	2.0.10.92	4	4	1	2																							l	{SPACE}		no	BlockProc2		BlockList									7	Cued	d	color_yellow.png		-1	11	808361	311																			2					25	prime_right.png	0	807771	0	0	13	0	807771	0	807771	1	807771	20	0	-1	806272	807771	807770	0	prime_right.png	TrialProc1	left	0		0	10	808081	-808081		0	0	TrialList2	target_left.png	1	d	-1	3	807821	260	d	528	808349															2	2	79	neut			300
1 ver1_main_procedure	21	1	33	<?xml version="1.0"?>\n<Clock xmlns:dt="urn:schemas-microsoft-com:datatypes"><Description dt:dt="string">E-Prime Primary Realtime Clock</Description><StartTime><Timestamp dt:dt="int">0</Timestamp><DateUtc dt:dt="string">2015-08-13T11:49:21Z</DateUtc></StartTime><FrequencyChanges><FrequencyChange><Frequency dt:dt="r8">2612294</Frequency><Timestamp dt:dt="r8">18236663306</Timestamp><Current dt:dt="r8">0</Current><DateUtc dt:dt="string">2015-08-13T11:49:21Z</DateUtc></FrequencyChange></FrequencyChanges></Clock>\n	1 ver1_main_procedure-21-1	99.938	1.0.0.880	1	il	1057298980	prawa	1	2.0.10.182	08-13-2015	2015-08-13 11:49:21	13:49:21	kobieta	2.0.10.92	4	4	1	2																							l	{SPACE}		no	BlockProc2		BlockList									8	Free	dl	color_blue.png		-1	7	811093	160																								25	prime_right.png	0	810483	0	0	13	0	810483	0	810483	1	810483	20	0	-1	808983	810483	810482	0		TrialProc1	left	0		0	10	810793	-810793		0	0	TrialList2	target_both.png	0	dl	-1	3	810533	260	l	552	811085															9	2	80	incomp			150
1 ver1_main_procedure	21	1	33	<?xml version="1.0"?>\n<Clock xmlns:dt="urn:schemas-microsoft-com:datatypes"><Description dt:dt="string">E-Prime Primary Realtime Clock</Description><StartTime><Timestamp dt:dt="int">0</Timestamp><DateUtc dt:dt="string">2015-08-13T11:49:21Z</DateUtc></StartTime><FrequencyChanges><FrequencyChange><Frequency dt:dt="r8">2612294</Frequency><Timestamp dt:dt="r8">18236663306</Timestamp><Current dt:dt="r8">0</Current><DateUtc dt:dt="string">2015-08-13T11:49:21Z</DateUtc></FrequencyChange></FrequencyChanges></Clock>\n	1 ver1_main_procedure-21-1	99.938	1.0.0.880	1	il	1057298980	prawa	1	2.0.10.182	08-13-2015	2015-08-13 11:49:21	13:49:21	kobieta	2.0.10.92	4	4	1	2																							l	{SPACE}		no	BlockProc2		BlockList									9	Free	dl	color_orange.png		-1	13	813955	160																								75	prime_right.png	0	813064	0	0	13	0	813064	0	813064	1	813064	20	0	-1	811565	813064	813063	0		TrialProc1	right	0		1	10	813374	-813374		0	0	TrialList2	target_both.png	0	dl	-1	3	813114	260	d	827	813941															10	2	81	comp			150
