ExperimentName	Subject	Session	Age	Clock.Information	DataFile.Basename	Display.RefreshRate	ExperimentVersion	Group	Name	RandomSeed	Recznosc	ResearcherID	RuntimeVersion	SessionDate	SessionStartDateTimeUtc	SessionTime	Sex	StudioVersion	Block	BlockList	BlockList.Cycle	BlockList.Sample	BlockNumber	GoodBye.RESP	GoodBye2.RESP	GoodByeList	GoodByeList.Cycle	GoodByeList.Sample	InstrList	InstrList.Cycle	InstrList.Sample	Instructions3.RESP	Instructions4.RESP	Instructions5.RESP	kobieta_S1	kobieta_S2	kobieta_S3	kobieta_S4	kobieta_S5	mezczyzna_S1	mezczyzna_S2	mezczyzna_S3	mezczyzna_S4	mezczyzna_S5	NextBlock.RESP	NextBlock0.RESP	planowanie	PracticeMode	Procedure[Block]	proszenie	Running[Block]	TrainingList	TrainingList.Cycle	TrainingList.Sample	WordList	WordList1	wykonanie	zauwazenie	zrozumienie	Trial	ChoiceType	CorrectRespon	Effect	ErrorText	Fixation2.DurationError	Fixation2.OnsetDelay	Fixation2.OnsetTime	Fixation2.OnsetToOnsetTime	GoalRespInd1	GoalRespInd2	GoalRespInd3	GoalRespInd4	GoalRespInd5	GoalRespInd6	GoalRespName1	GoalRespName2	GoalRespName3	GoalRespName4	GoalRespName5	GoalRespName6	kol1	kol2	kol3	kol4	kol5	kol6	NeutralPrimeList1	Ocena	Ocena.Cycle	Ocena.Sample	OverallRT	Posit	Prime	Prime.ActionDelay	Prime.ActionTime	Prime.CustomOffsetTime	Prime.CustomOnsetTime	Prime.Duration	Prime.DurationError	Prime.FinishTime	Prime.OffsetDelay	Prime.OffsetTime	Prime.OnsetDelay	Prime.OnsetTime	Prime.OnsetToOnsetTime	Prime.PendingInputMasks	Prime.PreRelease	Prime.StartTime	Prime.TargetOffsetTime	Prime.TargetOnsetTime	Prime.TimingMode	PrimeChoice	Procedure[Trial]	Resp	RespWin.ACC	RespWin.CRESP	RespWin.DurationError	RespWin.OnsetDelay	RespWin.OnsetTime	RespWin.OnsetToOnsetTime	RespWin.RESP	RespWin.RT	RespWin.RTTime	Running[Trial]	Target	TargetSlide.ACC	TargetSlide.CRESP	TargetSlide.DurationError	TargetSlide.OnsetDelay	TargetSlide.OnsetTime	TargetSlide.OnsetToOnsetTime	TargetSlide.RESP	TargetSlide.RT	TargetSlide.RTTime	TargetTraining	TBox1	TBox2	TBox3	TBox4	TBox5	TBox6	TrainingList1	TrainingList1.Cycle	TrainingList1.Sample	TrCorrectResp	TrialList1	TrialList1.Cycle	TrialList1.Sample	TrialList2	TrialList2.Cycle	TrialList2.Sample	TrialType	TrPosit	TrWaitTime	WaitTime
1 ver1_main_procedure	24	1	21	<?xml version="1.0"?>\n<Clock xmlns:dt="urn:schemas-microsoft-com:datatypes"><Description dt:dt="string">E-Prime Primary Realtime Clock</Description><StartTime><Timestamp dt:dt="int">0</Timestamp><DateUtc dt:dt="string">2015-08-14T08:19:05Z</DateUtc></StartTime><FrequencyChanges><FrequencyChange><Frequency dt:dt="r8">2612304</Frequency><Timestamp dt:dt="r8">701330488</Timestamp><Current dt:dt="r8">0</Current><DateUtc dt:dt="string">2015-08-14T08:19:05Z</DateUtc></FrequencyChange></FrequencyChanges></Clock>\n	1 ver1_main_procedure-24-1	99.937	1.0.0.880	2	jd	701850795	prawa	1	2.0.10.182	08-14-2015	2015-08-14 08:19:06	10:19:06	kobieta	2.0.10.92	1										1	1	1	{SPACE}	{SPACE}	l	poproszona	planowała	zrozumiałaś	wykonała		poproszony	planował	zrozumiałeś	wykonał				planowała		InstrProc	poproszona	InstrList				1		wykonała		zrozumiałaś																																																																																																
1 ver1_main_procedure	24	1	21	<?xml version="1.0"?>\n<Clock xmlns:dt="urn:schemas-microsoft-com:datatypes"><Description dt:dt="string">E-Prime Primary Realtime Clock</Description><StartTime><Timestamp dt:dt="int">0</Timestamp><DateUtc dt:dt="string">2015-08-14T08:19:05Z</DateUtc></StartTime><FrequencyChanges><FrequencyChange><Frequency dt:dt="r8">2612304</Frequency><Timestamp dt:dt="r8">701330488</Timestamp><Current dt:dt="r8">0</Current><DateUtc dt:dt="string">2015-08-14T08:19:05Z</DateUtc></FrequencyChange></FrequencyChanges></Clock>\n	1 ver1_main_procedure-24-1	99.937	1.0.0.880	2	jd	701850795	prawa	1	2.0.10.182	08-14-2015	2015-08-14 08:19:06	10:19:06	kobieta	2.0.10.92	2																														TrainingProc1		TrainingList	1	1	1						1																																																					TrainProc											TrainingList1											target_both.png							3	1	1	dl								75	150	
1 ver1_main_procedure	24	1	21	<?xml version="1.0"?>\n<Clock xmlns:dt="urn:schemas-microsoft-com:datatypes"><Description dt:dt="string">E-Prime Primary Realtime Clock</Description><StartTime><Timestamp dt:dt="int">0</Timestamp><DateUtc dt:dt="string">2015-08-14T08:19:05Z</DateUtc></StartTime><FrequencyChanges><FrequencyChange><Frequency dt:dt="r8">2612304</Frequency><Timestamp dt:dt="r8">701330488</Timestamp><Current dt:dt="r8">0</Current><DateUtc dt:dt="string">2015-08-14T08:19:05Z</DateUtc></FrequencyChange></FrequencyChanges></Clock>\n	1 ver1_main_procedure-24-1	99.937	1.0.0.880	2	jd	701850795	prawa	1	2.0.10.182	08-14-2015	2015-08-14 08:19:06	10:19:06	kobieta	2.0.10.92	2																														TrainingProc1		TrainingList	1	1	1						2																																																					TrainProc											TrainingList1											target_right.png							2	1	2	l								25	150	
1 ver1_main_procedure	24	1	21	<?xml version="1.0"?>\n<Clock xmlns:dt="urn:schemas-microsoft-com:datatypes"><Description dt:dt="string">E-Prime Primary Realtime Clock</Description><StartTime><Timestamp dt:dt="int">0</Timestamp><DateUtc dt:dt="string">2015-08-14T08:19:05Z</DateUtc></StartTime><FrequencyChanges><FrequencyChange><Frequency dt:dt="r8">2612304</Frequency><Timestamp dt:dt="r8">701330488</Timestamp><Current dt:dt="r8">0</Current><DateUtc dt:dt="string">2015-08-14T08:19:05Z</DateUtc></FrequencyChange></FrequencyChanges></Clock>\n	1 ver1_main_procedure-24-1	99.937	1.0.0.880	2	jd	701850795	prawa	1	2.0.10.182	08-14-2015	2015-08-14 08:19:06	10:19:06	kobieta	2.0.10.92	2																														TrainingProc1		TrainingList	1	1	1						3																																																					TrainProc											TrainingList1											target_right.png							2	1	3	l								75	300	
1 ver1_main_procedure	24	1	21	<?xml version="1.0"?>\n<Clock xmlns:dt="urn:schemas-microsoft-com:datatypes"><Description dt:dt="string">E-Prime Primary Realtime Clock</Description><StartTime><Timestamp dt:dt="int">0</Timestamp><DateUtc dt:dt="string">2015-08-14T08:19:05Z</DateUtc></StartTime><FrequencyChanges><FrequencyChange><Frequency dt:dt="r8">2612304</Frequency><Timestamp dt:dt="r8">701330488</Timestamp><Current dt:dt="r8">0</Current><DateUtc dt:dt="string">2015-08-14T08:19:05Z</DateUtc></FrequencyChange></FrequencyChanges></Clock>\n	1 ver1_main_procedure-24-1	99.937	1.0.0.880	2	jd	701850795	prawa	1	2.0.10.182	08-14-2015	2015-08-14 08:19:06	10:19:06	kobieta	2.0.10.92	2																														TrainingProc1		TrainingList	1	1	1						4																																																					TrainProc											TrainingList1											target_right.png							2	1	4	l								25	150	
1 ver1_main_procedure	24	1	21	<?xml version="1.0"?>\n<Clock xmlns:dt="urn:schemas-microsoft-com:datatypes"><Description dt:dt="string">E-Prime Primary Realtime Clock</Description><StartTime><Timestamp dt:dt="int">0</Timestamp><DateUtc dt:dt="string">2015-08-14T08:19:05Z</DateUtc></StartTime><FrequencyChanges><FrequencyChange><Frequency dt:dt="r8">2612304</Frequency><Timestamp dt:dt="r8">701330488</Timestamp><Current dt:dt="r8">0</Current><DateUtc dt:dt="string">2015-08-14T08:19:05Z</DateUtc></FrequencyChange></FrequencyChanges></Clock>\n	1 ver1_main_procedure-24-1	99.937	1.0.0.880	2	jd	701850795	prawa	1	2.0.10.182	08-14-2015	2015-08-14 08:19:06	10:19:06	kobieta	2.0.10.92	2																														TrainingProc1		TrainingList	1	1	1						5																																																					TrainProc											TrainingList1											target_both.png							3	1	5	dl								75	150	
1 ver1_main_procedure	24	1	21	<?xml version="1.0"?>\n<Clock xmlns:dt="urn:schemas-microsoft-com:datatypes"><Description dt:dt="string">E-Prime Primary Realtime Clock</Description><StartTime><Timestamp dt:dt="int">0</Timestamp><DateUtc dt:dt="string">2015-08-14T08:19:05Z</DateUtc></StartTime><FrequencyChanges><FrequencyChange><Frequency dt:dt="r8">2612304</Frequency><Timestamp dt:dt="r8">701330488</Timestamp><Current dt:dt="r8">0</Current><DateUtc dt:dt="string">2015-08-14T08:19:05Z</DateUtc></FrequencyChange></FrequencyChanges></Clock>\n	1 ver1_main_procedure-24-1	99.937	1.0.0.880	2	jd	701850795	prawa	1	2.0.10.182	08-14-2015	2015-08-14 08:19:06	10:19:06	kobieta	2.0.10.92	2																														TrainingProc1		TrainingList	1	1	1						6																																																					TrainProc											TrainingList1											target_both.png							3	1	6	dl								25	300	
1 ver1_main_procedure	24	1	21	<?xml version="1.0"?>\n<Clock xmlns:dt="urn:schemas-microsoft-com:datatypes"><Description dt:dt="string">E-Prime Primary Realtime Clock</Description><StartTime><Timestamp dt:dt="int">0</Timestamp><DateUtc dt:dt="string">2015-08-14T08:19:05Z</DateUtc></StartTime><FrequencyChanges><FrequencyChange><Frequency dt:dt="r8">2612304</Frequency><Timestamp dt:dt="r8">701330488</Timestamp><Current dt:dt="r8">0</Current><DateUtc dt:dt="string">2015-08-14T08:19:05Z</DateUtc></FrequencyChange></FrequencyChanges></Clock>\n	1 ver1_main_procedure-24-1	99.937	1.0.0.880	2	jd	701850795	prawa	1	2.0.10.182	08-14-2015	2015-08-14 08:19:06	10:19:06	kobieta	2.0.10.92	2																														TrainingProc1		TrainingList	1	1	1						7																																																					TrainProc											TrainingList1											target_left.png							1	1	7	d								75	300	
1 ver1_main_procedure	24	1	21	<?xml version="1.0"?>\n<Clock xmlns:dt="urn:schemas-microsoft-com:datatypes"><Description dt:dt="string">E-Prime Primary Realtime Clock</Description><StartTime><Timestamp dt:dt="int">0</Timestamp><DateUtc dt:dt="string">2015-08-14T08:19:05Z</DateUtc></StartTime><FrequencyChanges><FrequencyChange><Frequency dt:dt="r8">2612304</Frequency><Timestamp dt:dt="r8">701330488</Timestamp><Current dt:dt="r8">0</Current><DateUtc dt:dt="string">2015-08-14T08:19:05Z</DateUtc></FrequencyChange></FrequencyChanges></Clock>\n	1 ver1_main_procedure-24-1	99.937	1.0.0.880	2	jd	701850795	prawa	1	2.0.10.182	08-14-2015	2015-08-14 08:19:06	10:19:06	kobieta	2.0.10.92	2																														TrainingProc1		TrainingList	1	1	1						8																																																					TrainProc											TrainingList1											target_left.png							1	1	8	d								25	450	
1 ver1_main_procedure	24	1	21	<?xml version="1.0"?>\n<Clock xmlns:dt="urn:schemas-microsoft-com:datatypes"><Description dt:dt="string">E-Prime Primary Realtime Clock</Description><StartTime><Timestamp dt:dt="int">0</Timestamp><DateUtc dt:dt="string">2015-08-14T08:19:05Z</DateUtc></StartTime><FrequencyChanges><FrequencyChange><Frequency dt:dt="r8">2612304</Frequency><Timestamp dt:dt="r8">701330488</Timestamp><Current dt:dt="r8">0</Current><DateUtc dt:dt="string">2015-08-14T08:19:05Z</DateUtc></FrequencyChange></FrequencyChanges></Clock>\n	1 ver1_main_procedure-24-1	99.937	1.0.0.880	2	jd	701850795	prawa	1	2.0.10.182	08-14-2015	2015-08-14 08:19:06	10:19:06	kobieta	2.0.10.92	2																														TrainingProc1		TrainingList	1	1	1						9																																																					TrainProc											TrainingList1											target_left.png							1	1	9	d								75	450	
1 ver1_main_procedure	24	1	21	<?xml version="1.0"?>\n<Clock xmlns:dt="urn:schemas-microsoft-com:datatypes"><Description dt:dt="string">E-Prime Primary Realtime Clock</Description><StartTime><Timestamp dt:dt="int">0</Timestamp><DateUtc dt:dt="string">2015-08-14T08:19:05Z</DateUtc></StartTime><FrequencyChanges><FrequencyChange><Frequency dt:dt="r8">2612304</Frequency><Timestamp dt:dt="r8">701330488</Timestamp><Current dt:dt="r8">0</Current><DateUtc dt:dt="string">2015-08-14T08:19:05Z</DateUtc></FrequencyChange></FrequencyChanges></Clock>\n	1 ver1_main_procedure-24-1	99.937	1.0.0.880	2	jd	701850795	prawa	1	2.0.10.182	08-14-2015	2015-08-14 08:19:06	10:19:06	kobieta	2.0.10.92	3	4	1	1																							l	{SPACE}		no	BlockProc2		BlockList									1	Free	dl	color_red.png		-1	7	278556	460																								75	prime_right.png	0	277916	0	0	13	0	277916	0	277916	1	277916	20	0	-1	276417	277916	277915	0		TrialProc1	left	0		0	20	278236	-278236		0	0	TrialList2	target_both.png	0	dl	-1	3	277966	270	l	582	278548															9	1	1	incomp			450
1 ver1_main_procedure	24	1	21	<?xml version="1.0"?>\n<Clock xmlns:dt="urn:schemas-microsoft-com:datatypes"><Description dt:dt="string">E-Prime Primary Realtime Clock</Description><StartTime><Timestamp dt:dt="int">0</Timestamp><DateUtc dt:dt="string">2015-08-14T08:19:05Z</DateUtc></StartTime><FrequencyChanges><FrequencyChange><Frequency dt:dt="r8">2612304</Frequency><Timestamp dt:dt="r8">701330488</Timestamp><Current dt:dt="r8">0</Current><DateUtc dt:dt="string">2015-08-14T08:19:05Z</DateUtc></FrequencyChange></FrequencyChanges></Clock>\n	1 ver1_main_procedure-24-1	99.937	1.0.0.880	2	jd	701850795	prawa	1	2.0.10.182	08-14-2015	2015-08-14 08:19:06	10:19:06	kobieta	2.0.10.92	3	4	1	1																							l	{SPACE}		no	BlockProc2		BlockList									2	Cued	d	color_orange.png		-1	13	281178	310																								75	prime_right.png	0	280827	0	0	13	1	280828	1	280828	0	280827	20	0	-1	279328	280827	280827	0		TrialProc1	left	0		0	11	281138	-281138		0	0	TrialList2	target_left.png	1	d	-1	3	280877	261	d	287	281164															3	1	2	incomp			300
1 ver1_main_procedure	24	1	21	<?xml version="1.0"?>\n<Clock xmlns:dt="urn:schemas-microsoft-com:datatypes"><Description dt:dt="string">E-Prime Primary Realtime Clock</Description><StartTime><Timestamp dt:dt="int">0</Timestamp><DateUtc dt:dt="string">2015-08-14T08:19:05Z</DateUtc></StartTime><FrequencyChanges><FrequencyChange><Frequency dt:dt="r8">2612304</Frequency><Timestamp dt:dt="r8">701330488</Timestamp><Current dt:dt="r8">0</Current><DateUtc dt:dt="string">2015-08-14T08:19:05Z</DateUtc></FrequencyChange></FrequencyChanges></Clock>\n	1 ver1_main_procedure-24-1	99.937	1.0.0.880	2	jd	701850795	prawa	1	2.0.10.182	08-14-2015	2015-08-14 08:19:06	10:19:06	kobieta	2.0.10.92	3	4	1	1																							l	{SPACE}		no	BlockProc2		BlockList									3	Free	dl	color_yellow.png		-1	10	283639	160																								25	prime_left.png	0	283299	0	0	13	0	283299	0	283299	1	283299	20	0	-1	281800	283299	283298	0		TrialProc1	left	0		0	10	283609	-283609		0	0	TrialList2	target_both.png	0	dl	-1	3	283349	260	d	279	283628															7	1	3	comp			150
1 ver1_main_procedure	24	1	21	<?xml version="1.0"?>\n<Clock xmlns:dt="urn:schemas-microsoft-com:datatypes"><Description dt:dt="string">E-Prime Primary Realtime Clock</Description><StartTime><Timestamp dt:dt="int">0</Timestamp><DateUtc dt:dt="string">2015-08-14T08:19:05Z</DateUtc></StartTime><FrequencyChanges><FrequencyChange><Frequency dt:dt="r8">2612304</Frequency><Timestamp dt:dt="r8">701330488</Timestamp><Current dt:dt="r8">0</Current><DateUtc dt:dt="string">2015-08-14T08:19:05Z</DateUtc></FrequencyChange></FrequencyChanges></Clock>\n	1 ver1_main_procedure-24-1	99.937	1.0.0.880	2	jd	701850795	prawa	1	2.0.10.182	08-14-2015	2015-08-14 08:19:06	10:19:06	kobieta	2.0.10.92	3	4	1	1																							l	{SPACE}		no	BlockProc2		BlockList									4	Cued	l	color_green.png		-1	7	286020	461																								25	prime_left.png	0	285610	0	0	13	0	285610	0	285610	1	285610	20	0	-1	284111	285610	285609	0		TrialProc1	right	0		1	10	285920	-285920		0	0	TrialList2	target_right.png	1	l	-1	3	285660	260	l	352	286012															6	1	4	incomp			450
1 ver1_main_procedure	24	1	21	<?xml version="1.0"?>\n<Clock xmlns:dt="urn:schemas-microsoft-com:datatypes"><Description dt:dt="string">E-Prime Primary Realtime Clock</Description><StartTime><Timestamp dt:dt="int">0</Timestamp><DateUtc dt:dt="string">2015-08-14T08:19:05Z</DateUtc></StartTime><FrequencyChanges><FrequencyChange><Frequency dt:dt="r8">2612304</Frequency><Timestamp dt:dt="r8">701330488</Timestamp><Current dt:dt="r8">0</Current><DateUtc dt:dt="string">2015-08-14T08:19:05Z</DateUtc></FrequencyChange></FrequencyChanges></Clock>\n	1 ver1_main_procedure-24-1	99.937	1.0.0.880	2	jd	701850795	prawa	1	2.0.10.182	08-14-2015	2015-08-14 08:19:06	10:19:06	kobieta	2.0.10.92	3	4	1	1																							l	{SPACE}		no	BlockProc2		BlockList									5	Free	dl	color_orange.png		-1	5	288722	460																								25	prime_right.png	0	288292	0	0	13	0	288292	0	288292	1	288292	20	0	-1	286793	288292	288291	0		TrialProc1	left	0		0	10	288602	-288602		0	0	TrialList2	target_both.png	0	dl	-1	3	288342	260	d	374	288716															9	1	5	incomp			450
1 ver1_main_procedure	24	1	21	<?xml version="1.0"?>\n<Clock xmlns:dt="urn:schemas-microsoft-com:datatypes"><Description dt:dt="string">E-Prime Primary Realtime Clock</Description><StartTime><Timestamp dt:dt="int">0</Timestamp><DateUtc dt:dt="string">2015-08-14T08:19:05Z</DateUtc></StartTime><FrequencyChanges><FrequencyChange><Frequency dt:dt="r8">2612304</Frequency><Timestamp dt:dt="r8">701330488</Timestamp><Current dt:dt="r8">0</Current><DateUtc dt:dt="string">2015-08-14T08:19:05Z</DateUtc></FrequencyChange></FrequencyChanges></Clock>\n	1 ver1_main_procedure-24-1	99.937	1.0.0.880	2	jd	701850795	prawa	1	2.0.10.182	08-14-2015	2015-08-14 08:19:06	10:19:06	kobieta	2.0.10.92	3	4	1	1																							l	{SPACE}		no	BlockProc2		BlockList									6	Free	dl	color_blue.png		-1	15	291444	160																			2					75	prime_right.png	1	290994	0	0	13	1	290994	1	290994	0	290993	20	0	-1	289494	290993	290993	0	prime_right.png	TrialProc1	right	0		0	11	291304	-291304		0	0	TrialList2	target_both.png	0	dl	-1	3	291043	261	d	385	291428															11	1	6	neut			150
1 ver1_main_procedure	24	1	21	<?xml version="1.0"?>\n<Clock xmlns:dt="urn:schemas-microsoft-com:datatypes"><Description dt:dt="string">E-Prime Primary Realtime Clock</Description><StartTime><Timestamp dt:dt="int">0</Timestamp><DateUtc dt:dt="string">2015-08-14T08:19:05Z</DateUtc></StartTime><FrequencyChanges><FrequencyChange><Frequency dt:dt="r8">2612304</Frequency><Timestamp dt:dt="r8">701330488</Timestamp><Current dt:dt="r8">0</Current><DateUtc dt:dt="string">2015-08-14T08:19:05Z</DateUtc></FrequencyChange></FrequencyChanges></Clock>\n	1 ver1_main_procedure-24-1	99.937	1.0.0.880	2	jd	701850795	prawa	1	2.0.10.182	08-14-2015	2015-08-14 08:19:06	10:19:06	kobieta	2.0.10.92	3	4	1	1																							l	{SPACE}		no	BlockProc2		BlockList									7	Cued	l	color_green.png		-1	6	293755	460																								75	prime_left.png	0	293415	0	0	13	0	293415	0	293415	1	293415	20	0	-1	291916	293415	293414	0		TrialProc1	right	0		0	10	293725	-293725		0	0	TrialList2	target_right.png	1	l	-1	3	293465	260	l	283	293748															6	1	7	incomp			450
1 ver1_main_procedure	24	1	21	<?xml version="1.0"?>\n<Clock xmlns:dt="urn:schemas-microsoft-com:datatypes"><Description dt:dt="string">E-Prime Primary Realtime Clock</Description><StartTime><Timestamp dt:dt="int">0</Timestamp><DateUtc dt:dt="string">2015-08-14T08:19:05Z</DateUtc></StartTime><FrequencyChanges><FrequencyChange><Frequency dt:dt="r8">2612304</Frequency><Timestamp dt:dt="r8">701330488</Timestamp><Current dt:dt="r8">0</Current><DateUtc dt:dt="string">2015-08-14T08:19:05Z</DateUtc></FrequencyChange></FrequencyChanges></Clock>\n	1 ver1_main_procedure-24-1	99.937	1.0.0.880	2	jd	701850795	prawa	1	2.0.10.182	08-14-2015	2015-08-14 08:19:06	10:19:06	kobieta	2.0.10.92	3	4	1	1																							l	{SPACE}		no	BlockProc2		BlockList									8	Free	dl	color_orange.png		-1	14	296307	310																								75	prime_right.png	1	296027	0	0	13	1	296027	1	296027	0	296026	20	0	-1	294527	296026	296026	0		TrialProc1	left	0		0	0	0	0		0	0	TrialList2	target_both.png	0	dl	-999999	3	296076	0	d	216	296292															9	1	8	incomp			300
1 ver1_main_procedure	24	1	21	<?xml version="1.0"?>\n<Clock xmlns:dt="urn:schemas-microsoft-com:datatypes"><Description dt:dt="string">E-Prime Primary Realtime Clock</Description><StartTime><Timestamp dt:dt="int">0</Timestamp><DateUtc dt:dt="string">2015-08-14T08:19:05Z</DateUtc></StartTime><FrequencyChanges><FrequencyChange><Frequency dt:dt="r8">2612304</Frequency><Timestamp dt:dt="r8">701330488</Timestamp><Current dt:dt="r8">0</Current><DateUtc dt:dt="string">2015-08-14T08:19:05Z</DateUtc></FrequencyChange></FrequencyChanges></Clock>\n	1 ver1_main_procedure-24-1	99.937	1.0.0.880	2	jd	701850795	prawa	1	2.0.10.182	08-14-2015	2015-08-14 08:19:06	10:19:06	kobieta	2.0.10.92	3	4	1	1																							l	{SPACE}		no	BlockProc2		BlockList									9	Free	dl	color_green.png		-1	7	298868	460																								75	prime_left.png	0	298428	0	0	13	0	298428	0	298428	1	298428	20	0	-1	296929	298428	298427	0		TrialProc1	right	0		0	10	298738	-298738		0	0	TrialList2	target_both.png	0	dl	-1	3	298478	260	l	382	298860															12	1	9	incomp			450
1 ver1_main_procedure	24	1	21	<?xml version="1.0"?>\n<Clock xmlns:dt="urn:schemas-microsoft-com:datatypes"><Description dt:dt="string">E-Prime Primary Realtime Clock</Description><StartTime><Timestamp dt:dt="int">0</Timestamp><DateUtc dt:dt="string">2015-08-14T08:19:05Z</DateUtc></StartTime><FrequencyChanges><FrequencyChange><Frequency dt:dt="r8">2612304</Frequency><Timestamp dt:dt="r8">701330488</Timestamp><Current dt:dt="r8">0</Current><DateUtc dt:dt="string">2015-08-14T08:19:05Z</DateUtc></FrequencyChange></FrequencyChanges></Clock>\n	1 ver1_main_procedure-24-1	99.937	1.0.0.880	2	jd	701850795	prawa	1	2.0.10.182	08-14-2015	2015-08-14 08:19:06	10:19:06	kobieta	2.0.10.92	3	4	1	1																							l	{SPACE}		no	BlockProc2		BlockList									10	Free	dl	color_yellow.png		-1	13	301650	460																								25	prime_left.png	1	301140	0	0	13	1	301140	1	301140	0	301139	20	0	-1	299640	301139	301139	0		TrialProc1	left	0		0	11	301450	-301450		0	0	TrialList2	target_both.png	0	dl	-1	3	301189	261	d	447	301636															7	1	10	comp			450
1 ver1_main_procedure	24	1	21	<?xml version="1.0"?>\n<Clock xmlns:dt="urn:schemas-microsoft-com:datatypes"><Description dt:dt="string">E-Prime Primary Realtime Clock</Description><StartTime><Timestamp dt:dt="int">0</Timestamp><DateUtc dt:dt="string">2015-08-14T08:19:05Z</DateUtc></StartTime><FrequencyChanges><FrequencyChange><Frequency dt:dt="r8">2612304</Frequency><Timestamp dt:dt="r8">701330488</Timestamp><Current dt:dt="r8">0</Current><DateUtc dt:dt="string">2015-08-14T08:19:05Z</DateUtc></FrequencyChange></FrequencyChanges></Clock>\n	1 ver1_main_procedure-24-1	99.937	1.0.0.880	2	jd	701850795	prawa	1	2.0.10.182	08-14-2015	2015-08-14 08:19:06	10:19:06	kobieta	2.0.10.92	3	4	1	1																							l	{SPACE}		no	BlockProc2		BlockList									11	Free	dl	color_yellow.png		-1	8	304221	461																								25	prime_left.png	0	303921	0	0	13	0	303921	0	303921	1	303921	20	0	-1	302422	303921	303920	0		TrialProc1	right	0		0	0	0	0		0	0	TrialList2	target_both.png	0	dl	-999999	3	303971	0	d	242	304213															12	1	11	incomp			450
1 ver1_main_procedure	24	1	21	<?xml version="1.0"?>\n<Clock xmlns:dt="urn:schemas-microsoft-com:datatypes"><Description dt:dt="string">E-Prime Primary Realtime Clock</Description><StartTime><Timestamp dt:dt="int">0</Timestamp><DateUtc dt:dt="string">2015-08-14T08:19:05Z</DateUtc></StartTime><FrequencyChanges><FrequencyChange><Frequency dt:dt="r8">2612304</Frequency><Timestamp dt:dt="r8">701330488</Timestamp><Current dt:dt="r8">0</Current><DateUtc dt:dt="string">2015-08-14T08:19:05Z</DateUtc></FrequencyChange></FrequencyChanges></Clock>\n	1 ver1_main_procedure-24-1	99.937	1.0.0.880	2	jd	701850795	prawa	1	2.0.10.182	08-14-2015	2015-08-14 08:19:06	10:19:06	kobieta	2.0.10.92	3	4	1	1																							l	{SPACE}		no	BlockProc2		BlockList									12	Free	dl	color_green.png		-1	10	306863	310																								75	prime_left.png	0	306493	0	0	13	0	306493	0	306493	1	306493	20	0	-1	304993	306493	306492	0		TrialProc1	left	0		0	10	306803	-306803		0	0	TrialList2	target_both.png	0	dl	-1	3	306543	260	l	310	306853															7	1	12	comp			300
1 ver1_main_procedure	24	1	21	<?xml version="1.0"?>\n<Clock xmlns:dt="urn:schemas-microsoft-com:datatypes"><Description dt:dt="string">E-Prime Primary Realtime Clock</Description><StartTime><Timestamp dt:dt="int">0</Timestamp><DateUtc dt:dt="string">2015-08-14T08:19:05Z</DateUtc></StartTime><FrequencyChanges><FrequencyChange><Frequency dt:dt="r8">2612304</Frequency><Timestamp dt:dt="r8">701330488</Timestamp><Current dt:dt="r8">0</Current><DateUtc dt:dt="string">2015-08-14T08:19:05Z</DateUtc></FrequencyChange></FrequencyChanges></Clock>\n	1 ver1_main_procedure-24-1	99.937	1.0.0.880	2	jd	701850795	prawa	1	2.0.10.182	08-14-2015	2015-08-14 08:19:06	10:19:06	kobieta	2.0.10.92	3	4	1	1																							l	{SPACE}		no	BlockProc2		BlockList									13	Free	dl	color_green.png		-1	7	309364	461																								25	prime_left.png	0	308984	0	0	13	0	308984	0	308984	1	308984	20	0	-1	307485	308984	308983	0		TrialProc1	left	0		0	10	309294	-309294		0	0	TrialList2	target_both.png	0	dl	-1	3	309034	260	l	323	309357															7	1	13	comp			450
1 ver1_main_procedure	24	1	21	<?xml version="1.0"?>\n<Clock xmlns:dt="urn:schemas-microsoft-com:datatypes"><Description dt:dt="string">E-Prime Primary Realtime Clock</Description><StartTime><Timestamp dt:dt="int">0</Timestamp><DateUtc dt:dt="string">2015-08-14T08:19:05Z</DateUtc></StartTime><FrequencyChanges><FrequencyChange><Frequency dt:dt="r8">2612304</Frequency><Timestamp dt:dt="r8">701330488</Timestamp><Current dt:dt="r8">0</Current><DateUtc dt:dt="string">2015-08-14T08:19:05Z</DateUtc></FrequencyChange></FrequencyChanges></Clock>\n	1 ver1_main_procedure-24-1	99.937	1.0.0.880	2	jd	701850795	prawa	1	2.0.10.182	08-14-2015	2015-08-14 08:19:06	10:19:06	kobieta	2.0.10.92	3	4	1	1																							l	{SPACE}		no	BlockProc2		BlockList									14	Free	dl	color_red.png		-1	7	311956	160																								25	prime_right.png	0	311636	0	0	13	0	311636	0	311636	1	311636	20	0	-1	310137	311636	311635	0		TrialProc1	right	0		0	10	311946	-311946		0	0	TrialList2	target_both.png	0	dl	-1	3	311686	260	l	263	311949															10	1	14	comp			150
1 ver1_main_procedure	24	1	21	<?xml version="1.0"?>\n<Clock xmlns:dt="urn:schemas-microsoft-com:datatypes"><Description dt:dt="string">E-Prime Primary Realtime Clock</Description><StartTime><Timestamp dt:dt="int">0</Timestamp><DateUtc dt:dt="string">2015-08-14T08:19:05Z</DateUtc></StartTime><FrequencyChanges><FrequencyChange><Frequency dt:dt="r8">2612304</Frequency><Timestamp dt:dt="r8">701330488</Timestamp><Current dt:dt="r8">0</Current><DateUtc dt:dt="string">2015-08-14T08:19:05Z</DateUtc></FrequencyChange></FrequencyChanges></Clock>\n	1 ver1_main_procedure-24-1	99.937	1.0.0.880	2	jd	701850795	prawa	1	2.0.10.182	08-14-2015	2015-08-14 08:19:06	10:19:06	kobieta	2.0.10.92	3	4	1	1																							l	{SPACE}		no	BlockProc2		BlockList									15	Free	dl	color_blue.png		-1	6	314227	310																			1					25	prime_left.png	0	313927	0	0	13	0	313927	0	313927	1	313927	20	0	-1	312428	313927	313926	0	prime_left.png	TrialProc1	left	0		0	0	0	0		0	0	TrialList2	target_both.png	0	dl	-999999	3	313977	0	d	244	314221															8	1	15	neut			300
1 ver1_main_procedure	24	1	21	<?xml version="1.0"?>\n<Clock xmlns:dt="urn:schemas-microsoft-com:datatypes"><Description dt:dt="string">E-Prime Primary Realtime Clock</Description><StartTime><Timestamp dt:dt="int">0</Timestamp><DateUtc dt:dt="string">2015-08-14T08:19:05Z</DateUtc></StartTime><FrequencyChanges><FrequencyChange><Frequency dt:dt="r8">2612304</Frequency><Timestamp dt:dt="r8">701330488</Timestamp><Current dt:dt="r8">0</Current><DateUtc dt:dt="string">2015-08-14T08:19:05Z</DateUtc></FrequencyChange></FrequencyChanges></Clock>\n	1 ver1_main_procedure-24-1	99.937	1.0.0.880	2	jd	701850795	prawa	1	2.0.10.182	08-14-2015	2015-08-14 08:19:06	10:19:06	kobieta	2.0.10.92	3	4	1	1																							l	{SPACE}		no	BlockProc2		BlockList									16	Free	dl	color_purple.png		-1	8	316629	160																			2					25	prime_right.png	0	316349	0	0	13	0	316349	0	316349	1	316349	20	0	-1	314849	316349	316348	0	prime_right.png	TrialProc1	right	0		0	0	0	0		0	0	TrialList2	target_both.png	0	dl	-999999	3	316399	0	l	222	316621															11	1	16	neut			150
1 ver1_main_procedure	24	1	21	<?xml version="1.0"?>\n<Clock xmlns:dt="urn:schemas-microsoft-com:datatypes"><Description dt:dt="string">E-Prime Primary Realtime Clock</Description><StartTime><Timestamp dt:dt="int">0</Timestamp><DateUtc dt:dt="string">2015-08-14T08:19:05Z</DateUtc></StartTime><FrequencyChanges><FrequencyChange><Frequency dt:dt="r8">2612304</Frequency><Timestamp dt:dt="r8">701330488</Timestamp><Current dt:dt="r8">0</Current><DateUtc dt:dt="string">2015-08-14T08:19:05Z</DateUtc></FrequencyChange></FrequencyChanges></Clock>\n	1 ver1_main_procedure-24-1	99.937	1.0.0.880	2	jd	701850795	prawa	1	2.0.10.182	08-14-2015	2015-08-14 08:19:06	10:19:06	kobieta	2.0.10.92	3	4	1	1																							l	{SPACE}		no	BlockProc2		BlockList									17	Free	dl	color_yellow.png		-1	6	318940	160																								75	prime_left.png	0	318600	0	0	13	0	318600	0	318600	1	318600	20	0	-1	317101	318600	318599	0		TrialProc1	right	0		0	10	318910	-318910		0	0	TrialList2	target_both.png	0	dl	-1	3	318650	260	d	283	318933															12	1	17	incomp			150
1 ver1_main_procedure	24	1	21	<?xml version="1.0"?>\n<Clock xmlns:dt="urn:schemas-microsoft-com:datatypes"><Description dt:dt="string">E-Prime Primary Realtime Clock</Description><StartTime><Timestamp dt:dt="int">0</Timestamp><DateUtc dt:dt="string">2015-08-14T08:19:05Z</DateUtc></StartTime><FrequencyChanges><FrequencyChange><Frequency dt:dt="r8">2612304</Frequency><Timestamp dt:dt="r8">701330488</Timestamp><Current dt:dt="r8">0</Current><DateUtc dt:dt="string">2015-08-14T08:19:05Z</DateUtc></FrequencyChange></FrequencyChanges></Clock>\n	1 ver1_main_procedure-24-1	99.937	1.0.0.880	2	jd	701850795	prawa	1	2.0.10.182	08-14-2015	2015-08-14 08:19:06	10:19:06	kobieta	2.0.10.92	3	4	1	1																							l	{SPACE}		no	BlockProc2		BlockList									18	Free	dl	color_purple.png		-1	9	321231	161																			1					25	prime_left.png	0	320911	0	0	13	0	320911	0	320911	1	320911	20	0	-1	319412	320911	320910	0	prime_left.png	TrialProc1	left	0		-999999	10	321221	0		0	0	TrialList2	target_both.png	0	dl	-1	3	320961	0	l	252	321213															8	1	18	neut			150
1 ver1_main_procedure	24	1	21	<?xml version="1.0"?>\n<Clock xmlns:dt="urn:schemas-microsoft-com:datatypes"><Description dt:dt="string">E-Prime Primary Realtime Clock</Description><StartTime><Timestamp dt:dt="int">0</Timestamp><DateUtc dt:dt="string">2015-08-14T08:19:05Z</DateUtc></StartTime><FrequencyChanges><FrequencyChange><Frequency dt:dt="r8">2612304</Frequency><Timestamp dt:dt="r8">701330488</Timestamp><Current dt:dt="r8">0</Current><DateUtc dt:dt="string">2015-08-14T08:19:05Z</DateUtc></FrequencyChange></FrequencyChanges></Clock>\n	1 ver1_main_procedure-24-1	99.937	1.0.0.880	2	jd	701850795	prawa	1	2.0.10.182	08-14-2015	2015-08-14 08:19:06	10:19:06	kobieta	2.0.10.92	3	4	1	1																							l	{SPACE}		no	BlockProc2		BlockList									19	Free	dl	color_green.png		-1	7	323573	310																								75	prime_left.png	0	323203	0	0	13	0	323203	0	323203	1	323203	20	0	-1	321704	323203	323202	0		TrialProc1	right	0		0	10	323513	-323513		0	0	TrialList2	target_both.png	0	dl	-1	3	323253	260	l	312	323565															12	1	19	incomp			300
1 ver1_main_procedure	24	1	21	<?xml version="1.0"?>\n<Clock xmlns:dt="urn:schemas-microsoft-com:datatypes"><Description dt:dt="string">E-Prime Primary Realtime Clock</Description><StartTime><Timestamp dt:dt="int">0</Timestamp><DateUtc dt:dt="string">2015-08-14T08:19:05Z</DateUtc></StartTime><FrequencyChanges><FrequencyChange><Frequency dt:dt="r8">2612304</Frequency><Timestamp dt:dt="r8">701330488</Timestamp><Current dt:dt="r8">0</Current><DateUtc dt:dt="string">2015-08-14T08:19:05Z</DateUtc></FrequencyChange></FrequencyChanges></Clock>\n	1 ver1_main_procedure-24-1	99.937	1.0.0.880	2	jd	701850795	prawa	1	2.0.10.182	08-14-2015	2015-08-14 08:19:06	10:19:06	kobieta	2.0.10.92	3	4	1	1																							l	{SPACE}		no	BlockProc2		BlockList									20	Free	dl	color_purple.png		-1	6	325964	160																			2					25	prime_right.png	0	325694	0	0	13	0	325694	0	325694	1	325694	20	0	-1	324195	325694	325693	0	prime_right.png	TrialProc1	left	0		0	0	0	0		0	0	TrialList2	target_both.png	0	dl	-999999	3	325744	0	l	213	325957															8	1	20	neut			150
1 ver1_main_procedure	24	1	21	<?xml version="1.0"?>\n<Clock xmlns:dt="urn:schemas-microsoft-com:datatypes"><Description dt:dt="string">E-Prime Primary Realtime Clock</Description><StartTime><Timestamp dt:dt="int">0</Timestamp><DateUtc dt:dt="string">2015-08-14T08:19:05Z</DateUtc></StartTime><FrequencyChanges><FrequencyChange><Frequency dt:dt="r8">2612304</Frequency><Timestamp dt:dt="r8">701330488</Timestamp><Current dt:dt="r8">0</Current><DateUtc dt:dt="string">2015-08-14T08:19:05Z</DateUtc></FrequencyChange></FrequencyChanges></Clock>\n	1 ver1_main_procedure-24-1	99.937	1.0.0.880	2	jd	701850795	prawa	1	2.0.10.182	08-14-2015	2015-08-14 08:19:06	10:19:06	kobieta	2.0.10.92	3	4	1	1																							l	{SPACE}		no	BlockProc2		BlockList									21	Free	dl	color_red.png		-1	6	328236	160																								25	prime_right.png	0	327935	0	0	13	1	327936	1	327936	0	327935	20	0	-1	326436	327935	327935	0		TrialProc1	right	0		0	0	0	0		0	0	TrialList2	target_both.png	0	dl	-999999	3	327985	0	l	244	328229															10	1	21	comp			150
1 ver1_main_procedure	24	1	21	<?xml version="1.0"?>\n<Clock xmlns:dt="urn:schemas-microsoft-com:datatypes"><Description dt:dt="string">E-Prime Primary Realtime Clock</Description><StartTime><Timestamp dt:dt="int">0</Timestamp><DateUtc dt:dt="string">2015-08-14T08:19:05Z</DateUtc></StartTime><FrequencyChanges><FrequencyChange><Frequency dt:dt="r8">2612304</Frequency><Timestamp dt:dt="r8">701330488</Timestamp><Current dt:dt="r8">0</Current><DateUtc dt:dt="string">2015-08-14T08:19:05Z</DateUtc></FrequencyChange></FrequencyChanges></Clock>\n	1 ver1_main_procedure-24-1	99.937	1.0.0.880	2	jd	701850795	prawa	1	2.0.10.182	08-14-2015	2015-08-14 08:19:06	10:19:06	kobieta	2.0.10.92	3	4	1	1																							l	{SPACE}		no	BlockProc2		BlockList									22	Free	dl	color_blue.png		-1	15	330517	460																			1					75	prime_left.png	0	330207	0	0	13	0	330207	0	330207	1	330207	20	0	-1	328708	330207	330206	0	prime_left.png	TrialProc1	left	0		0	0	0	0		0	0	TrialList2	target_both.png	0	dl	-999999	3	330257	0	d	244	330501															8	1	22	neut			450
1 ver1_main_procedure	24	1	21	<?xml version="1.0"?>\n<Clock xmlns:dt="urn:schemas-microsoft-com:datatypes"><Description dt:dt="string">E-Prime Primary Realtime Clock</Description><StartTime><Timestamp dt:dt="int">0</Timestamp><DateUtc dt:dt="string">2015-08-14T08:19:05Z</DateUtc></StartTime><FrequencyChanges><FrequencyChange><Frequency dt:dt="r8">2612304</Frequency><Timestamp dt:dt="r8">701330488</Timestamp><Current dt:dt="r8">0</Current><DateUtc dt:dt="string">2015-08-14T08:19:05Z</DateUtc></FrequencyChange></FrequencyChanges></Clock>\n	1 ver1_main_procedure-24-1	99.937	1.0.0.880	2	jd	701850795	prawa	1	2.0.10.182	08-14-2015	2015-08-14 08:19:06	10:19:06	kobieta	2.0.10.92	3	4	1	1																							l	{SPACE}		no	BlockProc2		BlockList									23	Cued	l			-1	14	333028	161																								25	prime_right.png	0	332788	0	0	13	0	332788	0	332788	1	332788	20	0	-1	331289	332788	332787	0		TrialProc1	right	0		0	0	0	0		0	0	TrialList2	target_right.png	0	l	-999999	3	332838	0	d	175	333013															4	1	23	comp			150
1 ver1_main_procedure	24	1	21	<?xml version="1.0"?>\n<Clock xmlns:dt="urn:schemas-microsoft-com:datatypes"><Description dt:dt="string">E-Prime Primary Realtime Clock</Description><StartTime><Timestamp dt:dt="int">0</Timestamp><DateUtc dt:dt="string">2015-08-14T08:19:05Z</DateUtc></StartTime><FrequencyChanges><FrequencyChange><Frequency dt:dt="r8">2612304</Frequency><Timestamp dt:dt="r8">701330488</Timestamp><Current dt:dt="r8">0</Current><DateUtc dt:dt="string">2015-08-14T08:19:05Z</DateUtc></FrequencyChange></FrequencyChanges></Clock>\n	1 ver1_main_procedure-24-1	99.937	1.0.0.880	2	jd	701850795	prawa	1	2.0.10.182	08-14-2015	2015-08-14 08:19:06	10:19:06	kobieta	2.0.10.92	3	4	1	1																							l	{SPACE}		no	BlockProc2		BlockList									24	Cued	d			-1	6	335300	460																			2					25	prime_right.png	0	335000	0	0	13	0	335000	0	335000	1	335000	20	0	-1	333501	335000	334999	0	prime_right.png	TrialProc1	left	0		0	0	0	0		0	0	TrialList2	target_left.png	0	d	-999999	3	335050	0	l	243	335293															2	1	24	neut			450
1 ver1_main_procedure	24	1	21	<?xml version="1.0"?>\n<Clock xmlns:dt="urn:schemas-microsoft-com:datatypes"><Description dt:dt="string">E-Prime Primary Realtime Clock</Description><StartTime><Timestamp dt:dt="int">0</Timestamp><DateUtc dt:dt="string">2015-08-14T08:19:05Z</DateUtc></StartTime><FrequencyChanges><FrequencyChange><Frequency dt:dt="r8">2612304</Frequency><Timestamp dt:dt="r8">701330488</Timestamp><Current dt:dt="r8">0</Current><DateUtc dt:dt="string">2015-08-14T08:19:05Z</DateUtc></FrequencyChange></FrequencyChanges></Clock>\n	1 ver1_main_procedure-24-1	99.937	1.0.0.880	2	jd	701850795	prawa	1	2.0.10.182	08-14-2015	2015-08-14 08:19:06	10:19:06	kobieta	2.0.10.92	3	4	1	1																							l	{SPACE}		no	BlockProc2		BlockList									25	Free	dl	color_red.png		-1	9	337891	311																								75	prime_right.png	0	337571	0	0	13	0	337571	0	337571	1	337571	20	0	-1	336072	337571	337570	0		TrialProc1	right	0		-999999	10	337881	0		0	0	TrialList2	target_both.png	0	dl	-1	3	337621	0	l	256	337877															10	1	25	comp			300
1 ver1_main_procedure	24	1	21	<?xml version="1.0"?>\n<Clock xmlns:dt="urn:schemas-microsoft-com:datatypes"><Description dt:dt="string">E-Prime Primary Realtime Clock</Description><StartTime><Timestamp dt:dt="int">0</Timestamp><DateUtc dt:dt="string">2015-08-14T08:19:05Z</DateUtc></StartTime><FrequencyChanges><FrequencyChange><Frequency dt:dt="r8">2612304</Frequency><Timestamp dt:dt="r8">701330488</Timestamp><Current dt:dt="r8">0</Current><DateUtc dt:dt="string">2015-08-14T08:19:05Z</DateUtc></FrequencyChange></FrequencyChanges></Clock>\n	1 ver1_main_procedure-24-1	99.937	1.0.0.880	2	jd	701850795	prawa	1	2.0.10.182	08-14-2015	2015-08-14 08:19:06	10:19:06	kobieta	2.0.10.92	3	4	1	1																							l	{SPACE}		no	BlockProc2		BlockList									26	Cued	l	color_purple.png		-1	11	340353	460																			1					25	prime_left.png	0	340013	0	0	13	0	340013	0	340013	1	340013	20	0	-1	338514	340013	340012	0	prime_left.png	TrialProc1	right	0		0	10	340323	-340323		0	0	TrialList2	target_right.png	1	l	-1	3	340063	260	l	278	340341															5	1	26	neut			450
1 ver1_main_procedure	24	1	21	<?xml version="1.0"?>\n<Clock xmlns:dt="urn:schemas-microsoft-com:datatypes"><Description dt:dt="string">E-Prime Primary Realtime Clock</Description><StartTime><Timestamp dt:dt="int">0</Timestamp><DateUtc dt:dt="string">2015-08-14T08:19:05Z</DateUtc></StartTime><FrequencyChanges><FrequencyChange><Frequency dt:dt="r8">2612304</Frequency><Timestamp dt:dt="r8">701330488</Timestamp><Current dt:dt="r8">0</Current><DateUtc dt:dt="string">2015-08-14T08:19:05Z</DateUtc></FrequencyChange></FrequencyChanges></Clock>\n	1 ver1_main_procedure-24-1	99.937	1.0.0.880	2	jd	701850795	prawa	1	2.0.10.182	08-14-2015	2015-08-14 08:19:06	10:19:06	kobieta	2.0.10.92	3	4	1	1																							l	{SPACE}		no	BlockProc2		BlockList									27	Free	dl	color_purple.png		-1	6	343004	311																			2					25	prime_right.png	0	342624	0	0	13	0	342624	0	342624	1	342624	20	0	-1	341125	342624	342623	0	prime_right.png	TrialProc1	right	0		1	10	342934	-342934		0	0	TrialList2	target_both.png	0	dl	-1	3	342674	260	l	323	342997															11	1	27	neut			300
1 ver1_main_procedure	24	1	21	<?xml version="1.0"?>\n<Clock xmlns:dt="urn:schemas-microsoft-com:datatypes"><Description dt:dt="string">E-Prime Primary Realtime Clock</Description><StartTime><Timestamp dt:dt="int">0</Timestamp><DateUtc dt:dt="string">2015-08-14T08:19:05Z</DateUtc></StartTime><FrequencyChanges><FrequencyChange><Frequency dt:dt="r8">2612304</Frequency><Timestamp dt:dt="r8">701330488</Timestamp><Current dt:dt="r8">0</Current><DateUtc dt:dt="string">2015-08-14T08:19:05Z</DateUtc></FrequencyChange></FrequencyChanges></Clock>\n	1 ver1_main_procedure-24-1	99.937	1.0.0.880	2	jd	701850795	prawa	1	2.0.10.182	08-14-2015	2015-08-14 08:19:06	10:19:06	kobieta	2.0.10.92	3	4	1	1																							l	{SPACE}		no	BlockProc2		BlockList									28	Free	dl	color_orange.png		-1	8	345526	310																								75	prime_right.png	0	345126	0	0	13	0	345126	0	345126	1	345126	20	0	-1	343627	345126	345125	0		TrialProc1	right	0		0	10	345436	-345436		0	0	TrialList2	target_both.png	0	dl	-1	3	345176	260	d	341	345517															10	1	28	comp			300
1 ver1_main_procedure	24	1	21	<?xml version="1.0"?>\n<Clock xmlns:dt="urn:schemas-microsoft-com:datatypes"><Description dt:dt="string">E-Prime Primary Realtime Clock</Description><StartTime><Timestamp dt:dt="int">0</Timestamp><DateUtc dt:dt="string">2015-08-14T08:19:05Z</DateUtc></StartTime><FrequencyChanges><FrequencyChange><Frequency dt:dt="r8">2612304</Frequency><Timestamp dt:dt="r8">701330488</Timestamp><Current dt:dt="r8">0</Current><DateUtc dt:dt="string">2015-08-14T08:19:05Z</DateUtc></FrequencyChange></FrequencyChanges></Clock>\n	1 ver1_main_procedure-24-1	99.937	1.0.0.880	2	jd	701850795	prawa	1	2.0.10.182	08-14-2015	2015-08-14 08:19:06	10:19:06	kobieta	2.0.10.92	3	4	1	1																							l	{SPACE}		no	BlockProc2		BlockList									29	Free	dl	color_yellow.png		-1	13	347987	461																								75	prime_left.png	0	347647	0	0	13	0	347647	0	347647	1	347647	20	0	-1	346148	347647	347646	0		TrialProc1	right	0		0	10	347957	-347957		0	0	TrialList2	target_both.png	0	dl	-1	3	347697	260	d	276	347973															12	1	29	incomp			450
1 ver1_main_procedure	24	1	21	<?xml version="1.0"?>\n<Clock xmlns:dt="urn:schemas-microsoft-com:datatypes"><Description dt:dt="string">E-Prime Primary Realtime Clock</Description><StartTime><Timestamp dt:dt="int">0</Timestamp><DateUtc dt:dt="string">2015-08-14T08:19:05Z</DateUtc></StartTime><FrequencyChanges><FrequencyChange><Frequency dt:dt="r8">2612304</Frequency><Timestamp dt:dt="r8">701330488</Timestamp><Current dt:dt="r8">0</Current><DateUtc dt:dt="string">2015-08-14T08:19:05Z</DateUtc></FrequencyChange></FrequencyChanges></Clock>\n	1 ver1_main_procedure-24-1	99.937	1.0.0.880	2	jd	701850795	prawa	1	2.0.10.182	08-14-2015	2015-08-14 08:19:06	10:19:06	kobieta	2.0.10.92	3	4	1	1																							l	{SPACE}		no	BlockProc2		BlockList									30	Free	dl	color_purple.png		-1	5	350699	460																			1					25	prime_left.png	0	350259	0	0	13	0	350259	0	350259	1	350259	20	0	-1	348760	350259	350258	0	prime_left.png	TrialProc1	right	0		0	10	350569	-350569		0	0	TrialList2	target_both.png	0	dl	-1	3	350309	260	l	385	350694															11	1	30	neut			450
1 ver1_main_procedure	24	1	21	<?xml version="1.0"?>\n<Clock xmlns:dt="urn:schemas-microsoft-com:datatypes"><Description dt:dt="string">E-Prime Primary Realtime Clock</Description><StartTime><Timestamp dt:dt="int">0</Timestamp><DateUtc dt:dt="string">2015-08-14T08:19:05Z</DateUtc></StartTime><FrequencyChanges><FrequencyChange><Frequency dt:dt="r8">2612304</Frequency><Timestamp dt:dt="r8">701330488</Timestamp><Current dt:dt="r8">0</Current><DateUtc dt:dt="string">2015-08-14T08:19:05Z</DateUtc></FrequencyChange></FrequencyChanges></Clock>\n	1 ver1_main_procedure-24-1	99.937	1.0.0.880	2	jd	701850795	prawa	1	2.0.10.182	08-14-2015	2015-08-14 08:19:06	10:19:06	kobieta	2.0.10.92	3	4	1	1																							l	{SPACE}		no	BlockProc2		BlockList									31	Free	dl	color_orange.png		-1	15	353341	460																								75	prime_right.png	0	352970	0	0	13	0	352971	0	352970	1	352970	20	0	-1	351471	352970	352969	0		TrialProc1	left	0		0	11	353281	-353281		0	0	TrialList2	target_both.png	0	dl	-1	3	353020	261	d	306	353326															9	1	31	incomp			450
1 ver1_main_procedure	24	1	21	<?xml version="1.0"?>\n<Clock xmlns:dt="urn:schemas-microsoft-com:datatypes"><Description dt:dt="string">E-Prime Primary Realtime Clock</Description><StartTime><Timestamp dt:dt="int">0</Timestamp><DateUtc dt:dt="string">2015-08-14T08:19:05Z</DateUtc></StartTime><FrequencyChanges><FrequencyChange><Frequency dt:dt="r8">2612304</Frequency><Timestamp dt:dt="r8">701330488</Timestamp><Current dt:dt="r8">0</Current><DateUtc dt:dt="string">2015-08-14T08:19:05Z</DateUtc></FrequencyChange></FrequencyChanges></Clock>\n	1 ver1_main_procedure-24-1	99.937	1.0.0.880	2	jd	701850795	prawa	1	2.0.10.182	08-14-2015	2015-08-14 08:19:06	10:19:06	kobieta	2.0.10.92	3	4	1	1																							l	{SPACE}		no	BlockProc2		BlockList									32	Free	dl	color_green.png		-1	6	355972	310																								25	prime_left.png	0	355612	0	0	13	0	355612	0	355612	1	355612	20	0	-1	354113	355612	355611	0		TrialProc1	left	0		0	10	355922	-355922		0	0	TrialList2	target_both.png	0	dl	-1	3	355662	260	l	304	355966															7	1	32	comp			300
1 ver1_main_procedure	24	1	21	<?xml version="1.0"?>\n<Clock xmlns:dt="urn:schemas-microsoft-com:datatypes"><Description dt:dt="string">E-Prime Primary Realtime Clock</Description><StartTime><Timestamp dt:dt="int">0</Timestamp><DateUtc dt:dt="string">2015-08-14T08:19:05Z</DateUtc></StartTime><FrequencyChanges><FrequencyChange><Frequency dt:dt="r8">2612304</Frequency><Timestamp dt:dt="r8">701330488</Timestamp><Current dt:dt="r8">0</Current><DateUtc dt:dt="string">2015-08-14T08:19:05Z</DateUtc></FrequencyChange></FrequencyChanges></Clock>\n	1 ver1_main_procedure-24-1	99.937	1.0.0.880	2	jd	701850795	prawa	1	2.0.10.182	08-14-2015	2015-08-14 08:19:06	10:19:06	kobieta	2.0.10.92	3	4	1	1																							l	{SPACE}		no	BlockProc2		BlockList									33	Free	dl	color_yellow.png		-1	8	358454	160																								25	prime_left.png	1	358094	0	0	13	1	358094	1	358094	0	358093	20	0	-1	356594	358093	358093	0		TrialProc1	left	0		0	11	358404	-358404		0	0	TrialList2	target_both.png	0	dl	-1	3	358143	261	d	303	358446															7	1	33	comp			150
1 ver1_main_procedure	24	1	21	<?xml version="1.0"?>\n<Clock xmlns:dt="urn:schemas-microsoft-com:datatypes"><Description dt:dt="string">E-Prime Primary Realtime Clock</Description><StartTime><Timestamp dt:dt="int">0</Timestamp><DateUtc dt:dt="string">2015-08-14T08:19:05Z</DateUtc></StartTime><FrequencyChanges><FrequencyChange><Frequency dt:dt="r8">2612304</Frequency><Timestamp dt:dt="r8">701330488</Timestamp><Current dt:dt="r8">0</Current><DateUtc dt:dt="string">2015-08-14T08:19:05Z</DateUtc></FrequencyChange></FrequencyChanges></Clock>\n	1 ver1_main_procedure-24-1	99.937	1.0.0.880	2	jd	701850795	prawa	1	2.0.10.182	08-14-2015	2015-08-14 08:19:06	10:19:06	kobieta	2.0.10.92	3	4	1	1																							l	{SPACE}		no	BlockProc2		BlockList									34	Free	dl	color_green.png		-1	9	360815	310																								75	prime_left.png	0	360425	0	0	13	0	360425	0	360425	1	360425	20	0	-1	358926	360425	360424	0		TrialProc1	left	0		0	10	360735	-360735		0	0	TrialList2	target_both.png	0	dl	-1	3	360475	260	l	331	360806															7	1	34	comp			300
1 ver1_main_procedure	24	1	21	<?xml version="1.0"?>\n<Clock xmlns:dt="urn:schemas-microsoft-com:datatypes"><Description dt:dt="string">E-Prime Primary Realtime Clock</Description><StartTime><Timestamp dt:dt="int">0</Timestamp><DateUtc dt:dt="string">2015-08-14T08:19:05Z</DateUtc></StartTime><FrequencyChanges><FrequencyChange><Frequency dt:dt="r8">2612304</Frequency><Timestamp dt:dt="r8">701330488</Timestamp><Current dt:dt="r8">0</Current><DateUtc dt:dt="string">2015-08-14T08:19:05Z</DateUtc></FrequencyChange></FrequencyChanges></Clock>\n	1 ver1_main_procedure-24-1	99.937	1.0.0.880	2	jd	701850795	prawa	1	2.0.10.182	08-14-2015	2015-08-14 08:19:06	10:19:06	kobieta	2.0.10.92	3	4	1	1																							l	{SPACE}		no	BlockProc2		BlockList									35	Free	dl	color_purple.png		-1	12	363226	461																			2					75	prime_right.png	0	362936	0	0	13	0	362936	0	362936	1	362936	20	0	-1	361437	362936	362935	0	prime_right.png	TrialProc1	right	0		0	0	0	0		0	0	TrialList2	target_both.png	0	dl	-999999	3	362986	0	l	228	363214															11	1	35	neut			450
1 ver1_main_procedure	24	1	21	<?xml version="1.0"?>\n<Clock xmlns:dt="urn:schemas-microsoft-com:datatypes"><Description dt:dt="string">E-Prime Primary Realtime Clock</Description><StartTime><Timestamp dt:dt="int">0</Timestamp><DateUtc dt:dt="string">2015-08-14T08:19:05Z</DateUtc></StartTime><FrequencyChanges><FrequencyChange><Frequency dt:dt="r8">2612304</Frequency><Timestamp dt:dt="r8">701330488</Timestamp><Current dt:dt="r8">0</Current><DateUtc dt:dt="string">2015-08-14T08:19:05Z</DateUtc></FrequencyChange></FrequencyChanges></Clock>\n	1 ver1_main_procedure-24-1	99.937	1.0.0.880	2	jd	701850795	prawa	1	2.0.10.182	08-14-2015	2015-08-14 08:19:06	10:19:06	kobieta	2.0.10.92	3	4	1	1																							l	{SPACE}		no	BlockProc2		BlockList									36	Free	dl	color_blue.png		-1	8	365838	460																			1					25	prime_left.png	0	365498	0	0	13	0	365498	0	365498	1	365498	20	0	-1	363999	365498	365497	0	prime_left.png	TrialProc1	right	0		0	10	365808	-365808		0	0	TrialList2	target_both.png	0	dl	-1	3	365548	260	d	282	365830															11	1	36	neut			450
1 ver1_main_procedure	24	1	21	<?xml version="1.0"?>\n<Clock xmlns:dt="urn:schemas-microsoft-com:datatypes"><Description dt:dt="string">E-Prime Primary Realtime Clock</Description><StartTime><Timestamp dt:dt="int">0</Timestamp><DateUtc dt:dt="string">2015-08-14T08:19:05Z</DateUtc></StartTime><FrequencyChanges><FrequencyChange><Frequency dt:dt="r8">2612304</Frequency><Timestamp dt:dt="r8">701330488</Timestamp><Current dt:dt="r8">0</Current><DateUtc dt:dt="string">2015-08-14T08:19:05Z</DateUtc></FrequencyChange></FrequencyChanges></Clock>\n	1 ver1_main_procedure-24-1	99.937	1.0.0.880	2	jd	701850795	prawa	1	2.0.10.182	08-14-2015	2015-08-14 08:19:06	10:19:06	kobieta	2.0.10.92	3	4	1	1																							l	{SPACE}		no	BlockProc2		BlockList									37	Free	dl	color_orange.png		-1	13	368460	160																								25	prime_right.png	0	368109	0	0	13	0	368110	0	368109	1	368109	20	0	-1	366610	368109	368108	0		TrialProc1	left	0		0	11	368420	-368420		0	0	TrialList2	target_both.png	0	dl	-1	3	368159	261	d	287	368446															9	1	37	incomp			150
1 ver1_main_procedure	24	1	21	<?xml version="1.0"?>\n<Clock xmlns:dt="urn:schemas-microsoft-com:datatypes"><Description dt:dt="string">E-Prime Primary Realtime Clock</Description><StartTime><Timestamp dt:dt="int">0</Timestamp><DateUtc dt:dt="string">2015-08-14T08:19:05Z</DateUtc></StartTime><FrequencyChanges><FrequencyChange><Frequency dt:dt="r8">2612304</Frequency><Timestamp dt:dt="r8">701330488</Timestamp><Current dt:dt="r8">0</Current><DateUtc dt:dt="string">2015-08-14T08:19:05Z</DateUtc></FrequencyChange></FrequencyChanges></Clock>\n	1 ver1_main_procedure-24-1	99.937	1.0.0.880	2	jd	701850795	prawa	1	2.0.10.182	08-14-2015	2015-08-14 08:19:06	10:19:06	kobieta	2.0.10.92	3	4	1	1																							l	{SPACE}		no	BlockProc2		BlockList									38	Cued	d	color_yellow.png		-1	6	370861	310																								25	prime_left.png	0	370431	0	0	13	0	370431	0	370431	1	370431	20	0	-1	368932	370431	370430	0		TrialProc1	left	0		0	10	370741	-370741		0	0	TrialList2	target_left.png	1	d	-1	3	370481	260	d	373	370854															1	1	38	comp			300
1 ver1_main_procedure	24	1	21	<?xml version="1.0"?>\n<Clock xmlns:dt="urn:schemas-microsoft-com:datatypes"><Description dt:dt="string">E-Prime Primary Realtime Clock</Description><StartTime><Timestamp dt:dt="int">0</Timestamp><DateUtc dt:dt="string">2015-08-14T08:19:05Z</DateUtc></StartTime><FrequencyChanges><FrequencyChange><Frequency dt:dt="r8">2612304</Frequency><Timestamp dt:dt="r8">701330488</Timestamp><Current dt:dt="r8">0</Current><DateUtc dt:dt="string">2015-08-14T08:19:05Z</DateUtc></FrequencyChange></FrequencyChanges></Clock>\n	1 ver1_main_procedure-24-1	99.937	1.0.0.880	2	jd	701850795	prawa	1	2.0.10.182	08-14-2015	2015-08-14 08:19:06	10:19:06	kobieta	2.0.10.92	3	4	1	1																							l	{SPACE}		no	BlockProc2		BlockList									39	Free	dl	color_purple.png		-1	9	373352	461																			2					25	prime_right.png	0	372982	0	0	13	0	372982	0	372982	1	372982	20	0	-1	371483	372982	372981	0	prime_right.png	TrialProc1	right	0		1	10	373292	-373292		0	0	TrialList2	target_both.png	0	dl	-1	3	373032	260	l	310	373342															11	1	39	neut			450
1 ver1_main_procedure	24	1	21	<?xml version="1.0"?>\n<Clock xmlns:dt="urn:schemas-microsoft-com:datatypes"><Description dt:dt="string">E-Prime Primary Realtime Clock</Description><StartTime><Timestamp dt:dt="int">0</Timestamp><DateUtc dt:dt="string">2015-08-14T08:19:05Z</DateUtc></StartTime><FrequencyChanges><FrequencyChange><Frequency dt:dt="r8">2612304</Frequency><Timestamp dt:dt="r8">701330488</Timestamp><Current dt:dt="r8">0</Current><DateUtc dt:dt="string">2015-08-14T08:19:05Z</DateUtc></FrequencyChange></FrequencyChanges></Clock>\n	1 ver1_main_procedure-24-1	99.937	1.0.0.880	2	jd	701850795	prawa	1	2.0.10.182	08-14-2015	2015-08-14 08:19:06	10:19:06	kobieta	2.0.10.92	3	4	1	1																							l	{SPACE}		no	BlockProc2		BlockList									40	Cued	l			-1	9	375944	310																								75	prime_right.png	0	375624	0	0	13	0	375624	0	375624	1	375624	20	0	-1	374125	375624	375623	0		TrialProc1	right	0		-999999	10	375934	0		0	0	TrialList2	target_right.png	0	l	-1	3	375674	260	d	260	375934															4	1	40	comp			300
1 ver1_main_procedure	24	1	21	<?xml version="1.0"?>\n<Clock xmlns:dt="urn:schemas-microsoft-com:datatypes"><Description dt:dt="string">E-Prime Primary Realtime Clock</Description><StartTime><Timestamp dt:dt="int">0</Timestamp><DateUtc dt:dt="string">2015-08-14T08:19:05Z</DateUtc></StartTime><FrequencyChanges><FrequencyChange><Frequency dt:dt="r8">2612304</Frequency><Timestamp dt:dt="r8">701330488</Timestamp><Current dt:dt="r8">0</Current><DateUtc dt:dt="string">2015-08-14T08:19:05Z</DateUtc></FrequencyChange></FrequencyChanges></Clock>\n	1 ver1_main_procedure-24-1	99.937	1.0.0.880	2	jd	701850795	prawa	1	2.0.10.182	08-14-2015	2015-08-14 08:19:06	10:19:06	kobieta	2.0.10.92	3	4	1	1																							l	{SPACE}		no	BlockProc2		BlockList									41	Free	dl	color_red.png		-1	11	378506	160																								75	prime_right.png	0	378065	0	0	13	0	378065	0	378065	1	378065	20	0	-1	376566	378065	378064	0		TrialProc1	right	0		1	10	378375	-378375		0	0	TrialList2	target_both.png	0	dl	-1	3	378115	260	l	379	378494															10	1	41	comp			150
1 ver1_main_procedure	24	1	21	<?xml version="1.0"?>\n<Clock xmlns:dt="urn:schemas-microsoft-com:datatypes"><Description dt:dt="string">E-Prime Primary Realtime Clock</Description><StartTime><Timestamp dt:dt="int">0</Timestamp><DateUtc dt:dt="string">2015-08-14T08:19:05Z</DateUtc></StartTime><FrequencyChanges><FrequencyChange><Frequency dt:dt="r8">2612304</Frequency><Timestamp dt:dt="r8">701330488</Timestamp><Current dt:dt="r8">0</Current><DateUtc dt:dt="string">2015-08-14T08:19:05Z</DateUtc></FrequencyChange></FrequencyChanges></Clock>\n	1 ver1_main_procedure-24-1	99.937	1.0.0.880	2	jd	701850795	prawa	1	2.0.10.182	08-14-2015	2015-08-14 08:19:06	10:19:06	kobieta	2.0.10.92	3	4	1	1																							l	{SPACE}		no	BlockProc2		BlockList									42	Cued	l			-1	10	380797	310																								75	prime_right.png	0	380477	0	0	13	0	380477	0	380477	1	380477	20	0	-1	378978	380477	380476	0		TrialProc1	right	0		-999999	10	380787	0		0	0	TrialList2	target_right.png	0	l	-1	3	380527	0	d	255	380782															4	1	42	comp			300
1 ver1_main_procedure	24	1	21	<?xml version="1.0"?>\n<Clock xmlns:dt="urn:schemas-microsoft-com:datatypes"><Description dt:dt="string">E-Prime Primary Realtime Clock</Description><StartTime><Timestamp dt:dt="int">0</Timestamp><DateUtc dt:dt="string">2015-08-14T08:19:05Z</DateUtc></StartTime><FrequencyChanges><FrequencyChange><Frequency dt:dt="r8">2612304</Frequency><Timestamp dt:dt="r8">701330488</Timestamp><Current dt:dt="r8">0</Current><DateUtc dt:dt="string">2015-08-14T08:19:05Z</DateUtc></FrequencyChange></FrequencyChanges></Clock>\n	1 ver1_main_procedure-24-1	99.937	1.0.0.880	2	jd	701850795	prawa	1	2.0.10.182	08-14-2015	2015-08-14 08:19:06	10:19:06	kobieta	2.0.10.92	3	4	1	1																							l	{SPACE}		no	BlockProc2		BlockList									43	Free	dl	color_purple.png		-1	13	383268	160																			1					75	prime_left.png	0	382918	0	0	13	0	382918	0	382918	1	382918	20	0	-1	381419	382918	382917	0	prime_left.png	TrialProc1	left	0		1	10	383228	-383228		0	0	TrialList2	target_both.png	0	dl	-1	3	382968	260	l	286	383254															8	1	43	neut			150
1 ver1_main_procedure	24	1	21	<?xml version="1.0"?>\n<Clock xmlns:dt="urn:schemas-microsoft-com:datatypes"><Description dt:dt="string">E-Prime Primary Realtime Clock</Description><StartTime><Timestamp dt:dt="int">0</Timestamp><DateUtc dt:dt="string">2015-08-14T08:19:05Z</DateUtc></StartTime><FrequencyChanges><FrequencyChange><Frequency dt:dt="r8">2612304</Frequency><Timestamp dt:dt="r8">701330488</Timestamp><Current dt:dt="r8">0</Current><DateUtc dt:dt="string">2015-08-14T08:19:05Z</DateUtc></FrequencyChange></FrequencyChanges></Clock>\n	1 ver1_main_procedure-24-1	99.937	1.0.0.880	2	jd	701850795	prawa	1	2.0.10.182	08-14-2015	2015-08-14 08:19:06	10:19:06	kobieta	2.0.10.92	3	4	1	1																							l	{SPACE}		no	BlockProc2		BlockList									44	Free	dl	color_red.png		-1	5	385580	310																								75	prime_right.png	0	385240	0	0	13	0	385240	0	385240	1	385240	20	0	-1	383741	385240	385239	0		TrialProc1	right	0		0	10	385550	-385550		0	0	TrialList2	target_both.png	0	dl	-1	3	385290	260	l	284	385574															10	1	44	comp			300
1 ver1_main_procedure	24	1	21	<?xml version="1.0"?>\n<Clock xmlns:dt="urn:schemas-microsoft-com:datatypes"><Description dt:dt="string">E-Prime Primary Realtime Clock</Description><StartTime><Timestamp dt:dt="int">0</Timestamp><DateUtc dt:dt="string">2015-08-14T08:19:05Z</DateUtc></StartTime><FrequencyChanges><FrequencyChange><Frequency dt:dt="r8">2612304</Frequency><Timestamp dt:dt="r8">701330488</Timestamp><Current dt:dt="r8">0</Current><DateUtc dt:dt="string">2015-08-14T08:19:05Z</DateUtc></FrequencyChange></FrequencyChanges></Clock>\n	1 ver1_main_procedure-24-1	99.937	1.0.0.880	2	jd	701850795	prawa	1	2.0.10.182	08-14-2015	2015-08-14 08:19:06	10:19:06	kobieta	2.0.10.92	3	4	1	1																							l	{SPACE}		no	BlockProc2		BlockList									45	Cued	l	color_purple.png		-1	12	388171	461																			2					25	prime_right.png	0	387701	0	0	13	0	387701	0	387701	1	387701	20	0	-1	386202	387701	387700	0	prime_right.png	TrialProc1	right	0		0	10	388011	-388011		0	0	TrialList2	target_right.png	1	l	-1	3	387751	260	l	407	388158															5	1	45	neut			450
1 ver1_main_procedure	24	1	21	<?xml version="1.0"?>\n<Clock xmlns:dt="urn:schemas-microsoft-com:datatypes"><Description dt:dt="string">E-Prime Primary Realtime Clock</Description><StartTime><Timestamp dt:dt="int">0</Timestamp><DateUtc dt:dt="string">2015-08-14T08:19:05Z</DateUtc></StartTime><FrequencyChanges><FrequencyChange><Frequency dt:dt="r8">2612304</Frequency><Timestamp dt:dt="r8">701330488</Timestamp><Current dt:dt="r8">0</Current><DateUtc dt:dt="string">2015-08-14T08:19:05Z</DateUtc></FrequencyChange></FrequencyChanges></Clock>\n	1 ver1_main_procedure-24-1	99.937	1.0.0.880	2	jd	701850795	prawa	1	2.0.10.182	08-14-2015	2015-08-14 08:19:06	10:19:06	kobieta	2.0.10.92	3	4	1	1																							l	{SPACE}		no	BlockProc2		BlockList									46	Cued	d	color_yellow.png		-1	14	390853	160																								75	prime_left.png	0	390443	0	0	13	0	390443	0	390443	1	390443	20	0	-1	388944	390443	390442	0		TrialProc1	left	0		0	10	390753	-390753		0	0	TrialList2	target_left.png	1	d	-1	3	390493	260	d	345	390838															1	1	46	comp			150
1 ver1_main_procedure	24	1	21	<?xml version="1.0"?>\n<Clock xmlns:dt="urn:schemas-microsoft-com:datatypes"><Description dt:dt="string">E-Prime Primary Realtime Clock</Description><StartTime><Timestamp dt:dt="int">0</Timestamp><DateUtc dt:dt="string">2015-08-14T08:19:05Z</DateUtc></StartTime><FrequencyChanges><FrequencyChange><Frequency dt:dt="r8">2612304</Frequency><Timestamp dt:dt="r8">701330488</Timestamp><Current dt:dt="r8">0</Current><DateUtc dt:dt="string">2015-08-14T08:19:05Z</DateUtc></FrequencyChange></FrequencyChanges></Clock>\n	1 ver1_main_procedure-24-1	99.937	1.0.0.880	2	jd	701850795	prawa	1	2.0.10.182	08-14-2015	2015-08-14 08:19:06	10:19:06	kobieta	2.0.10.92	3	4	1	1																							l	{SPACE}		no	BlockProc2		BlockList									47	Cued	d	color_blue.png		-1	7	393174	311																			1					75	prime_left.png	0	392824	0	0	13	0	392824	0	392824	1	392824	20	0	-1	391325	392824	392823	0	prime_left.png	TrialProc1	left	0		0	10	393134	-393134		0	0	TrialList2	target_left.png	1	d	-1	3	392874	260	d	292	393166															2	1	47	neut			300
1 ver1_main_procedure	24	1	21	<?xml version="1.0"?>\n<Clock xmlns:dt="urn:schemas-microsoft-com:datatypes"><Description dt:dt="string">E-Prime Primary Realtime Clock</Description><StartTime><Timestamp dt:dt="int">0</Timestamp><DateUtc dt:dt="string">2015-08-14T08:19:05Z</DateUtc></StartTime><FrequencyChanges><FrequencyChange><Frequency dt:dt="r8">2612304</Frequency><Timestamp dt:dt="r8">701330488</Timestamp><Current dt:dt="r8">0</Current><DateUtc dt:dt="string">2015-08-14T08:19:05Z</DateUtc></FrequencyChange></FrequencyChanges></Clock>\n	1 ver1_main_procedure-24-1	99.937	1.0.0.880	2	jd	701850795	prawa	1	2.0.10.182	08-14-2015	2015-08-14 08:19:06	10:19:06	kobieta	2.0.10.92	3	4	1	1																							l	{SPACE}		no	BlockProc2		BlockList									48	Free	dl	color_red.png		-1	13	395556	310																								25	prime_right.png	1	395296	0	0	13	1	395296	1	395296	0	395295	21	0	-1	393797	395295	395295	0		TrialProc1	right	0		0	0	0	0		0	0	TrialList2	target_both.png	0	dl	-999999	3	395346	0	l	196	395542															10	1	48	comp			300
1 ver1_main_procedure	24	1	21	<?xml version="1.0"?>\n<Clock xmlns:dt="urn:schemas-microsoft-com:datatypes"><Description dt:dt="string">E-Prime Primary Realtime Clock</Description><StartTime><Timestamp dt:dt="int">0</Timestamp><DateUtc dt:dt="string">2015-08-14T08:19:05Z</DateUtc></StartTime><FrequencyChanges><FrequencyChange><Frequency dt:dt="r8">2612304</Frequency><Timestamp dt:dt="r8">701330488</Timestamp><Current dt:dt="r8">0</Current><DateUtc dt:dt="string">2015-08-14T08:19:05Z</DateUtc></FrequencyChange></FrequencyChanges></Clock>\n	1 ver1_main_procedure-24-1	99.937	1.0.0.880	2	jd	701850795	prawa	1	2.0.10.182	08-14-2015	2015-08-14 08:19:06	10:19:06	kobieta	2.0.10.92	3	4	1	1																							l	{SPACE}		no	BlockProc2		BlockList									49	Free	dl	color_yellow.png		-1	6	397957	460																								75	prime_left.png	0	397677	0	0	13	0	397677	0	397677	1	397677	20	0	-1	396178	397677	397676	0		TrialProc1	right	0		0	0	0	0		0	0	TrialList2	target_both.png	0	dl	-999999	3	397727	0	d	223	397950															12	1	49	incomp			450
1 ver1_main_procedure	24	1	21	<?xml version="1.0"?>\n<Clock xmlns:dt="urn:schemas-microsoft-com:datatypes"><Description dt:dt="string">E-Prime Primary Realtime Clock</Description><StartTime><Timestamp dt:dt="int">0</Timestamp><DateUtc dt:dt="string">2015-08-14T08:19:05Z</DateUtc></StartTime><FrequencyChanges><FrequencyChange><Frequency dt:dt="r8">2612304</Frequency><Timestamp dt:dt="r8">701330488</Timestamp><Current dt:dt="r8">0</Current><DateUtc dt:dt="string">2015-08-14T08:19:05Z</DateUtc></FrequencyChange></FrequencyChanges></Clock>\n	1 ver1_main_procedure-24-1	99.937	1.0.0.880	2	jd	701850795	prawa	1	2.0.10.182	08-14-2015	2015-08-14 08:19:06	10:19:06	kobieta	2.0.10.92	3	4	1	1																							l	{SPACE}		no	BlockProc2		BlockList									50	Cued	d	color_orange.png		-1	8	400559	160																								25	prime_right.png	1	400229	0	0	13	1	400229	1	400229	0	400228	21	0	-1	398729	400228	400228	0		TrialProc1	left	0		0	11	400539	-400539		0	0	TrialList2	target_left.png	1	d	-1	2	400278	261	d	273	400551															3	1	50	incomp			150
1 ver1_main_procedure	24	1	21	<?xml version="1.0"?>\n<Clock xmlns:dt="urn:schemas-microsoft-com:datatypes"><Description dt:dt="string">E-Prime Primary Realtime Clock</Description><StartTime><Timestamp dt:dt="int">0</Timestamp><DateUtc dt:dt="string">2015-08-14T08:19:05Z</DateUtc></StartTime><FrequencyChanges><FrequencyChange><Frequency dt:dt="r8">2612304</Frequency><Timestamp dt:dt="r8">701330488</Timestamp><Current dt:dt="r8">0</Current><DateUtc dt:dt="string">2015-08-14T08:19:05Z</DateUtc></FrequencyChange></FrequencyChanges></Clock>\n	1 ver1_main_procedure-24-1	99.937	1.0.0.880	2	jd	701850795	prawa	1	2.0.10.182	08-14-2015	2015-08-14 08:19:06	10:19:06	kobieta	2.0.10.92	3	4	1	1																							l	{SPACE}		no	BlockProc2		BlockList									51	Free	dl	color_purple.png		-1	11	402810	460																			2					25	prime_right.png	0	402530	0	0	13	0	402530	0	402530	1	402530	20	0	-1	401031	402530	402529	0	prime_right.png	TrialProc1	left	0		0	0	0	0		0	0	TrialList2	target_both.png	0	dl	-999999	3	402580	0	l	218	402798															8	1	51	neut			450
1 ver1_main_procedure	24	1	21	<?xml version="1.0"?>\n<Clock xmlns:dt="urn:schemas-microsoft-com:datatypes"><Description dt:dt="string">E-Prime Primary Realtime Clock</Description><StartTime><Timestamp dt:dt="int">0</Timestamp><DateUtc dt:dt="string">2015-08-14T08:19:05Z</DateUtc></StartTime><FrequencyChanges><FrequencyChange><Frequency dt:dt="r8">2612304</Frequency><Timestamp dt:dt="r8">701330488</Timestamp><Current dt:dt="r8">0</Current><DateUtc dt:dt="string">2015-08-14T08:19:05Z</DateUtc></FrequencyChange></FrequencyChanges></Clock>\n	1 ver1_main_procedure-24-1	99.937	1.0.0.880	2	jd	701850795	prawa	1	2.0.10.182	08-14-2015	2015-08-14 08:19:06	10:19:06	kobieta	2.0.10.92	3	4	1	1																							l	{SPACE}		no	BlockProc2		BlockList									52	Free	dl	color_orange.png		-1	15	405422	460																								75	prime_right.png	0	405081	0	0	13	1	405082	1	405082	1	405081	20	0	-1	403583	405081	405080	0		TrialProc1	left	0		0	11	405392	-405392		0	0	TrialList2	target_both.png	0	dl	-1	3	405131	261	d	276	405407															9	1	52	incomp			450
1 ver1_main_procedure	24	1	21	<?xml version="1.0"?>\n<Clock xmlns:dt="urn:schemas-microsoft-com:datatypes"><Description dt:dt="string">E-Prime Primary Realtime Clock</Description><StartTime><Timestamp dt:dt="int">0</Timestamp><DateUtc dt:dt="string">2015-08-14T08:19:05Z</DateUtc></StartTime><FrequencyChanges><FrequencyChange><Frequency dt:dt="r8">2612304</Frequency><Timestamp dt:dt="r8">701330488</Timestamp><Current dt:dt="r8">0</Current><DateUtc dt:dt="string">2015-08-14T08:19:05Z</DateUtc></FrequencyChange></FrequencyChanges></Clock>\n	1 ver1_main_procedure-24-1	99.937	1.0.0.880	2	jd	701850795	prawa	1	2.0.10.182	08-14-2015	2015-08-14 08:19:06	10:19:06	kobieta	2.0.10.92	3	4	1	1																							l	{SPACE}		no	BlockProc2		BlockList									53	Cued	l	color_green.png		-1	8	408103	160																								25	prime_left.png	0	407693	0	0	13	0	407693	0	407693	1	407693	20	0	-1	406194	407693	407692	0		TrialProc1	right	0		0	10	408003	-408003		0	0	TrialList2	target_right.png	1	l	-1	3	407743	260	l	352	408095															6	1	53	incomp			150
1 ver1_main_procedure	24	1	21	<?xml version="1.0"?>\n<Clock xmlns:dt="urn:schemas-microsoft-com:datatypes"><Description dt:dt="string">E-Prime Primary Realtime Clock</Description><StartTime><Timestamp dt:dt="int">0</Timestamp><DateUtc dt:dt="string">2015-08-14T08:19:05Z</DateUtc></StartTime><FrequencyChanges><FrequencyChange><Frequency dt:dt="r8">2612304</Frequency><Timestamp dt:dt="r8">701330488</Timestamp><Current dt:dt="r8">0</Current><DateUtc dt:dt="string">2015-08-14T08:19:05Z</DateUtc></FrequencyChange></FrequencyChanges></Clock>\n	1 ver1_main_procedure-24-1	99.937	1.0.0.880	2	jd	701850795	prawa	1	2.0.10.182	08-14-2015	2015-08-14 08:19:06	10:19:06	kobieta	2.0.10.92	3	4	1	1																							l	{SPACE}		no	BlockProc2		BlockList									54	Cued	d	color_blue.png		-1	14	410405	310																			1					25	prime_left.png	0	410074	0	0	13	0	410075	0	410074	1	410074	20	0	-1	408575	410074	410073	0	prime_left.png	TrialProc1	left	0		0	11	410385	-410385		0	0	TrialList2	target_left.png	1	d	-1	3	410124	261	d	267	410391															2	1	54	neut			300
1 ver1_main_procedure	24	1	21	<?xml version="1.0"?>\n<Clock xmlns:dt="urn:schemas-microsoft-com:datatypes"><Description dt:dt="string">E-Prime Primary Realtime Clock</Description><StartTime><Timestamp dt:dt="int">0</Timestamp><DateUtc dt:dt="string">2015-08-14T08:19:05Z</DateUtc></StartTime><FrequencyChanges><FrequencyChange><Frequency dt:dt="r8">2612304</Frequency><Timestamp dt:dt="r8">701330488</Timestamp><Current dt:dt="r8">0</Current><DateUtc dt:dt="string">2015-08-14T08:19:05Z</DateUtc></FrequencyChange></FrequencyChanges></Clock>\n	1 ver1_main_procedure-24-1	99.937	1.0.0.880	2	jd	701850795	prawa	1	2.0.10.182	08-14-2015	2015-08-14 08:19:06	10:19:06	kobieta	2.0.10.92	3	4	1	1																							l	{SPACE}		no	BlockProc2		BlockList									55	Free	dl	color_yellow.png		-1	15	412806	160																								25	prime_left.png	0	412526	0	0	13	0	412526	0	412526	1	412526	20	0	-1	411027	412526	412525	0		TrialProc1	right	0		0	0	0	0		0	0	TrialList2	target_both.png	0	dl	-999999	3	412576	0	d	215	412791															12	1	55	incomp			150
1 ver1_main_procedure	24	1	21	<?xml version="1.0"?>\n<Clock xmlns:dt="urn:schemas-microsoft-com:datatypes"><Description dt:dt="string">E-Prime Primary Realtime Clock</Description><StartTime><Timestamp dt:dt="int">0</Timestamp><DateUtc dt:dt="string">2015-08-14T08:19:05Z</DateUtc></StartTime><FrequencyChanges><FrequencyChange><Frequency dt:dt="r8">2612304</Frequency><Timestamp dt:dt="r8">701330488</Timestamp><Current dt:dt="r8">0</Current><DateUtc dt:dt="string">2015-08-14T08:19:05Z</DateUtc></FrequencyChange></FrequencyChanges></Clock>\n	1 ver1_main_procedure-24-1	99.937	1.0.0.880	2	jd	701850795	prawa	1	2.0.10.182	08-14-2015	2015-08-14 08:19:06	10:19:06	kobieta	2.0.10.92	3	4	1	1																							l	{SPACE}		no	BlockProc2		BlockList									56	Free	dl	color_purple.png		-1	14	415357	161																			2					75	prime_right.png	0	414777	0	0	13	0	414777	0	414777	1	414777	20	0	-1	413278	414777	414776	0	prime_right.png	TrialProc1	left	0		0	10	415087	-415087		0	0	TrialList2	target_both.png	0	dl	-1	3	414827	260	l	516	415343															8	1	56	neut			150
1 ver1_main_procedure	24	1	21	<?xml version="1.0"?>\n<Clock xmlns:dt="urn:schemas-microsoft-com:datatypes"><Description dt:dt="string">E-Prime Primary Realtime Clock</Description><StartTime><Timestamp dt:dt="int">0</Timestamp><DateUtc dt:dt="string">2015-08-14T08:19:05Z</DateUtc></StartTime><FrequencyChanges><FrequencyChange><Frequency dt:dt="r8">2612304</Frequency><Timestamp dt:dt="r8">701330488</Timestamp><Current dt:dt="r8">0</Current><DateUtc dt:dt="string">2015-08-14T08:19:05Z</DateUtc></FrequencyChange></FrequencyChanges></Clock>\n	1 ver1_main_procedure-24-1	99.937	1.0.0.880	2	jd	701850795	prawa	1	2.0.10.182	08-14-2015	2015-08-14 08:19:06	10:19:06	kobieta	2.0.10.92	3	4	1	1																							l	{SPACE}		no	BlockProc2		BlockList									57	Free	dl	color_blue.png		-1	9	417649	160																			1					25	prime_left.png	0	417329	0	0	13	0	417329	0	417329	1	417329	20	0	-1	415829	417329	417328	0	prime_left.png	TrialProc1	right	0		-999999	10	417639	0		0	0	TrialList2	target_both.png	0	dl	-1	3	417379	260	d	260	417639															11	1	57	neut			150
1 ver1_main_procedure	24	1	21	<?xml version="1.0"?>\n<Clock xmlns:dt="urn:schemas-microsoft-com:datatypes"><Description dt:dt="string">E-Prime Primary Realtime Clock</Description><StartTime><Timestamp dt:dt="int">0</Timestamp><DateUtc dt:dt="string">2015-08-14T08:19:05Z</DateUtc></StartTime><FrequencyChanges><FrequencyChange><Frequency dt:dt="r8">2612304</Frequency><Timestamp dt:dt="r8">701330488</Timestamp><Current dt:dt="r8">0</Current><DateUtc dt:dt="string">2015-08-14T08:19:05Z</DateUtc></FrequencyChange></FrequencyChanges></Clock>\n	1 ver1_main_procedure-24-1	99.937	1.0.0.880	2	jd	701850795	prawa	1	2.0.10.182	08-14-2015	2015-08-14 08:19:06	10:19:06	kobieta	2.0.10.92	3	4	1	1																							l	{SPACE}		no	BlockProc2		BlockList									58	Free	dl	color_orange.png		-1	6	420110	311																								25	prime_right.png	0	419620	0	0	13	0	419620	0	419620	1	419620	20	0	-1	418121	419620	419619	0		TrialProc1	right	0		0	10	419930	-419930		0	0	TrialList2	target_both.png	0	dl	-1	3	419670	260	d	433	420103															10	1	58	comp			300
1 ver1_main_procedure	24	1	21	<?xml version="1.0"?>\n<Clock xmlns:dt="urn:schemas-microsoft-com:datatypes"><Description dt:dt="string">E-Prime Primary Realtime Clock</Description><StartTime><Timestamp dt:dt="int">0</Timestamp><DateUtc dt:dt="string">2015-08-14T08:19:05Z</DateUtc></StartTime><FrequencyChanges><FrequencyChange><Frequency dt:dt="r8">2612304</Frequency><Timestamp dt:dt="r8">701330488</Timestamp><Current dt:dt="r8">0</Current><DateUtc dt:dt="string">2015-08-14T08:19:05Z</DateUtc></FrequencyChange></FrequencyChanges></Clock>\n	1 ver1_main_procedure-24-1	99.937	1.0.0.880	2	jd	701850795	prawa	1	2.0.10.182	08-14-2015	2015-08-14 08:19:06	10:19:06	kobieta	2.0.10.92	3	4	1	1																							l	{SPACE}		no	BlockProc2		BlockList									59	Free	dl	color_purple.png		-1	12	422612	310																			2					25	prime_right.png	0	422232	0	0	13	0	422232	0	422232	1	422232	20	0	-1	420732	422232	422231	0	prime_right.png	TrialProc1	right	0		0	10	422542	-422542		0	0	TrialList2	target_both.png	0	dl	-1	3	422282	260	l	317	422599															11	1	59	neut			300
1 ver1_main_procedure	24	1	21	<?xml version="1.0"?>\n<Clock xmlns:dt="urn:schemas-microsoft-com:datatypes"><Description dt:dt="string">E-Prime Primary Realtime Clock</Description><StartTime><Timestamp dt:dt="int">0</Timestamp><DateUtc dt:dt="string">2015-08-14T08:19:05Z</DateUtc></StartTime><FrequencyChanges><FrequencyChange><Frequency dt:dt="r8">2612304</Frequency><Timestamp dt:dt="r8">701330488</Timestamp><Current dt:dt="r8">0</Current><DateUtc dt:dt="string">2015-08-14T08:19:05Z</DateUtc></FrequencyChange></FrequencyChanges></Clock>\n	1 ver1_main_procedure-24-1	99.937	1.0.0.880	2	jd	701850795	prawa	1	2.0.10.182	08-14-2015	2015-08-14 08:19:06	10:19:06	kobieta	2.0.10.92	3	4	1	1																							l	{SPACE}		no	BlockProc2		BlockList									60	Free	dl	color_orange.png		-1	10	425053	461																								75	prime_right.png	0	424733	0	0	13	0	424733	0	424733	1	424733	20	0	-1	423234	424733	424732	0		TrialProc1	left	0		-999999	10	425043	0		0	0	TrialList2	target_both.png	0	dl	-1	3	424783	0	d	256	425039															9	1	60	incomp			450
1 ver1_main_procedure	24	1	21	<?xml version="1.0"?>\n<Clock xmlns:dt="urn:schemas-microsoft-com:datatypes"><Description dt:dt="string">E-Prime Primary Realtime Clock</Description><StartTime><Timestamp dt:dt="int">0</Timestamp><DateUtc dt:dt="string">2015-08-14T08:19:05Z</DateUtc></StartTime><FrequencyChanges><FrequencyChange><Frequency dt:dt="r8">2612304</Frequency><Timestamp dt:dt="r8">701330488</Timestamp><Current dt:dt="r8">0</Current><DateUtc dt:dt="string">2015-08-14T08:19:05Z</DateUtc></FrequencyChange></FrequencyChanges></Clock>\n	1 ver1_main_procedure-24-1	99.937	1.0.0.880	2	jd	701850795	prawa	1	2.0.10.182	08-14-2015	2015-08-14 08:19:06	10:19:06	kobieta	2.0.10.92	3	4	1	1																							l	{SPACE}		no	BlockProc2		BlockList									61	Cued	d			-1	5	427685	460																								25	prime_right.png	0	427325	0	0	13	0	427325	0	427325	1	427325	20	0	-1	425826	427325	427324	0		TrialProc1	left	0		0	10	427635	-427635		0	0	TrialList2	target_left.png	0	d	-1	3	427375	260	l	304	427679															3	1	61	incomp			450
1 ver1_main_procedure	24	1	21	<?xml version="1.0"?>\n<Clock xmlns:dt="urn:schemas-microsoft-com:datatypes"><Description dt:dt="string">E-Prime Primary Realtime Clock</Description><StartTime><Timestamp dt:dt="int">0</Timestamp><DateUtc dt:dt="string">2015-08-14T08:19:05Z</DateUtc></StartTime><FrequencyChanges><FrequencyChange><Frequency dt:dt="r8">2612304</Frequency><Timestamp dt:dt="r8">701330488</Timestamp><Current dt:dt="r8">0</Current><DateUtc dt:dt="string">2015-08-14T08:19:05Z</DateUtc></FrequencyChange></FrequencyChanges></Clock>\n	1 ver1_main_procedure-24-1	99.937	1.0.0.880	2	jd	701850795	prawa	1	2.0.10.182	08-14-2015	2015-08-14 08:19:06	10:19:06	kobieta	2.0.10.92	3	4	1	1																							l	{SPACE}		no	BlockProc2		BlockList									62	Free	dl	color_yellow.png		-1	9	430276	311																								25	prime_left.png	0	429956	0	0	13	0	429956	0	429956	1	429956	20	0	-1	428457	429956	429955	0		TrialProc1	left	0		-999999	10	430266	0		0	0	TrialList2	target_both.png	0	dl	-1	3	430006	0	d	257	430263															7	1	62	comp			300
1 ver1_main_procedure	24	1	21	<?xml version="1.0"?>\n<Clock xmlns:dt="urn:schemas-microsoft-com:datatypes"><Description dt:dt="string">E-Prime Primary Realtime Clock</Description><StartTime><Timestamp dt:dt="int">0</Timestamp><DateUtc dt:dt="string">2015-08-14T08:19:05Z</DateUtc></StartTime><FrequencyChanges><FrequencyChange><Frequency dt:dt="r8">2612304</Frequency><Timestamp dt:dt="r8">701330488</Timestamp><Current dt:dt="r8">0</Current><DateUtc dt:dt="string">2015-08-14T08:19:05Z</DateUtc></FrequencyChange></FrequencyChanges></Clock>\n	1 ver1_main_procedure-24-1	99.937	1.0.0.880	2	jd	701850795	prawa	1	2.0.10.182	08-14-2015	2015-08-14 08:19:06	10:19:06	kobieta	2.0.10.92	3	4	1	1																							l	{SPACE}		no	BlockProc2		BlockList									63	Free	dl	color_yellow.png		-1	14	432798	160																								25	prime_left.png	0	432398	0	0	13	0	432398	0	432398	1	432398	20	0	-1	430898	432398	432397	0		TrialProc1	right	0		0	10	432708	-432708		0	0	TrialList2	target_both.png	0	dl	-1	3	432448	260	d	335	432783															12	1	63	incomp			150
1 ver1_main_procedure	24	1	21	<?xml version="1.0"?>\n<Clock xmlns:dt="urn:schemas-microsoft-com:datatypes"><Description dt:dt="string">E-Prime Primary Realtime Clock</Description><StartTime><Timestamp dt:dt="int">0</Timestamp><DateUtc dt:dt="string">2015-08-14T08:19:05Z</DateUtc></StartTime><FrequencyChanges><FrequencyChange><Frequency dt:dt="r8">2612304</Frequency><Timestamp dt:dt="r8">701330488</Timestamp><Current dt:dt="r8">0</Current><DateUtc dt:dt="string">2015-08-14T08:19:05Z</DateUtc></FrequencyChange></FrequencyChanges></Clock>\n	1 ver1_main_procedure-24-1	99.937	1.0.0.880	2	jd	701850795	prawa	1	2.0.10.182	08-14-2015	2015-08-14 08:19:06	10:19:06	kobieta	2.0.10.92	3	4	1	1																							l	{SPACE}		no	BlockProc2		BlockList									64	Free	dl	color_orange.png		-1	13	435189	461																								25	prime_right.png	0	434769	0	0	13	0	434769	0	434769	1	434769	20	0	-1	433270	434769	434768	0		TrialProc1	left	0		0	10	435079	-435079		0	0	TrialList2	target_both.png	0	dl	-1	3	434819	260	d	356	435175															9	1	64	incomp			450
1 ver1_main_procedure	24	1	21	<?xml version="1.0"?>\n<Clock xmlns:dt="urn:schemas-microsoft-com:datatypes"><Description dt:dt="string">E-Prime Primary Realtime Clock</Description><StartTime><Timestamp dt:dt="int">0</Timestamp><DateUtc dt:dt="string">2015-08-14T08:19:05Z</DateUtc></StartTime><FrequencyChanges><FrequencyChange><Frequency dt:dt="r8">2612304</Frequency><Timestamp dt:dt="r8">701330488</Timestamp><Current dt:dt="r8">0</Current><DateUtc dt:dt="string">2015-08-14T08:19:05Z</DateUtc></FrequencyChange></FrequencyChanges></Clock>\n	1 ver1_main_procedure-24-1	99.937	1.0.0.880	2	jd	701850795	prawa	1	2.0.10.182	08-14-2015	2015-08-14 08:19:06	10:19:06	kobieta	2.0.10.92	3	4	1	1																							l	{SPACE}		no	BlockProc2		BlockList									65	Free	dl	color_green.png		-1	13	437861	460																								75	prime_left.png	0	437461	0	0	13	0	437461	0	437461	1	437461	20	0	-1	435961	437461	437460	0		TrialProc1	left	0		0	10	437771	-437771		0	0	TrialList2	target_both.png	0	dl	-1	3	437511	260	l	336	437847															7	1	65	comp			450
1 ver1_main_procedure	24	1	21	<?xml version="1.0"?>\n<Clock xmlns:dt="urn:schemas-microsoft-com:datatypes"><Description dt:dt="string">E-Prime Primary Realtime Clock</Description><StartTime><Timestamp dt:dt="int">0</Timestamp><DateUtc dt:dt="string">2015-08-14T08:19:05Z</DateUtc></StartTime><FrequencyChanges><FrequencyChange><Frequency dt:dt="r8">2612304</Frequency><Timestamp dt:dt="r8">701330488</Timestamp><Current dt:dt="r8">0</Current><DateUtc dt:dt="string">2015-08-14T08:19:05Z</DateUtc></FrequencyChange></FrequencyChanges></Clock>\n	1 ver1_main_procedure-24-1	99.937	1.0.0.880	2	jd	701850795	prawa	1	2.0.10.182	08-14-2015	2015-08-14 08:19:06	10:19:06	kobieta	2.0.10.92	3	4	1	1																							l	{SPACE}		no	BlockProc2		BlockList									66	Cued	l	color_purple.png		-1	8	440472	311																			1					75	prime_left.png	0	440132	0	0	13	0	440132	0	440132	1	440132	20	0	-1	438633	440132	440131	0	prime_left.png	TrialProc1	right	0		1	10	440442	-440442		0	0	TrialList2	target_right.png	1	l	-1	3	440182	260	l	281	440463															5	1	66	neut			300
1 ver1_main_procedure	24	1	21	<?xml version="1.0"?>\n<Clock xmlns:dt="urn:schemas-microsoft-com:datatypes"><Description dt:dt="string">E-Prime Primary Realtime Clock</Description><StartTime><Timestamp dt:dt="int">0</Timestamp><DateUtc dt:dt="string">2015-08-14T08:19:05Z</DateUtc></StartTime><FrequencyChanges><FrequencyChange><Frequency dt:dt="r8">2612304</Frequency><Timestamp dt:dt="r8">701330488</Timestamp><Current dt:dt="r8">0</Current><DateUtc dt:dt="string">2015-08-14T08:19:05Z</DateUtc></FrequencyChange></FrequencyChanges></Clock>\n	1 ver1_main_procedure-24-1	99.937	1.0.0.880	2	jd	701850795	prawa	1	2.0.10.182	08-14-2015	2015-08-14 08:19:06	10:19:06	kobieta	2.0.10.92	3	4	1	1																							l	{SPACE}		no	BlockProc2		BlockList									67	Free	dl	color_purple.png		-1	6	443014	160																			2					25	prime_right.png	0	442594	0	0	13	0	442594	0	442594	1	442594	20	0	-1	441095	442594	442593	0	prime_right.png	TrialProc1	left	0		0	10	442904	-442904		0	0	TrialList2	target_both.png	0	dl	-1	3	442644	260	l	363	443007															8	1	67	neut			150
1 ver1_main_procedure	24	1	21	<?xml version="1.0"?>\n<Clock xmlns:dt="urn:schemas-microsoft-com:datatypes"><Description dt:dt="string">E-Prime Primary Realtime Clock</Description><StartTime><Timestamp dt:dt="int">0</Timestamp><DateUtc dt:dt="string">2015-08-14T08:19:05Z</DateUtc></StartTime><FrequencyChanges><FrequencyChange><Frequency dt:dt="r8">2612304</Frequency><Timestamp dt:dt="r8">701330488</Timestamp><Current dt:dt="r8">0</Current><DateUtc dt:dt="string">2015-08-14T08:19:05Z</DateUtc></FrequencyChange></FrequencyChanges></Clock>\n	1 ver1_main_procedure-24-1	99.937	1.0.0.880	2	jd	701850795	prawa	1	2.0.10.182	08-14-2015	2015-08-14 08:19:06	10:19:06	kobieta	2.0.10.92	3	4	1	1																							l	{SPACE}		no	BlockProc2		BlockList									68	Free	dl	color_yellow.png		-1	13	445325	311																								25	prime_left.png	0	444985	0	0	13	0	444985	0	444985	1	444985	20	0	-1	443486	444985	444984	0		TrialProc1	right	0		1	10	445295	-445295		0	0	TrialList2	target_both.png	0	dl	-1	3	445035	260	d	276	445311															12	1	68	incomp			300
1 ver1_main_procedure	24	1	21	<?xml version="1.0"?>\n<Clock xmlns:dt="urn:schemas-microsoft-com:datatypes"><Description dt:dt="string">E-Prime Primary Realtime Clock</Description><StartTime><Timestamp dt:dt="int">0</Timestamp><DateUtc dt:dt="string">2015-08-14T08:19:05Z</DateUtc></StartTime><FrequencyChanges><FrequencyChange><Frequency dt:dt="r8">2612304</Frequency><Timestamp dt:dt="r8">701330488</Timestamp><Current dt:dt="r8">0</Current><DateUtc dt:dt="string">2015-08-14T08:19:05Z</DateUtc></FrequencyChange></FrequencyChanges></Clock>\n	1 ver1_main_procedure-24-1	99.937	1.0.0.880	2	jd	701850795	prawa	1	2.0.10.182	08-14-2015	2015-08-14 08:19:06	10:19:06	kobieta	2.0.10.92	3	4	1	1																							l	{SPACE}		no	BlockProc2		BlockList									69	Free	dl	color_purple.png		-1	7	447847	310																			1					25	prime_left.png	0	447447	0	0	13	0	447447	0	447447	1	447447	20	0	-1	445948	447447	447446	0	prime_left.png	TrialProc1	left	0		0	10	447757	-447757		0	0	TrialList2	target_both.png	0	dl	-1	3	447497	260	l	342	447839															8	1	69	neut			300
1 ver1_main_procedure	24	1	21	<?xml version="1.0"?>\n<Clock xmlns:dt="urn:schemas-microsoft-com:datatypes"><Description dt:dt="string">E-Prime Primary Realtime Clock</Description><StartTime><Timestamp dt:dt="int">0</Timestamp><DateUtc dt:dt="string">2015-08-14T08:19:05Z</DateUtc></StartTime><FrequencyChanges><FrequencyChange><Frequency dt:dt="r8">2612304</Frequency><Timestamp dt:dt="r8">701330488</Timestamp><Current dt:dt="r8">0</Current><DateUtc dt:dt="string">2015-08-14T08:19:05Z</DateUtc></FrequencyChange></FrequencyChanges></Clock>\n	1 ver1_main_procedure-24-1	99.937	1.0.0.880	2	jd	701850795	prawa	1	2.0.10.182	08-14-2015	2015-08-14 08:19:06	10:19:06	kobieta	2.0.10.92	3	4	1	1																							l	{SPACE}		no	BlockProc2		BlockList									70	Free	dl	color_orange.png		-1	10	450258	461																								25	prime_right.png	0	449968	0	0	13	0	449968	0	449968	1	449968	20	0	-1	448469	449968	449967	0		TrialProc1	right	0		0	0	0	0		0	0	TrialList2	target_both.png	0	dl	-999999	3	450018	0	d	230	450248															10	1	70	comp			450
1 ver1_main_procedure	24	1	21	<?xml version="1.0"?>\n<Clock xmlns:dt="urn:schemas-microsoft-com:datatypes"><Description dt:dt="string">E-Prime Primary Realtime Clock</Description><StartTime><Timestamp dt:dt="int">0</Timestamp><DateUtc dt:dt="string">2015-08-14T08:19:05Z</DateUtc></StartTime><FrequencyChanges><FrequencyChange><Frequency dt:dt="r8">2612304</Frequency><Timestamp dt:dt="r8">701330488</Timestamp><Current dt:dt="r8">0</Current><DateUtc dt:dt="string">2015-08-14T08:19:05Z</DateUtc></FrequencyChange></FrequencyChanges></Clock>\n	1 ver1_main_procedure-24-1	99.937	1.0.0.880	2	jd	701850795	prawa	1	2.0.10.182	08-14-2015	2015-08-14 08:19:06	10:19:06	kobieta	2.0.10.92	3	4	1	1																							l	{SPACE}		no	BlockProc2		BlockList									71	Cued	d	color_yellow.png		-1	10	452850	310																								25	prime_left.png	0	452530	0	0	13	0	452530	0	452530	1	452530	20	0	-1	451031	452530	452529	0		TrialProc1	left	0		-999999	10	452840	0		0	0	TrialList2	target_left.png	1	d	-1	3	452580	0	d	252	452832															1	1	71	comp			300
1 ver1_main_procedure	24	1	21	<?xml version="1.0"?>\n<Clock xmlns:dt="urn:schemas-microsoft-com:datatypes"><Description dt:dt="string">E-Prime Primary Realtime Clock</Description><StartTime><Timestamp dt:dt="int">0</Timestamp><DateUtc dt:dt="string">2015-08-14T08:19:05Z</DateUtc></StartTime><FrequencyChanges><FrequencyChange><Frequency dt:dt="r8">2612304</Frequency><Timestamp dt:dt="r8">701330488</Timestamp><Current dt:dt="r8">0</Current><DateUtc dt:dt="string">2015-08-14T08:19:05Z</DateUtc></FrequencyChange></FrequencyChanges></Clock>\n	1 ver1_main_procedure-24-1	99.937	1.0.0.880	2	jd	701850795	prawa	1	2.0.10.182	08-14-2015	2015-08-14 08:19:06	10:19:06	kobieta	2.0.10.92	3	4	1	1																							l	{SPACE}		no	BlockProc2		BlockList									72	Free	dl	color_orange.png		-1	5	455301	160																								75	prime_right.png	0	454971	0	0	13	0	454971	0	454971	1	454971	20	0	-1	453472	454971	454970	0		TrialProc1	left	0		0	10	455281	-455281		0	0	TrialList2	target_both.png	0	dl	-1	3	455021	260	d	275	455296															9	1	72	incomp			150
1 ver1_main_procedure	24	1	21	<?xml version="1.0"?>\n<Clock xmlns:dt="urn:schemas-microsoft-com:datatypes"><Description dt:dt="string">E-Prime Primary Realtime Clock</Description><StartTime><Timestamp dt:dt="int">0</Timestamp><DateUtc dt:dt="string">2015-08-14T08:19:05Z</DateUtc></StartTime><FrequencyChanges><FrequencyChange><Frequency dt:dt="r8">2612304</Frequency><Timestamp dt:dt="r8">701330488</Timestamp><Current dt:dt="r8">0</Current><DateUtc dt:dt="string">2015-08-14T08:19:05Z</DateUtc></FrequencyChange></FrequencyChanges></Clock>\n	1 ver1_main_procedure-24-1	99.937	1.0.0.880	2	jd	701850795	prawa	1	2.0.10.182	08-14-2015	2015-08-14 08:19:06	10:19:06	kobieta	2.0.10.92	3	4	1	1																							l	{SPACE}		no	BlockProc2		BlockList									73									5	3	6	2	1	4	color_yellow.png	color_orange.png	color_green.png	color_purple.png	color_blue.png	color_red.png	color_blue.png	color_purple.png	color_orange.png	color_red.png	color_yellow.png	color_green.png		1	1	1	41799																						DragProc											Ocena																															
1 ver1_main_procedure	24	1	21	<?xml version="1.0"?>\n<Clock xmlns:dt="urn:schemas-microsoft-com:datatypes"><Description dt:dt="string">E-Prime Primary Realtime Clock</Description><StartTime><Timestamp dt:dt="int">0</Timestamp><DateUtc dt:dt="string">2015-08-14T08:19:05Z</DateUtc></StartTime><FrequencyChanges><FrequencyChange><Frequency dt:dt="r8">2612304</Frequency><Timestamp dt:dt="r8">701330488</Timestamp><Current dt:dt="r8">0</Current><DateUtc dt:dt="string">2015-08-14T08:19:05Z</DateUtc></FrequencyChange></FrequencyChanges></Clock>\n	1 ver1_main_procedure-24-1	99.937	1.0.0.880	2	jd	701850795	prawa	1	2.0.10.182	08-14-2015	2015-08-14 08:19:06	10:19:06	kobieta	2.0.10.92	3	4	1	1																							l	{SPACE}		no	BlockProc2		BlockList									74															color_yellow.png	color_orange.png	color_green.png	color_purple.png	color_blue.png	color_red.png								2	1	2																							EnterProc											Ocena												15	20	35	50	65	99														
1 ver1_main_procedure	24	1	21	<?xml version="1.0"?>\n<Clock xmlns:dt="urn:schemas-microsoft-com:datatypes"><Description dt:dt="string">E-Prime Primary Realtime Clock</Description><StartTime><Timestamp dt:dt="int">0</Timestamp><DateUtc dt:dt="string">2015-08-14T08:19:05Z</DateUtc></StartTime><FrequencyChanges><FrequencyChange><Frequency dt:dt="r8">2612304</Frequency><Timestamp dt:dt="r8">701330488</Timestamp><Current dt:dt="r8">0</Current><DateUtc dt:dt="string">2015-08-14T08:19:05Z</DateUtc></FrequencyChange></FrequencyChanges></Clock>\n	1 ver1_main_procedure-24-1	99.937	1.0.0.880	2	jd	701850795	prawa	1	2.0.10.182	08-14-2015	2015-08-14 08:19:06	10:19:06	kobieta	2.0.10.92	4	6	1	2																							l	{SPACE}		no	BlockProc2		BlockList									1	Free	dl	color_yellow.png		-1	9	646765	461																								75	prime_right.png	0	646325	0	0	13	0	646325	0	646325	1	646325	20	0	-1	644826	646325	646324	0		TrialProc1	right	0		0	10	646635	-646635		0	0	TrialList2	target_both.png	0	dl	-1	3	646375	260	d	380	646755															10	2	73	comp			450
1 ver1_main_procedure	24	1	21	<?xml version="1.0"?>\n<Clock xmlns:dt="urn:schemas-microsoft-com:datatypes"><Description dt:dt="string">E-Prime Primary Realtime Clock</Description><StartTime><Timestamp dt:dt="int">0</Timestamp><DateUtc dt:dt="string">2015-08-14T08:19:05Z</DateUtc></StartTime><FrequencyChanges><FrequencyChange><Frequency dt:dt="r8">2612304</Frequency><Timestamp dt:dt="r8">701330488</Timestamp><Current dt:dt="r8">0</Current><DateUtc dt:dt="string">2015-08-14T08:19:05Z</DateUtc></FrequencyChange></FrequencyChanges></Clock>\n	1 ver1_main_procedure-24-1	99.937	1.0.0.880	2	jd	701850795	prawa	1	2.0.10.182	08-14-2015	2015-08-14 08:19:06	10:19:06	kobieta	2.0.10.92	4	6	1	2																							l	{SPACE}		no	BlockProc2		BlockList									2	Free	dl	color_purple.png		-1	7	649387	310																								25	prime_left.png	0	649037	0	0	13	0	649037	0	649037	1	649037	20	0	-1	647538	649037	649036	0		TrialProc1	left	0		0	10	649347	-649347		0	0	TrialList2	target_both.png	0	dl	-1	3	649087	260	l	293	649380															7	2	74	comp			300
1 ver1_main_procedure	24	1	21	<?xml version="1.0"?>\n<Clock xmlns:dt="urn:schemas-microsoft-com:datatypes"><Description dt:dt="string">E-Prime Primary Realtime Clock</Description><StartTime><Timestamp dt:dt="int">0</Timestamp><DateUtc dt:dt="string">2015-08-14T08:19:05Z</DateUtc></StartTime><FrequencyChanges><FrequencyChange><Frequency dt:dt="r8">2612304</Frequency><Timestamp dt:dt="r8">701330488</Timestamp><Current dt:dt="r8">0</Current><DateUtc dt:dt="string">2015-08-14T08:19:05Z</DateUtc></FrequencyChange></FrequencyChanges></Clock>\n	1 ver1_main_procedure-24-1	99.937	1.0.0.880	2	jd	701850795	prawa	1	2.0.10.182	08-14-2015	2015-08-14 08:19:06	10:19:06	kobieta	2.0.10.92	4	6	1	2																							l	{SPACE}		no	BlockProc2		BlockList									3	Free	dl	color_yellow.png		-1	6	651858	160																								75	prime_right.png	0	651508	0	0	13	0	651508	0	651508	1	651508	20	0	-1	650009	651508	651507	0		TrialProc1	right	0		0	10	651818	-651818		0	0	TrialList2	target_both.png	0	dl	-1	3	651558	260	d	294	651852															10	2	75	comp			150
1 ver1_main_procedure	24	1	21	<?xml version="1.0"?>\n<Clock xmlns:dt="urn:schemas-microsoft-com:datatypes"><Description dt:dt="string">E-Prime Primary Realtime Clock</Description><StartTime><Timestamp dt:dt="int">0</Timestamp><DateUtc dt:dt="string">2015-08-14T08:19:05Z</DateUtc></StartTime><FrequencyChanges><FrequencyChange><Frequency dt:dt="r8">2612304</Frequency><Timestamp dt:dt="r8">701330488</Timestamp><Current dt:dt="r8">0</Current><DateUtc dt:dt="string">2015-08-14T08:19:05Z</DateUtc></FrequencyChange></FrequencyChanges></Clock>\n	1 ver1_main_procedure-24-1	99.937	1.0.0.880	2	jd	701850795	prawa	1	2.0.10.182	08-14-2015	2015-08-14 08:19:06	10:19:06	kobieta	2.0.10.92	4	6	1	2																							l	{SPACE}		no	BlockProc2		BlockList									4	Cued	l	color_green.png		-1	14	654130	310																								25	prime_right.png	1	653830	0	0	13	1	653830	1	653830	0	653829	20	0	-1	652330	653829	653829	0		TrialProc1	right	0		0	0	0	0		0	0	TrialList2	target_right.png	1	l	-999999	3	653879	0	l	237	654116															4	2	76	comp			300
1 ver1_main_procedure	24	1	21	<?xml version="1.0"?>\n<Clock xmlns:dt="urn:schemas-microsoft-com:datatypes"><Description dt:dt="string">E-Prime Primary Realtime Clock</Description><StartTime><Timestamp dt:dt="int">0</Timestamp><DateUtc dt:dt="string">2015-08-14T08:19:05Z</DateUtc></StartTime><FrequencyChanges><FrequencyChange><Frequency dt:dt="r8">2612304</Frequency><Timestamp dt:dt="r8">701330488</Timestamp><Current dt:dt="r8">0</Current><DateUtc dt:dt="string">2015-08-14T08:19:05Z</DateUtc></FrequencyChange></FrequencyChanges></Clock>\n	1 ver1_main_procedure-24-1	99.937	1.0.0.880	2	jd	701850795	prawa	1	2.0.10.182	08-14-2015	2015-08-14 08:19:06	10:19:06	kobieta	2.0.10.92	4	6	1	2																							l	{SPACE}		no	BlockProc2		BlockList									5	Free	dl	color_orange.png		-1	9	656541	310																			2					25	prime_right.png	0	656251	0	0	13	0	656251	0	656251	1	656251	20	0	-1	654752	656251	656250	0	prime_right.png	TrialProc1	left	0		0	0	0	0		0	0	TrialList2	target_both.png	0	dl	-999999	3	656301	0	l	231	656532															8	2	77	neut			300
1 ver1_main_procedure	24	1	21	<?xml version="1.0"?>\n<Clock xmlns:dt="urn:schemas-microsoft-com:datatypes"><Description dt:dt="string">E-Prime Primary Realtime Clock</Description><StartTime><Timestamp dt:dt="int">0</Timestamp><DateUtc dt:dt="string">2015-08-14T08:19:05Z</DateUtc></StartTime><FrequencyChanges><FrequencyChange><Frequency dt:dt="r8">2612304</Frequency><Timestamp dt:dt="r8">701330488</Timestamp><Current dt:dt="r8">0</Current><DateUtc dt:dt="string">2015-08-14T08:19:05Z</DateUtc></FrequencyChange></FrequencyChanges></Clock>\n	1 ver1_main_procedure-24-1	99.937	1.0.0.880	2	jd	701850795	prawa	1	2.0.10.182	08-14-2015	2015-08-14 08:19:06	10:19:06	kobieta	2.0.10.92	4	6	1	2																							l	{SPACE}		no	BlockProc2		BlockList									6	Free	dl	color_blue.png		-1	12	658952	461																								75	prime_left.png	0	658662	0	0	13	0	658663	0	658662	1	658662	20	0	-1	657163	658662	658661	0		TrialProc1	right	0		0	0	0	0		0	0	TrialList2	target_both.png	0	dl	-999999	3	658712	0	d	228	658940															12	2	78	incomp			450
1 ver1_main_procedure	24	1	21	<?xml version="1.0"?>\n<Clock xmlns:dt="urn:schemas-microsoft-com:datatypes"><Description dt:dt="string">E-Prime Primary Realtime Clock</Description><StartTime><Timestamp dt:dt="int">0</Timestamp><DateUtc dt:dt="string">2015-08-14T08:19:05Z</DateUtc></StartTime><FrequencyChanges><FrequencyChange><Frequency dt:dt="r8">2612304</Frequency><Timestamp dt:dt="r8">701330488</Timestamp><Current dt:dt="r8">0</Current><DateUtc dt:dt="string">2015-08-14T08:19:05Z</DateUtc></FrequencyChange></FrequencyChanges></Clock>\n	1 ver1_main_procedure-24-1	99.937	1.0.0.880	2	jd	701850795	prawa	1	2.0.10.182	08-14-2015	2015-08-14 08:19:06	10:19:06	kobieta	2.0.10.92	4	6	1	2																							l	{SPACE}		no	BlockProc2		BlockList									7	Free	dl	color_green.png		-1	8	661444	160																								25	prime_right.png	0	661224	0	0	13	0	661224	0	661224	1	661224	20	0	-1	659725	661224	661223	0		TrialProc1	right	0		0	0	0	0		0	0	TrialList2	target_both.png	0	dl	-999999	3	661274	0	l	162	661436															10	2	79	comp			150
1 ver1_main_procedure	24	1	21	<?xml version="1.0"?>\n<Clock xmlns:dt="urn:schemas-microsoft-com:datatypes"><Description dt:dt="string">E-Prime Primary Realtime Clock</Description><StartTime><Timestamp dt:dt="int">0</Timestamp><DateUtc dt:dt="string">2015-08-14T08:19:05Z</DateUtc></StartTime><FrequencyChanges><FrequencyChange><Frequency dt:dt="r8">2612304</Frequency><Timestamp dt:dt="r8">701330488</Timestamp><Current dt:dt="r8">0</Current><DateUtc dt:dt="string">2015-08-14T08:19:05Z</DateUtc></FrequencyChange></FrequencyChanges></Clock>\n	1 ver1_main_procedure-24-1	99.937	1.0.0.880	2	jd	701850795	prawa	1	2.0.10.182	08-14-2015	2015-08-14 08:19:06	10:19:06	kobieta	2.0.10.92	4	6	1	2																							l	{SPACE}		no	BlockProc2		BlockList									8	Free	dl	color_green.png		-1	13	663705	310																								25	prime_right.png	0	663415	0	0	13	0	663415	0	663415	1	663415	20	0	-1	661916	663415	663414	0		TrialProc1	left	0		0	0	0	0		0	0	TrialList2	target_both.png	0	dl	-999999	3	663465	0	l	227	663692															9	2	80	incomp			300
1 ver1_main_procedure	24	1	21	<?xml version="1.0"?>\n<Clock xmlns:dt="urn:schemas-microsoft-com:datatypes"><Description dt:dt="string">E-Prime Primary Realtime Clock</Description><StartTime><Timestamp dt:dt="int">0</Timestamp><DateUtc dt:dt="string">2015-08-14T08:19:05Z</DateUtc></StartTime><FrequencyChanges><FrequencyChange><Frequency dt:dt="r8">2612304</Frequency><Timestamp dt:dt="r8">701330488</Timestamp><Current dt:dt="r8">0</Current><DateUtc dt:dt="string">2015-08-14T08:19:05Z</DateUtc></FrequencyChange></FrequencyChanges></Clock>\n	1 ver1_main_procedure-24-1	99.937	1.0.0.880	2	jd	701850795	prawa	1	2.0.10.182	08-14-2015	2015-08-14 08:19:06	10:19:06	kobieta	2.0.10.92	4	6	1	2																							l	{SPACE}		no	BlockProc2		BlockList									9	Free	dl	color_purple.png		-1	6	666067	160																								25	prime_left.png	0	665827	0	0	13	0	665827	0	665827	1	665827	20	0	-1	664328	665827	665826	0		TrialProc1	left	0		0	0	0	0		0	0	TrialList2	target_both.png	0	dl	-999999	3	665877	0	l	183	666060															7	2	81	comp			150
1 ver1_main_procedure	24	1	21	<?xml version="1.0"?>\n<Clock xmlns:dt="urn:schemas-microsoft-com:datatypes"><Description dt:dt="string">E-Prime Primary Realtime Clock</Description><StartTime><Timestamp dt:dt="int">0</Timestamp><DateUtc dt:dt="string">2015-08-14T08:19:05Z</DateUtc></StartTime><FrequencyChanges><FrequencyChange><Frequency dt:dt="r8">2612304</Frequency><Timestamp dt:dt="r8">701330488</Timestamp><Current dt:dt="r8">0</Current><DateUtc dt:dt="string">2015-08-14T08:19:05Z</DateUtc></FrequencyChange></FrequencyChanges></Clock>\n	1 ver1_main_procedure-24-1	99.937	1.0.0.880	2	jd	701850795	prawa	1	2.0.10.182	08-14-2015	2015-08-14 08:19:06	10:19:06	kobieta	2.0.10.92	4	6	1	2																							l	{SPACE}		no	BlockProc2		BlockList									10	Free	dl	color_red.png		-1	15	668348	460																			1					75	prime_left.png	0	668038	0	0	13	0	668038	0	668038	1	668038	20	0	-1	666539	668038	668037	0	prime_left.png	TrialProc1	right	0		0	0	0	0		0	0	TrialList2	target_both.png	0	dl	-999999	3	668088	0	d	244	668332															11	2	82	neut			450
