ExperimentName	Subject	Session	Age	Clock.Information	DataFile.Basename	Display.RefreshRate	ExperimentVersion	Group	Name	RandomSeed	Recznosc	ResearcherID	RuntimeVersion	SessionDate	SessionStartDateTimeUtc	SessionTime	Sex	StudioVersion	Block	BlockList	BlockList.Cycle	BlockList.Sample	BlockNumber	GoodBye.RESP	GoodBye2.RESP	GoodByeList	GoodByeList.Cycle	GoodByeList.Sample	InstrList	InstrList.Cycle	InstrList.Sample	Instructions3.RESP	Instructions4.RESP	Instructions5.RESP	kobieta_S1	kobieta_S2	kobieta_S3	kobieta_S4	kobieta_S5	mezczyzna_S1	mezczyzna_S2	mezczyzna_S3	mezczyzna_S4	mezczyzna_S5	NextBlock.RESP	NextBlock0.RESP	planowanie	PracticeMode	Procedure[Block]	proszenie	Running[Block]	TrainingList	TrainingList.Cycle	TrainingList.Sample	WordList	WordList1	wykonanie	zauwazenie	zrozumienie	Trial	ChoiceType	CorrectRespon	Effect	ErrorText	Fixation2.DurationError	Fixation2.OnsetDelay	Fixation2.OnsetTime	Fixation2.OnsetToOnsetTime	GoalRespInd1	GoalRespInd2	GoalRespInd3	GoalRespInd4	GoalRespInd5	GoalRespInd6	GoalRespName1	GoalRespName2	GoalRespName3	GoalRespName4	GoalRespName5	GoalRespName6	kol1	kol2	kol3	kol4	kol5	kol6	NeutralPrimeList1	Ocena	Ocena.Cycle	Ocena.Sample	OverallRT	Posit	Prime	Prime.ActionDelay	Prime.ActionTime	Prime.CustomOffsetTime	Prime.CustomOnsetTime	Prime.Duration	Prime.DurationError	Prime.FinishTime	Prime.OffsetDelay	Prime.OffsetTime	Prime.OnsetDelay	Prime.OnsetTime	Prime.OnsetToOnsetTime	Prime.PendingInputMasks	Prime.PreRelease	Prime.StartTime	Prime.TargetOffsetTime	Prime.TargetOnsetTime	Prime.TimingMode	PrimeChoice	Procedure[Trial]	Resp	RespWin.ACC	RespWin.CRESP	RespWin.DurationError	RespWin.OnsetDelay	RespWin.OnsetTime	RespWin.OnsetToOnsetTime	RespWin.RESP	RespWin.RT	RespWin.RTTime	Running[Trial]	Target	TargetSlide.ACC	TargetSlide.CRESP	TargetSlide.DurationError	TargetSlide.OnsetDelay	TargetSlide.OnsetTime	TargetSlide.OnsetToOnsetTime	TargetSlide.RESP	TargetSlide.RT	TargetSlide.RTTime	TargetTraining	TBox1	TBox2	TBox3	TBox4	TBox5	TBox6	TrainingList1	TrainingList1.Cycle	TrainingList1.Sample	TrCorrectResp	TrialList1	TrialList1.Cycle	TrialList1.Sample	TrialList2	TrialList2.Cycle	TrialList2.Sample	TrialType	TrPosit	TrWaitTime	WaitTime
1 ver1_main_procedure	29	1	27	<?xml version="1.0"?>\n<Clock xmlns:dt="urn:schemas-microsoft-com:datatypes"><Description dt:dt="string">E-Prime Primary Realtime Clock</Description><StartTime><Timestamp dt:dt="int">0</Timestamp><DateUtc dt:dt="string">2015-08-14T12:53:02Z</DateUtc></StartTime><FrequencyChanges><FrequencyChange><Frequency dt:dt="r8">2612304</Frequency><Timestamp dt:dt="r8">43639325370</Timestamp><Current dt:dt="r8">0</Current><DateUtc dt:dt="string">2015-08-14T12:53:02Z</DateUtc></FrequencyChange></FrequencyChanges></Clock>\n	1 ver1_main_procedure-29-1	99.939	1.0.0.880	1	nw	690182894	prawa	1	2.0.10.182	08-14-2015	2015-08-14 12:53:03	14:53:03	kobieta	2.0.10.92	1										1	1	1	{SPACE}	{SPACE}	d	poproszona	planowała	zrozumiałaś	wykonała		poproszony	planował	zrozumiałeś	wykonał				planowała		InstrProc	poproszona	InstrList				1		wykonała		zrozumiałaś																																																																																																
1 ver1_main_procedure	29	1	27	<?xml version="1.0"?>\n<Clock xmlns:dt="urn:schemas-microsoft-com:datatypes"><Description dt:dt="string">E-Prime Primary Realtime Clock</Description><StartTime><Timestamp dt:dt="int">0</Timestamp><DateUtc dt:dt="string">2015-08-14T12:53:02Z</DateUtc></StartTime><FrequencyChanges><FrequencyChange><Frequency dt:dt="r8">2612304</Frequency><Timestamp dt:dt="r8">43639325370</Timestamp><Current dt:dt="r8">0</Current><DateUtc dt:dt="string">2015-08-14T12:53:02Z</DateUtc></FrequencyChange></FrequencyChanges></Clock>\n	1 ver1_main_procedure-29-1	99.939	1.0.0.880	1	nw	690182894	prawa	1	2.0.10.182	08-14-2015	2015-08-14 12:53:03	14:53:03	kobieta	2.0.10.92	2																														TrainingProc1		TrainingList	1	1	1						1																																																					TrainProc											TrainingList1											target_right.png							2	1	1	l								25	450	
1 ver1_main_procedure	29	1	27	<?xml version="1.0"?>\n<Clock xmlns:dt="urn:schemas-microsoft-com:datatypes"><Description dt:dt="string">E-Prime Primary Realtime Clock</Description><StartTime><Timestamp dt:dt="int">0</Timestamp><DateUtc dt:dt="string">2015-08-14T12:53:02Z</DateUtc></StartTime><FrequencyChanges><FrequencyChange><Frequency dt:dt="r8">2612304</Frequency><Timestamp dt:dt="r8">43639325370</Timestamp><Current dt:dt="r8">0</Current><DateUtc dt:dt="string">2015-08-14T12:53:02Z</DateUtc></FrequencyChange></FrequencyChanges></Clock>\n	1 ver1_main_procedure-29-1	99.939	1.0.0.880	1	nw	690182894	prawa	1	2.0.10.182	08-14-2015	2015-08-14 12:53:03	14:53:03	kobieta	2.0.10.92	2																														TrainingProc1		TrainingList	1	1	1						2																																																					TrainProc											TrainingList1											target_both.png							3	1	2	dl								75	300	
1 ver1_main_procedure	29	1	27	<?xml version="1.0"?>\n<Clock xmlns:dt="urn:schemas-microsoft-com:datatypes"><Description dt:dt="string">E-Prime Primary Realtime Clock</Description><StartTime><Timestamp dt:dt="int">0</Timestamp><DateUtc dt:dt="string">2015-08-14T12:53:02Z</DateUtc></StartTime><FrequencyChanges><FrequencyChange><Frequency dt:dt="r8">2612304</Frequency><Timestamp dt:dt="r8">43639325370</Timestamp><Current dt:dt="r8">0</Current><DateUtc dt:dt="string">2015-08-14T12:53:02Z</DateUtc></FrequencyChange></FrequencyChanges></Clock>\n	1 ver1_main_procedure-29-1	99.939	1.0.0.880	1	nw	690182894	prawa	1	2.0.10.182	08-14-2015	2015-08-14 12:53:03	14:53:03	kobieta	2.0.10.92	2																														TrainingProc1		TrainingList	1	1	1						3																																																					TrainProc											TrainingList1											target_left.png							1	1	3	d								25	150	
1 ver1_main_procedure	29	1	27	<?xml version="1.0"?>\n<Clock xmlns:dt="urn:schemas-microsoft-com:datatypes"><Description dt:dt="string">E-Prime Primary Realtime Clock</Description><StartTime><Timestamp dt:dt="int">0</Timestamp><DateUtc dt:dt="string">2015-08-14T12:53:02Z</DateUtc></StartTime><FrequencyChanges><FrequencyChange><Frequency dt:dt="r8">2612304</Frequency><Timestamp dt:dt="r8">43639325370</Timestamp><Current dt:dt="r8">0</Current><DateUtc dt:dt="string">2015-08-14T12:53:02Z</DateUtc></FrequencyChange></FrequencyChanges></Clock>\n	1 ver1_main_procedure-29-1	99.939	1.0.0.880	1	nw	690182894	prawa	1	2.0.10.182	08-14-2015	2015-08-14 12:53:03	14:53:03	kobieta	2.0.10.92	2																														TrainingProc1		TrainingList	1	1	1						4																																																					TrainProc											TrainingList1											target_left.png							1	1	4	d								25	300	
1 ver1_main_procedure	29	1	27	<?xml version="1.0"?>\n<Clock xmlns:dt="urn:schemas-microsoft-com:datatypes"><Description dt:dt="string">E-Prime Primary Realtime Clock</Description><StartTime><Timestamp dt:dt="int">0</Timestamp><DateUtc dt:dt="string">2015-08-14T12:53:02Z</DateUtc></StartTime><FrequencyChanges><FrequencyChange><Frequency dt:dt="r8">2612304</Frequency><Timestamp dt:dt="r8">43639325370</Timestamp><Current dt:dt="r8">0</Current><DateUtc dt:dt="string">2015-08-14T12:53:02Z</DateUtc></FrequencyChange></FrequencyChanges></Clock>\n	1 ver1_main_procedure-29-1	99.939	1.0.0.880	1	nw	690182894	prawa	1	2.0.10.182	08-14-2015	2015-08-14 12:53:03	14:53:03	kobieta	2.0.10.92	2																														TrainingProc1		TrainingList	1	1	1						5																																																					TrainProc											TrainingList1											target_right.png							2	1	5	l								25	150	
1 ver1_main_procedure	29	1	27	<?xml version="1.0"?>\n<Clock xmlns:dt="urn:schemas-microsoft-com:datatypes"><Description dt:dt="string">E-Prime Primary Realtime Clock</Description><StartTime><Timestamp dt:dt="int">0</Timestamp><DateUtc dt:dt="string">2015-08-14T12:53:02Z</DateUtc></StartTime><FrequencyChanges><FrequencyChange><Frequency dt:dt="r8">2612304</Frequency><Timestamp dt:dt="r8">43639325370</Timestamp><Current dt:dt="r8">0</Current><DateUtc dt:dt="string">2015-08-14T12:53:02Z</DateUtc></FrequencyChange></FrequencyChanges></Clock>\n	1 ver1_main_procedure-29-1	99.939	1.0.0.880	1	nw	690182894	prawa	1	2.0.10.182	08-14-2015	2015-08-14 12:53:03	14:53:03	kobieta	2.0.10.92	2																														TrainingProc1		TrainingList	1	1	1						6																																																					TrainProc											TrainingList1											target_right.png							2	1	6	l								25	450	
1 ver1_main_procedure	29	1	27	<?xml version="1.0"?>\n<Clock xmlns:dt="urn:schemas-microsoft-com:datatypes"><Description dt:dt="string">E-Prime Primary Realtime Clock</Description><StartTime><Timestamp dt:dt="int">0</Timestamp><DateUtc dt:dt="string">2015-08-14T12:53:02Z</DateUtc></StartTime><FrequencyChanges><FrequencyChange><Frequency dt:dt="r8">2612304</Frequency><Timestamp dt:dt="r8">43639325370</Timestamp><Current dt:dt="r8">0</Current><DateUtc dt:dt="string">2015-08-14T12:53:02Z</DateUtc></FrequencyChange></FrequencyChanges></Clock>\n	1 ver1_main_procedure-29-1	99.939	1.0.0.880	1	nw	690182894	prawa	1	2.0.10.182	08-14-2015	2015-08-14 12:53:03	14:53:03	kobieta	2.0.10.92	2																														TrainingProc1		TrainingList	1	1	1						7																																																					TrainProc											TrainingList1											target_both.png							3	1	7	dl								25	150	
1 ver1_main_procedure	29	1	27	<?xml version="1.0"?>\n<Clock xmlns:dt="urn:schemas-microsoft-com:datatypes"><Description dt:dt="string">E-Prime Primary Realtime Clock</Description><StartTime><Timestamp dt:dt="int">0</Timestamp><DateUtc dt:dt="string">2015-08-14T12:53:02Z</DateUtc></StartTime><FrequencyChanges><FrequencyChange><Frequency dt:dt="r8">2612304</Frequency><Timestamp dt:dt="r8">43639325370</Timestamp><Current dt:dt="r8">0</Current><DateUtc dt:dt="string">2015-08-14T12:53:02Z</DateUtc></FrequencyChange></FrequencyChanges></Clock>\n	1 ver1_main_procedure-29-1	99.939	1.0.0.880	1	nw	690182894	prawa	1	2.0.10.182	08-14-2015	2015-08-14 12:53:03	14:53:03	kobieta	2.0.10.92	2																														TrainingProc1		TrainingList	1	1	1						8																																																					TrainProc											TrainingList1											target_left.png							1	1	8	d								25	300	
1 ver1_main_procedure	29	1	27	<?xml version="1.0"?>\n<Clock xmlns:dt="urn:schemas-microsoft-com:datatypes"><Description dt:dt="string">E-Prime Primary Realtime Clock</Description><StartTime><Timestamp dt:dt="int">0</Timestamp><DateUtc dt:dt="string">2015-08-14T12:53:02Z</DateUtc></StartTime><FrequencyChanges><FrequencyChange><Frequency dt:dt="r8">2612304</Frequency><Timestamp dt:dt="r8">43639325370</Timestamp><Current dt:dt="r8">0</Current><DateUtc dt:dt="string">2015-08-14T12:53:02Z</DateUtc></FrequencyChange></FrequencyChanges></Clock>\n	1 ver1_main_procedure-29-1	99.939	1.0.0.880	1	nw	690182894	prawa	1	2.0.10.182	08-14-2015	2015-08-14 12:53:03	14:53:03	kobieta	2.0.10.92	2																														TrainingProc1		TrainingList	1	1	1						9																																																					TrainProc											TrainingList1											target_both.png							3	1	9	dl								75	300	
1 ver1_main_procedure	29	1	27	<?xml version="1.0"?>\n<Clock xmlns:dt="urn:schemas-microsoft-com:datatypes"><Description dt:dt="string">E-Prime Primary Realtime Clock</Description><StartTime><Timestamp dt:dt="int">0</Timestamp><DateUtc dt:dt="string">2015-08-14T12:53:02Z</DateUtc></StartTime><FrequencyChanges><FrequencyChange><Frequency dt:dt="r8">2612304</Frequency><Timestamp dt:dt="r8">43639325370</Timestamp><Current dt:dt="r8">0</Current><DateUtc dt:dt="string">2015-08-14T12:53:02Z</DateUtc></FrequencyChange></FrequencyChanges></Clock>\n	1 ver1_main_procedure-29-1	99.939	1.0.0.880	1	nw	690182894	prawa	1	2.0.10.182	08-14-2015	2015-08-14 12:53:03	14:53:03	kobieta	2.0.10.92	3	3	1	1																							d	{SPACE}		no	BlockProc1		BlockList									1	Cued	l	color_green.png		-1	10	230572	310																			1					75	prime_left.png	0	230151	0	0	13	0	230151	0	230151	1	230151	20	0	-1	228652	230151	230150	0	prime_left.png	TrialProc1	right	0		1	20	230471	-230471		0	0	TrialList1	target_right.png	1	l	-1	3	230201	270	l	360	230561												5	1	1				neut			300
1 ver1_main_procedure	29	1	27	<?xml version="1.0"?>\n<Clock xmlns:dt="urn:schemas-microsoft-com:datatypes"><Description dt:dt="string">E-Prime Primary Realtime Clock</Description><StartTime><Timestamp dt:dt="int">0</Timestamp><DateUtc dt:dt="string">2015-08-14T12:53:02Z</DateUtc></StartTime><FrequencyChanges><FrequencyChange><Frequency dt:dt="r8">2612304</Frequency><Timestamp dt:dt="r8">43639325370</Timestamp><Current dt:dt="r8">0</Current><DateUtc dt:dt="string">2015-08-14T12:53:02Z</DateUtc></FrequencyChange></FrequencyChanges></Clock>\n	1 ver1_main_procedure-29-1	99.939	1.0.0.880	1	nw	690182894	prawa	1	2.0.10.182	08-14-2015	2015-08-14 12:53:03	14:53:03	kobieta	2.0.10.92	3	3	1	1																							d	{SPACE}		no	BlockProc1		BlockList									2	Cued	l	color_orange.png		-1	6	233103	310																								75	prime_left.png	0	232693	0	0	13	0	232693	0	232693	1	232693	20	0	-1	231194	232693	232692	0		TrialProc1	right	0		0	10	233003	-233003		0	0	TrialList1	target_right.png	1	l	-1	3	232743	260	l	354	233097												6	1	2				incomp			300
1 ver1_main_procedure	29	1	27	<?xml version="1.0"?>\n<Clock xmlns:dt="urn:schemas-microsoft-com:datatypes"><Description dt:dt="string">E-Prime Primary Realtime Clock</Description><StartTime><Timestamp dt:dt="int">0</Timestamp><DateUtc dt:dt="string">2015-08-14T12:53:02Z</DateUtc></StartTime><FrequencyChanges><FrequencyChange><Frequency dt:dt="r8">2612304</Frequency><Timestamp dt:dt="r8">43639325370</Timestamp><Current dt:dt="r8">0</Current><DateUtc dt:dt="string">2015-08-14T12:53:02Z</DateUtc></FrequencyChange></FrequencyChanges></Clock>\n	1 ver1_main_procedure-29-1	99.939	1.0.0.880	1	nw	690182894	prawa	1	2.0.10.182	08-14-2015	2015-08-14 12:53:03	14:53:03	kobieta	2.0.10.92	3	3	1	1																							d	{SPACE}		no	BlockProc1		BlockList									3	Cued	l	color_green.png		-1	14	235695	460																			2					25	prime_right.png	0	235224	0	0	13	0	235225	0	235224	1	235224	20	0	-1	233725	235224	235223	0	prime_right.png	TrialProc1	right	0		0	11	235535	-235535		0	0	TrialList1	target_right.png	1	l	-1	3	235274	261	l	407	235681												5	1	3				neut			450
1 ver1_main_procedure	29	1	27	<?xml version="1.0"?>\n<Clock xmlns:dt="urn:schemas-microsoft-com:datatypes"><Description dt:dt="string">E-Prime Primary Realtime Clock</Description><StartTime><Timestamp dt:dt="int">0</Timestamp><DateUtc dt:dt="string">2015-08-14T12:53:02Z</DateUtc></StartTime><FrequencyChanges><FrequencyChange><Frequency dt:dt="r8">2612304</Frequency><Timestamp dt:dt="r8">43639325370</Timestamp><Current dt:dt="r8">0</Current><DateUtc dt:dt="string">2015-08-14T12:53:02Z</DateUtc></FrequencyChange></FrequencyChanges></Clock>\n	1 ver1_main_procedure-29-1	99.939	1.0.0.880	1	nw	690182894	prawa	1	2.0.10.182	08-14-2015	2015-08-14 12:53:03	14:53:03	kobieta	2.0.10.92	3	3	1	1																							d	{SPACE}		no	BlockProc1		BlockList									4	Cued	d	color_yellow.png		-1	9	238306	460																			1					75	prime_left.png	0	237966	0	0	13	0	237966	0	237966	1	237966	20	0	-1	236467	237966	237965	0	prime_left.png	TrialProc1	left	0		0	10	238276	-238276		0	0	TrialList1	target_left.png	1	d	-1	3	238016	260	d	281	238297												2	1	4				neut			450
1 ver1_main_procedure	29	1	27	<?xml version="1.0"?>\n<Clock xmlns:dt="urn:schemas-microsoft-com:datatypes"><Description dt:dt="string">E-Prime Primary Realtime Clock</Description><StartTime><Timestamp dt:dt="int">0</Timestamp><DateUtc dt:dt="string">2015-08-14T12:53:02Z</DateUtc></StartTime><FrequencyChanges><FrequencyChange><Frequency dt:dt="r8">2612304</Frequency><Timestamp dt:dt="r8">43639325370</Timestamp><Current dt:dt="r8">0</Current><DateUtc dt:dt="string">2015-08-14T12:53:02Z</DateUtc></FrequencyChange></FrequencyChanges></Clock>\n	1 ver1_main_procedure-29-1	99.939	1.0.0.880	1	nw	690182894	prawa	1	2.0.10.182	08-14-2015	2015-08-14 12:53:03	14:53:03	kobieta	2.0.10.92	3	3	1	1																							d	{SPACE}		no	BlockProc1		BlockList									5	Cued	l	color_orange.png		-1	12	240878	160																								25	prime_left.png	1	240578	0	0	13	1	240578	1	240578	0	240577	21	0	-1	239078	240577	240577	0		TrialProc1	right	0		0	0	0	0		0	0	TrialList1	target_right.png	1	l	-999999	3	240628	0	l	237	240865												6	1	5				incomp			150
1 ver1_main_procedure	29	1	27	<?xml version="1.0"?>\n<Clock xmlns:dt="urn:schemas-microsoft-com:datatypes"><Description dt:dt="string">E-Prime Primary Realtime Clock</Description><StartTime><Timestamp dt:dt="int">0</Timestamp><DateUtc dt:dt="string">2015-08-14T12:53:02Z</DateUtc></StartTime><FrequencyChanges><FrequencyChange><Frequency dt:dt="r8">2612304</Frequency><Timestamp dt:dt="r8">43639325370</Timestamp><Current dt:dt="r8">0</Current><DateUtc dt:dt="string">2015-08-14T12:53:02Z</DateUtc></FrequencyChange></FrequencyChanges></Clock>\n	1 ver1_main_procedure-29-1	99.939	1.0.0.880	1	nw	690182894	prawa	1	2.0.10.182	08-14-2015	2015-08-14 12:53:03	14:53:03	kobieta	2.0.10.92	3	3	1	1																							d	{SPACE}		no	BlockProc1		BlockList									6	Cued	l	color_green.png		-1	5	243239	310																			2					75	prime_right.png	0	242849	0	0	13	0	242849	0	242849	1	242849	20	0	-1	241350	242849	242848	0	prime_right.png	TrialProc1	right	0		0	10	243159	-243159		0	0	TrialList1	target_right.png	1	l	-1	3	242899	260	l	334	243233												5	1	6				neut			300
1 ver1_main_procedure	29	1	27	<?xml version="1.0"?>\n<Clock xmlns:dt="urn:schemas-microsoft-com:datatypes"><Description dt:dt="string">E-Prime Primary Realtime Clock</Description><StartTime><Timestamp dt:dt="int">0</Timestamp><DateUtc dt:dt="string">2015-08-14T12:53:02Z</DateUtc></StartTime><FrequencyChanges><FrequencyChange><Frequency dt:dt="r8">2612304</Frequency><Timestamp dt:dt="r8">43639325370</Timestamp><Current dt:dt="r8">0</Current><DateUtc dt:dt="string">2015-08-14T12:53:02Z</DateUtc></FrequencyChange></FrequencyChanges></Clock>\n	1 ver1_main_procedure-29-1	99.939	1.0.0.880	1	nw	690182894	prawa	1	2.0.10.182	08-14-2015	2015-08-14 12:53:03	14:53:03	kobieta	2.0.10.92	3	3	1	1																							d	{SPACE}		no	BlockProc1		BlockList									7	Free	dl	color_red.png		-1	11	245981	160																								75	prime_right.png	0	245360	0	0	13	1	245361	1	245361	1	245360	20	0	-1	243861	245360	245359	0		TrialProc1	right	0		0	11	245671	-245671		0	0	TrialList1	target_both.png	0	dl	-1	3	245410	261	d	559	245969												10	1	7				comp			150
1 ver1_main_procedure	29	1	27	<?xml version="1.0"?>\n<Clock xmlns:dt="urn:schemas-microsoft-com:datatypes"><Description dt:dt="string">E-Prime Primary Realtime Clock</Description><StartTime><Timestamp dt:dt="int">0</Timestamp><DateUtc dt:dt="string">2015-08-14T12:53:02Z</DateUtc></StartTime><FrequencyChanges><FrequencyChange><Frequency dt:dt="r8">2612304</Frequency><Timestamp dt:dt="r8">43639325370</Timestamp><Current dt:dt="r8">0</Current><DateUtc dt:dt="string">2015-08-14T12:53:02Z</DateUtc></FrequencyChange></FrequencyChanges></Clock>\n	1 ver1_main_procedure-29-1	99.939	1.0.0.880	1	nw	690182894	prawa	1	2.0.10.182	08-14-2015	2015-08-14 12:53:03	14:53:03	kobieta	2.0.10.92	3	3	1	1																							d	{SPACE}		no	BlockProc1		BlockList									8	Cued	d	color_purple.png		-1	14	248352	310																								75	prime_left.png	0	247952	0	0	13	0	247952	0	247952	1	247952	20	0	-1	246453	247952	247951	0		TrialProc1	left	0		0	10	248262	-248262		0	0	TrialList1	target_left.png	1	d	-1	3	248002	260	d	335	248337												1	1	8				comp			300
1 ver1_main_procedure	29	1	27	<?xml version="1.0"?>\n<Clock xmlns:dt="urn:schemas-microsoft-com:datatypes"><Description dt:dt="string">E-Prime Primary Realtime Clock</Description><StartTime><Timestamp dt:dt="int">0</Timestamp><DateUtc dt:dt="string">2015-08-14T12:53:02Z</DateUtc></StartTime><FrequencyChanges><FrequencyChange><Frequency dt:dt="r8">2612304</Frequency><Timestamp dt:dt="r8">43639325370</Timestamp><Current dt:dt="r8">0</Current><DateUtc dt:dt="string">2015-08-14T12:53:02Z</DateUtc></FrequencyChange></FrequencyChanges></Clock>\n	1 ver1_main_procedure-29-1	99.939	1.0.0.880	1	nw	690182894	prawa	1	2.0.10.182	08-14-2015	2015-08-14 12:53:03	14:53:03	kobieta	2.0.10.92	3	3	1	1																							d	{SPACE}		no	BlockProc1		BlockList									9	Free	dl	color_orange.png		-1	8	250994	310																								75	prime_left.png	0	250473	0	0	13	1	250474	1	250474	1	250473	20	0	-1	248974	250473	250472	0		TrialProc1	right	0		0	11	250784	-250784		0	0	TrialList1	target_both.png	0	dl	-1	3	250523	261	l	462	250985												12	1	9				incomp			300
1 ver1_main_procedure	29	1	27	<?xml version="1.0"?>\n<Clock xmlns:dt="urn:schemas-microsoft-com:datatypes"><Description dt:dt="string">E-Prime Primary Realtime Clock</Description><StartTime><Timestamp dt:dt="int">0</Timestamp><DateUtc dt:dt="string">2015-08-14T12:53:02Z</DateUtc></StartTime><FrequencyChanges><FrequencyChange><Frequency dt:dt="r8">2612304</Frequency><Timestamp dt:dt="r8">43639325370</Timestamp><Current dt:dt="r8">0</Current><DateUtc dt:dt="string">2015-08-14T12:53:02Z</DateUtc></FrequencyChange></FrequencyChanges></Clock>\n	1 ver1_main_procedure-29-1	99.939	1.0.0.880	1	nw	690182894	prawa	1	2.0.10.182	08-14-2015	2015-08-14 12:53:03	14:53:03	kobieta	2.0.10.92	3	3	1	1																							d	{SPACE}		no	BlockProc1		BlockList									10	Cued	d	color_purple.png		-1	15	253425	160																								25	prime_left.png	0	253115	0	0	13	0	253115	0	253115	1	253115	20	0	-1	251616	253115	253114	0		TrialProc1	left	0		0	0	0	0		0	0	TrialList1	target_left.png	1	d	-999999	3	253165	0	d	244	253409												1	1	10				comp			150
1 ver1_main_procedure	29	1	27	<?xml version="1.0"?>\n<Clock xmlns:dt="urn:schemas-microsoft-com:datatypes"><Description dt:dt="string">E-Prime Primary Realtime Clock</Description><StartTime><Timestamp dt:dt="int">0</Timestamp><DateUtc dt:dt="string">2015-08-14T12:53:02Z</DateUtc></StartTime><FrequencyChanges><FrequencyChange><Frequency dt:dt="r8">2612304</Frequency><Timestamp dt:dt="r8">43639325370</Timestamp><Current dt:dt="r8">0</Current><DateUtc dt:dt="string">2015-08-14T12:53:02Z</DateUtc></FrequencyChange></FrequencyChanges></Clock>\n	1 ver1_main_procedure-29-1	99.939	1.0.0.880	1	nw	690182894	prawa	1	2.0.10.182	08-14-2015	2015-08-14 12:53:03	14:53:03	kobieta	2.0.10.92	3	3	1	1																							d	{SPACE}		no	BlockProc1		BlockList									11	Cued	d	color_purple.png		-1	11	255877	160																								75	prime_left.png	0	255396	0	0	13	0	255396	0	255396	1	255396	20	0	-1	253897	255396	255395	0		TrialProc1	left	0		1	10	255706	-255706		0	0	TrialList1	target_left.png	1	d	-1	3	255446	260	d	419	255865												1	1	11				comp			150
1 ver1_main_procedure	29	1	27	<?xml version="1.0"?>\n<Clock xmlns:dt="urn:schemas-microsoft-com:datatypes"><Description dt:dt="string">E-Prime Primary Realtime Clock</Description><StartTime><Timestamp dt:dt="int">0</Timestamp><DateUtc dt:dt="string">2015-08-14T12:53:02Z</DateUtc></StartTime><FrequencyChanges><FrequencyChange><Frequency dt:dt="r8">2612304</Frequency><Timestamp dt:dt="r8">43639325370</Timestamp><Current dt:dt="r8">0</Current><DateUtc dt:dt="string">2015-08-14T12:53:02Z</DateUtc></FrequencyChange></FrequencyChanges></Clock>\n	1 ver1_main_procedure-29-1	99.939	1.0.0.880	1	nw	690182894	prawa	1	2.0.10.182	08-14-2015	2015-08-14 12:53:03	14:53:03	kobieta	2.0.10.92	3	3	1	1																							d	{SPACE}		no	BlockProc1		BlockList									12	Cued	d	color_purple.png		-1	12	258158	460																								75	prime_left.png	0	257848	0	0	13	0	257848	0	257848	1	257848	20	0	-1	256349	257848	257847	0		TrialProc1	left	0		0	0	0	0		0	0	TrialList1	target_left.png	1	d	-999999	3	257898	0	d	247	258145												1	1	12				comp			450
1 ver1_main_procedure	29	1	27	<?xml version="1.0"?>\n<Clock xmlns:dt="urn:schemas-microsoft-com:datatypes"><Description dt:dt="string">E-Prime Primary Realtime Clock</Description><StartTime><Timestamp dt:dt="int">0</Timestamp><DateUtc dt:dt="string">2015-08-14T12:53:02Z</DateUtc></StartTime><FrequencyChanges><FrequencyChange><Frequency dt:dt="r8">2612304</Frequency><Timestamp dt:dt="r8">43639325370</Timestamp><Current dt:dt="r8">0</Current><DateUtc dt:dt="string">2015-08-14T12:53:02Z</DateUtc></FrequencyChange></FrequencyChanges></Clock>\n	1 ver1_main_procedure-29-1	99.939	1.0.0.880	1	nw	690182894	prawa	1	2.0.10.182	08-14-2015	2015-08-14 12:53:03	14:53:03	kobieta	2.0.10.92	3	3	1	1																							d	{SPACE}		no	BlockProc1		BlockList									13	Cued	d	color_yellow.png		-1	14	260800	460																			1					25	prime_left.png	0	260429	0	0	13	0	260429	0	260429	1	260429	20	0	-1	258930	260429	260428	0	prime_left.png	TrialProc1	left	0		1	10	260739	-260739		0	0	TrialList1	target_left.png	1	d	-1	3	260479	260	d	306	260785												2	1	13				neut			450
1 ver1_main_procedure	29	1	27	<?xml version="1.0"?>\n<Clock xmlns:dt="urn:schemas-microsoft-com:datatypes"><Description dt:dt="string">E-Prime Primary Realtime Clock</Description><StartTime><Timestamp dt:dt="int">0</Timestamp><DateUtc dt:dt="string">2015-08-14T12:53:02Z</DateUtc></StartTime><FrequencyChanges><FrequencyChange><Frequency dt:dt="r8">2612304</Frequency><Timestamp dt:dt="r8">43639325370</Timestamp><Current dt:dt="r8">0</Current><DateUtc dt:dt="string">2015-08-14T12:53:02Z</DateUtc></FrequencyChange></FrequencyChanges></Clock>\n	1 ver1_main_procedure-29-1	99.939	1.0.0.880	1	nw	690182894	prawa	1	2.0.10.182	08-14-2015	2015-08-14 12:53:03	14:53:03	kobieta	2.0.10.92	3	3	1	1																							d	{SPACE}		no	BlockProc1		BlockList									14	Cued	l	color_orange.png		-1	7	263441	460																								75	prime_left.png	0	263071	0	0	13	0	263071	0	263071	1	263071	20	0	-1	261572	263071	263070	0		TrialProc1	right	0		0	10	263381	-263381		0	0	TrialList1	target_right.png	1	l	-1	3	263121	260	l	312	263433												6	1	14				incomp			450
1 ver1_main_procedure	29	1	27	<?xml version="1.0"?>\n<Clock xmlns:dt="urn:schemas-microsoft-com:datatypes"><Description dt:dt="string">E-Prime Primary Realtime Clock</Description><StartTime><Timestamp dt:dt="int">0</Timestamp><DateUtc dt:dt="string">2015-08-14T12:53:02Z</DateUtc></StartTime><FrequencyChanges><FrequencyChange><Frequency dt:dt="r8">2612304</Frequency><Timestamp dt:dt="r8">43639325370</Timestamp><Current dt:dt="r8">0</Current><DateUtc dt:dt="string">2015-08-14T12:53:02Z</DateUtc></FrequencyChange></FrequencyChanges></Clock>\n	1 ver1_main_procedure-29-1	99.939	1.0.0.880	1	nw	690182894	prawa	1	2.0.10.182	08-14-2015	2015-08-14 12:53:03	14:53:03	kobieta	2.0.10.92	3	3	1	1																							d	{SPACE}		no	BlockProc1		BlockList									15	Cued	l			-1	13	265983	460																								25	prime_left.png	1	265713	0	0	13	1	265713	1	265713	0	265712	20	0	-1	264213	265712	265712	0		TrialProc1	right	0		0	0	0	0		0	0	TrialList1	target_right.png	0	l	-999999	3	265762	0	d	207	265969												6	1	15				incomp			450
1 ver1_main_procedure	29	1	27	<?xml version="1.0"?>\n<Clock xmlns:dt="urn:schemas-microsoft-com:datatypes"><Description dt:dt="string">E-Prime Primary Realtime Clock</Description><StartTime><Timestamp dt:dt="int">0</Timestamp><DateUtc dt:dt="string">2015-08-14T12:53:02Z</DateUtc></StartTime><FrequencyChanges><FrequencyChange><Frequency dt:dt="r8">2612304</Frequency><Timestamp dt:dt="r8">43639325370</Timestamp><Current dt:dt="r8">0</Current><DateUtc dt:dt="string">2015-08-14T12:53:02Z</DateUtc></FrequencyChange></FrequencyChanges></Clock>\n	1 ver1_main_procedure-29-1	99.939	1.0.0.880	1	nw	690182894	prawa	1	2.0.10.182	08-14-2015	2015-08-14 12:53:03	14:53:03	kobieta	2.0.10.92	3	3	1	1																							d	{SPACE}		no	BlockProc1		BlockList									16	Cued	d	color_red.png		-1	8	268594	160																								25	prime_right.png	0	268254	0	0	13	0	268254	0	268254	1	268254	20	0	-1	266755	268254	268253	0		TrialProc1	left	0		0	10	268564	-268564		0	0	TrialList1	target_left.png	1	d	-1	3	268304	260	d	281	268585												3	1	16				incomp			150
1 ver1_main_procedure	29	1	27	<?xml version="1.0"?>\n<Clock xmlns:dt="urn:schemas-microsoft-com:datatypes"><Description dt:dt="string">E-Prime Primary Realtime Clock</Description><StartTime><Timestamp dt:dt="int">0</Timestamp><DateUtc dt:dt="string">2015-08-14T12:53:02Z</DateUtc></StartTime><FrequencyChanges><FrequencyChange><Frequency dt:dt="r8">2612304</Frequency><Timestamp dt:dt="r8">43639325370</Timestamp><Current dt:dt="r8">0</Current><DateUtc dt:dt="string">2015-08-14T12:53:02Z</DateUtc></FrequencyChange></FrequencyChanges></Clock>\n	1 ver1_main_procedure-29-1	99.939	1.0.0.880	1	nw	690182894	prawa	1	2.0.10.182	08-14-2015	2015-08-14 12:53:03	14:53:03	kobieta	2.0.10.92	3	3	1	1																							d	{SPACE}		no	BlockProc1		BlockList									17	Free	dl	color_orange.png		-1	8	271266	310																								25	prime_left.png	0	270565	0	0	13	0	270566	0	270565	1	270565	20	0	-1	269066	270565	270564	0		TrialProc1	left	0		0	11	270876	-270876		0	0	TrialList1	target_both.png	0	dl	-1	3	270615	261	l	642	271257												7	1	17				comp			300
1 ver1_main_procedure	29	1	27	<?xml version="1.0"?>\n<Clock xmlns:dt="urn:schemas-microsoft-com:datatypes"><Description dt:dt="string">E-Prime Primary Realtime Clock</Description><StartTime><Timestamp dt:dt="int">0</Timestamp><DateUtc dt:dt="string">2015-08-14T12:53:02Z</DateUtc></StartTime><FrequencyChanges><FrequencyChange><Frequency dt:dt="r8">2612304</Frequency><Timestamp dt:dt="r8">43639325370</Timestamp><Current dt:dt="r8">0</Current><DateUtc dt:dt="string">2015-08-14T12:53:02Z</DateUtc></FrequencyChange></FrequencyChanges></Clock>\n	1 ver1_main_procedure-29-1	99.939	1.0.0.880	1	nw	690182894	prawa	1	2.0.10.182	08-14-2015	2015-08-14 12:53:03	14:53:03	kobieta	2.0.10.92	3	3	1	1																							d	{SPACE}		no	BlockProc1		BlockList									18	Free	dl	color_yellow.png		-1	13	273807	310																			2					25	prime_right.png	0	273387	0	0	13	0	273387	0	273387	1	273387	20	0	-1	271888	273387	273386	0	prime_right.png	TrialProc1	left	0		0	10	273697	-273697		0	0	TrialList1	target_both.png	0	dl	-1	3	273437	260	d	357	273794												8	1	18				neut			300
1 ver1_main_procedure	29	1	27	<?xml version="1.0"?>\n<Clock xmlns:dt="urn:schemas-microsoft-com:datatypes"><Description dt:dt="string">E-Prime Primary Realtime Clock</Description><StartTime><Timestamp dt:dt="int">0</Timestamp><DateUtc dt:dt="string">2015-08-14T12:53:02Z</DateUtc></StartTime><FrequencyChanges><FrequencyChange><Frequency dt:dt="r8">2612304</Frequency><Timestamp dt:dt="r8">43639325370</Timestamp><Current dt:dt="r8">0</Current><DateUtc dt:dt="string">2015-08-14T12:53:02Z</DateUtc></FrequencyChange></FrequencyChanges></Clock>\n	1 ver1_main_procedure-29-1	99.939	1.0.0.880	1	nw	690182894	prawa	1	2.0.10.182	08-14-2015	2015-08-14 12:53:03	14:53:03	kobieta	2.0.10.92	3	3	1	1																							d	{SPACE}		no	BlockProc1		BlockList									19	Free	dl	color_orange.png		-1	7	276449	160																								75	prime_left.png	0	275929	0	0	13	0	275929	0	275929	1	275929	20	0	-1	274429	275929	275928	0		TrialProc1	left	0		0	10	276239	-276239		0	0	TrialList1	target_both.png	0	dl	-1	3	275979	260	l	463	276442												7	1	19				comp			150
1 ver1_main_procedure	29	1	27	<?xml version="1.0"?>\n<Clock xmlns:dt="urn:schemas-microsoft-com:datatypes"><Description dt:dt="string">E-Prime Primary Realtime Clock</Description><StartTime><Timestamp dt:dt="int">0</Timestamp><DateUtc dt:dt="string">2015-08-14T12:53:02Z</DateUtc></StartTime><FrequencyChanges><FrequencyChange><Frequency dt:dt="r8">2612304</Frequency><Timestamp dt:dt="r8">43639325370</Timestamp><Current dt:dt="r8">0</Current><DateUtc dt:dt="string">2015-08-14T12:53:02Z</DateUtc></FrequencyChange></FrequencyChanges></Clock>\n	1 ver1_main_procedure-29-1	99.939	1.0.0.880	1	nw	690182894	prawa	1	2.0.10.182	08-14-2015	2015-08-14 12:53:03	14:53:03	kobieta	2.0.10.92	3	3	1	1																							d	{SPACE}		no	BlockProc1		BlockList									20	Cued	d	color_purple.png		-1	10	278740	160																								75	prime_left.png	0	278420	0	0	13	0	278420	0	278420	1	278420	20	0	-1	276921	278420	278419	0		TrialProc1	left	0		-999999	10	278730	0		0	0	TrialList1	target_left.png	1	d	-1	3	278470	0	d	252	278722												1	1	20				comp			150
1 ver1_main_procedure	29	1	27	<?xml version="1.0"?>\n<Clock xmlns:dt="urn:schemas-microsoft-com:datatypes"><Description dt:dt="string">E-Prime Primary Realtime Clock</Description><StartTime><Timestamp dt:dt="int">0</Timestamp><DateUtc dt:dt="string">2015-08-14T12:53:02Z</DateUtc></StartTime><FrequencyChanges><FrequencyChange><Frequency dt:dt="r8">2612304</Frequency><Timestamp dt:dt="r8">43639325370</Timestamp><Current dt:dt="r8">0</Current><DateUtc dt:dt="string">2015-08-14T12:53:02Z</DateUtc></FrequencyChange></FrequencyChanges></Clock>\n	1 ver1_main_procedure-29-1	99.939	1.0.0.880	1	nw	690182894	prawa	1	2.0.10.182	08-14-2015	2015-08-14 12:53:03	14:53:03	kobieta	2.0.10.92	3	3	1	1																							d	{SPACE}		no	BlockProc1		BlockList									21	Cued	d	color_purple.png		-1	14	281112	460																								75	prime_left.png	0	280711	0	0	13	1	280712	1	280712	1	280711	20	0	-1	279212	280711	280710	0		TrialProc1	left	0		0	11	281022	-281022		0	0	TrialList1	target_left.png	1	d	-1	3	280761	261	d	337	281098												1	1	21				comp			450
1 ver1_main_procedure	29	1	27	<?xml version="1.0"?>\n<Clock xmlns:dt="urn:schemas-microsoft-com:datatypes"><Description dt:dt="string">E-Prime Primary Realtime Clock</Description><StartTime><Timestamp dt:dt="int">0</Timestamp><DateUtc dt:dt="string">2015-08-14T12:53:02Z</DateUtc></StartTime><FrequencyChanges><FrequencyChange><Frequency dt:dt="r8">2612304</Frequency><Timestamp dt:dt="r8">43639325370</Timestamp><Current dt:dt="r8">0</Current><DateUtc dt:dt="string">2015-08-14T12:53:02Z</DateUtc></FrequencyChange></FrequencyChanges></Clock>\n	1 ver1_main_procedure-29-1	99.939	1.0.0.880	1	nw	690182894	prawa	1	2.0.10.182	08-14-2015	2015-08-14 12:53:03	14:53:03	kobieta	2.0.10.92	3	3	1	1																							d	{SPACE}		no	BlockProc1		BlockList									22	Cued	l	color_green.png		-1	9	283763	460																			1					75	prime_left.png	0	283383	0	0	13	0	283383	0	283383	1	283383	20	0	-1	281884	283383	283382	0	prime_left.png	TrialProc1	right	0		0	10	283693	-283693		0	0	TrialList1	target_right.png	1	l	-1	3	283433	260	l	321	283754												5	1	22				neut			450
1 ver1_main_procedure	29	1	27	<?xml version="1.0"?>\n<Clock xmlns:dt="urn:schemas-microsoft-com:datatypes"><Description dt:dt="string">E-Prime Primary Realtime Clock</Description><StartTime><Timestamp dt:dt="int">0</Timestamp><DateUtc dt:dt="string">2015-08-14T12:53:02Z</DateUtc></StartTime><FrequencyChanges><FrequencyChange><Frequency dt:dt="r8">2612304</Frequency><Timestamp dt:dt="r8">43639325370</Timestamp><Current dt:dt="r8">0</Current><DateUtc dt:dt="string">2015-08-14T12:53:02Z</DateUtc></FrequencyChange></FrequencyChanges></Clock>\n	1 ver1_main_procedure-29-1	99.939	1.0.0.880	1	nw	690182894	prawa	1	2.0.10.182	08-14-2015	2015-08-14 12:53:03	14:53:03	kobieta	2.0.10.92	3	3	1	1																							d	{SPACE}		no	BlockProc1		BlockList									23	Cued	l	color_blue.png		-1	9	286435	310																								25	prime_right.png	0	286035	0	0	13	0	286035	0	286035	1	286035	20	0	-1	284535	286035	286034	0		TrialProc1	right	0		0	10	286345	-286345		0	0	TrialList1	target_right.png	1	l	-1	3	286085	260	l	341	286426												4	1	23				comp			300
1 ver1_main_procedure	29	1	27	<?xml version="1.0"?>\n<Clock xmlns:dt="urn:schemas-microsoft-com:datatypes"><Description dt:dt="string">E-Prime Primary Realtime Clock</Description><StartTime><Timestamp dt:dt="int">0</Timestamp><DateUtc dt:dt="string">2015-08-14T12:53:02Z</DateUtc></StartTime><FrequencyChanges><FrequencyChange><Frequency dt:dt="r8">2612304</Frequency><Timestamp dt:dt="r8">43639325370</Timestamp><Current dt:dt="r8">0</Current><DateUtc dt:dt="string">2015-08-14T12:53:02Z</DateUtc></FrequencyChange></FrequencyChanges></Clock>\n	1 ver1_main_procedure-29-1	99.939	1.0.0.880	1	nw	690182894	prawa	1	2.0.10.182	08-14-2015	2015-08-14 12:53:03	14:53:03	kobieta	2.0.10.92	3	3	1	1																							d	{SPACE}		no	BlockProc1		BlockList									24	Cued	l	color_blue.png		-1	6	289016	160																								25	prime_right.png	0	288556	0	0	13	0	288556	0	288556	1	288556	20	0	-1	287057	288556	288555	0		TrialProc1	right	0		0	10	288866	-288866		0	0	TrialList1	target_right.png	1	l	-1	3	288606	260	l	404	289010												4	1	24				comp			150
1 ver1_main_procedure	29	1	27	<?xml version="1.0"?>\n<Clock xmlns:dt="urn:schemas-microsoft-com:datatypes"><Description dt:dt="string">E-Prime Primary Realtime Clock</Description><StartTime><Timestamp dt:dt="int">0</Timestamp><DateUtc dt:dt="string">2015-08-14T12:53:02Z</DateUtc></StartTime><FrequencyChanges><FrequencyChange><Frequency dt:dt="r8">2612304</Frequency><Timestamp dt:dt="r8">43639325370</Timestamp><Current dt:dt="r8">0</Current><DateUtc dt:dt="string">2015-08-14T12:53:02Z</DateUtc></FrequencyChange></FrequencyChanges></Clock>\n	1 ver1_main_procedure-29-1	99.939	1.0.0.880	1	nw	690182894	prawa	1	2.0.10.182	08-14-2015	2015-08-14 12:53:03	14:53:03	kobieta	2.0.10.92	3	3	1	1																							d	{SPACE}		no	BlockProc1		BlockList									25	Cued	l	color_blue.png		-1	14	291328	160																								25	prime_right.png	1	290988	0	0	13	1	290988	1	290988	0	290987	20	0	-1	289488	290987	290987	0		TrialProc1	right	0		0	10	291298	-291298		0	0	TrialList1	target_right.png	1	l	-1	4	291038	260	l	276	291314												4	1	25				comp			150
1 ver1_main_procedure	29	1	27	<?xml version="1.0"?>\n<Clock xmlns:dt="urn:schemas-microsoft-com:datatypes"><Description dt:dt="string">E-Prime Primary Realtime Clock</Description><StartTime><Timestamp dt:dt="int">0</Timestamp><DateUtc dt:dt="string">2015-08-14T12:53:02Z</DateUtc></StartTime><FrequencyChanges><FrequencyChange><Frequency dt:dt="r8">2612304</Frequency><Timestamp dt:dt="r8">43639325370</Timestamp><Current dt:dt="r8">0</Current><DateUtc dt:dt="string">2015-08-14T12:53:02Z</DateUtc></FrequencyChange></FrequencyChanges></Clock>\n	1 ver1_main_procedure-29-1	99.939	1.0.0.880	1	nw	690182894	prawa	1	2.0.10.182	08-14-2015	2015-08-14 12:53:03	14:53:03	kobieta	2.0.10.92	3	3	1	1																							d	{SPACE}		no	BlockProc1		BlockList									26	Cued	l	color_blue.png		-1	8	293699	160																								75	prime_right.png	0	293299	0	0	13	0	293299	0	293299	1	293299	20	0	-1	291800	293299	293298	0		TrialProc1	right	0		0	10	293609	-293609		0	0	TrialList1	target_right.png	1	l	-1	3	293349	260	l	341	293690												4	1	26				comp			150
1 ver1_main_procedure	29	1	27	<?xml version="1.0"?>\n<Clock xmlns:dt="urn:schemas-microsoft-com:datatypes"><Description dt:dt="string">E-Prime Primary Realtime Clock</Description><StartTime><Timestamp dt:dt="int">0</Timestamp><DateUtc dt:dt="string">2015-08-14T12:53:02Z</DateUtc></StartTime><FrequencyChanges><FrequencyChange><Frequency dt:dt="r8">2612304</Frequency><Timestamp dt:dt="r8">43639325370</Timestamp><Current dt:dt="r8">0</Current><DateUtc dt:dt="string">2015-08-14T12:53:02Z</DateUtc></FrequencyChange></FrequencyChanges></Clock>\n	1 ver1_main_procedure-29-1	99.939	1.0.0.880	1	nw	690182894	prawa	1	2.0.10.182	08-14-2015	2015-08-14 12:53:03	14:53:03	kobieta	2.0.10.92	3	3	1	1																							d	{SPACE}		no	BlockProc1		BlockList									27	Free	dl	color_yellow.png		-1	8	296171	460																			2					25	prime_right.png	0	295670	0	0	13	0	295670	0	295670	1	295670	20	0	-1	294171	295670	295669	0	prime_right.png	TrialProc1	right	0		1	10	295980	-295980		0	0	TrialList1	target_both.png	0	dl	-1	3	295720	260	d	442	296162												11	1	27				neut			450
1 ver1_main_procedure	29	1	27	<?xml version="1.0"?>\n<Clock xmlns:dt="urn:schemas-microsoft-com:datatypes"><Description dt:dt="string">E-Prime Primary Realtime Clock</Description><StartTime><Timestamp dt:dt="int">0</Timestamp><DateUtc dt:dt="string">2015-08-14T12:53:02Z</DateUtc></StartTime><FrequencyChanges><FrequencyChange><Frequency dt:dt="r8">2612304</Frequency><Timestamp dt:dt="r8">43639325370</Timestamp><Current dt:dt="r8">0</Current><DateUtc dt:dt="string">2015-08-14T12:53:02Z</DateUtc></FrequencyChange></FrequencyChanges></Clock>\n	1 ver1_main_procedure-29-1	99.939	1.0.0.880	1	nw	690182894	prawa	1	2.0.10.182	08-14-2015	2015-08-14 12:53:03	14:53:03	kobieta	2.0.10.92	3	3	1	1																							d	{SPACE}		no	BlockProc1		BlockList									28	Cued	d	color_purple.png		-1	11	298862	310																								75	prime_left.png	0	298442	0	0	13	0	298442	0	298442	1	298442	20	0	-1	296943	298442	298441	0		TrialProc1	left	0		0	10	298752	-298752		0	0	TrialList1	target_left.png	1	d	-1	3	298492	260	d	358	298850												1	1	28				comp			300
1 ver1_main_procedure	29	1	27	<?xml version="1.0"?>\n<Clock xmlns:dt="urn:schemas-microsoft-com:datatypes"><Description dt:dt="string">E-Prime Primary Realtime Clock</Description><StartTime><Timestamp dt:dt="int">0</Timestamp><DateUtc dt:dt="string">2015-08-14T12:53:02Z</DateUtc></StartTime><FrequencyChanges><FrequencyChange><Frequency dt:dt="r8">2612304</Frequency><Timestamp dt:dt="r8">43639325370</Timestamp><Current dt:dt="r8">0</Current><DateUtc dt:dt="string">2015-08-14T12:53:02Z</DateUtc></FrequencyChange></FrequencyChanges></Clock>\n	1 ver1_main_procedure-29-1	99.939	1.0.0.880	1	nw	690182894	prawa	1	2.0.10.182	08-14-2015	2015-08-14 12:53:03	14:53:03	kobieta	2.0.10.92	3	3	1	1																							d	{SPACE}		no	BlockProc1		BlockList									29	Cued	l	color_green.png		-1	13	301344	160																			1					75	prime_left.png	1	300984	0	0	13	1	300984	1	300984	0	300983	20	0	-1	299484	300983	300983	0	prime_left.png	TrialProc1	right	0		0	11	301294	-301294		0	0	TrialList1	target_right.png	1	l	-1	3	301033	261	l	297	301330												5	1	29				neut			150
1 ver1_main_procedure	29	1	27	<?xml version="1.0"?>\n<Clock xmlns:dt="urn:schemas-microsoft-com:datatypes"><Description dt:dt="string">E-Prime Primary Realtime Clock</Description><StartTime><Timestamp dt:dt="int">0</Timestamp><DateUtc dt:dt="string">2015-08-14T12:53:02Z</DateUtc></StartTime><FrequencyChanges><FrequencyChange><Frequency dt:dt="r8">2612304</Frequency><Timestamp dt:dt="r8">43639325370</Timestamp><Current dt:dt="r8">0</Current><DateUtc dt:dt="string">2015-08-14T12:53:02Z</DateUtc></FrequencyChange></FrequencyChanges></Clock>\n	1 ver1_main_procedure-29-1	99.939	1.0.0.880	1	nw	690182894	prawa	1	2.0.10.182	08-14-2015	2015-08-14 12:53:03	14:53:03	kobieta	2.0.10.92	3	3	1	1																							d	{SPACE}		no	BlockProc1		BlockList									30	Cued	d	color_yellow.png		-1	6	303665	310																			2					25	prime_right.png	0	303315	0	0	13	0	303315	0	303315	1	303315	20	0	-1	301816	303315	303314	0	prime_right.png	TrialProc1	left	0		0	10	303625	-303625		0	0	TrialList1	target_left.png	1	d	-1	3	303365	260	d	293	303658												2	1	30				neut			300
1 ver1_main_procedure	29	1	27	<?xml version="1.0"?>\n<Clock xmlns:dt="urn:schemas-microsoft-com:datatypes"><Description dt:dt="string">E-Prime Primary Realtime Clock</Description><StartTime><Timestamp dt:dt="int">0</Timestamp><DateUtc dt:dt="string">2015-08-14T12:53:02Z</DateUtc></StartTime><FrequencyChanges><FrequencyChange><Frequency dt:dt="r8">2612304</Frequency><Timestamp dt:dt="r8">43639325370</Timestamp><Current dt:dt="r8">0</Current><DateUtc dt:dt="string">2015-08-14T12:53:02Z</DateUtc></FrequencyChange></FrequencyChanges></Clock>\n	1 ver1_main_procedure-29-1	99.939	1.0.0.880	1	nw	690182894	prawa	1	2.0.10.182	08-14-2015	2015-08-14 12:53:03	14:53:03	kobieta	2.0.10.92	3	3	1	1																							d	{SPACE}		no	BlockProc1		BlockList									31	Cued	l	color_blue.png		-1	9	306156	461																								75	prime_right.png	0	305786	0	0	13	0	305786	0	305786	1	305786	20	0	-1	304287	305786	305785	0		TrialProc1	right	0		1	10	306096	-306096		0	0	TrialList1	target_right.png	1	l	-1	3	305836	260	l	310	306146												4	1	31				comp			450
1 ver1_main_procedure	29	1	27	<?xml version="1.0"?>\n<Clock xmlns:dt="urn:schemas-microsoft-com:datatypes"><Description dt:dt="string">E-Prime Primary Realtime Clock</Description><StartTime><Timestamp dt:dt="int">0</Timestamp><DateUtc dt:dt="string">2015-08-14T12:53:02Z</DateUtc></StartTime><FrequencyChanges><FrequencyChange><Frequency dt:dt="r8">2612304</Frequency><Timestamp dt:dt="r8">43639325370</Timestamp><Current dt:dt="r8">0</Current><DateUtc dt:dt="string">2015-08-14T12:53:02Z</DateUtc></FrequencyChange></FrequencyChanges></Clock>\n	1 ver1_main_procedure-29-1	99.939	1.0.0.880	1	nw	690182894	prawa	1	2.0.10.182	08-14-2015	2015-08-14 12:53:03	14:53:03	kobieta	2.0.10.92	3	3	1	1																							d	{SPACE}		no	BlockProc1		BlockList									32	Cued	l	color_orange.png		-1	11	308758	160																								75	prime_left.png	0	308428	0	0	13	0	308428	0	308428	1	308428	20	0	-1	306929	308428	308427	0		TrialProc1	right	0		0	10	308738	-308738		0	0	TrialList1	target_right.png	1	l	-1	3	308478	260	l	268	308746												6	1	32				incomp			150
1 ver1_main_procedure	29	1	27	<?xml version="1.0"?>\n<Clock xmlns:dt="urn:schemas-microsoft-com:datatypes"><Description dt:dt="string">E-Prime Primary Realtime Clock</Description><StartTime><Timestamp dt:dt="int">0</Timestamp><DateUtc dt:dt="string">2015-08-14T12:53:02Z</DateUtc></StartTime><FrequencyChanges><FrequencyChange><Frequency dt:dt="r8">2612304</Frequency><Timestamp dt:dt="r8">43639325370</Timestamp><Current dt:dt="r8">0</Current><DateUtc dt:dt="string">2015-08-14T12:53:02Z</DateUtc></FrequencyChange></FrequencyChanges></Clock>\n	1 ver1_main_procedure-29-1	99.939	1.0.0.880	1	nw	690182894	prawa	1	2.0.10.182	08-14-2015	2015-08-14 12:53:03	14:53:03	kobieta	2.0.10.92	3	3	1	1																							d	{SPACE}		no	BlockProc1		BlockList									33	Free	dl	color_blue.png		-1	12	311039	461																								75	prime_right.png	0	310729	0	0	13	0	310729	0	310729	1	310729	20	0	-1	309230	310729	310728	0		TrialProc1	left	0		0	0	0	0		0	0	TrialList1	target_both.png	0	dl	-999999	3	310779	0	l	247	311026												9	1	33				incomp			450
1 ver1_main_procedure	29	1	27	<?xml version="1.0"?>\n<Clock xmlns:dt="urn:schemas-microsoft-com:datatypes"><Description dt:dt="string">E-Prime Primary Realtime Clock</Description><StartTime><Timestamp dt:dt="int">0</Timestamp><DateUtc dt:dt="string">2015-08-14T12:53:02Z</DateUtc></StartTime><FrequencyChanges><FrequencyChange><Frequency dt:dt="r8">2612304</Frequency><Timestamp dt:dt="r8">43639325370</Timestamp><Current dt:dt="r8">0</Current><DateUtc dt:dt="string">2015-08-14T12:53:02Z</DateUtc></FrequencyChange></FrequencyChanges></Clock>\n	1 ver1_main_procedure-29-1	99.939	1.0.0.880	1	nw	690182894	prawa	1	2.0.10.182	08-14-2015	2015-08-14 12:53:03	14:53:03	kobieta	2.0.10.92	3	3	1	1																							d	{SPACE}		no	BlockProc1		BlockList									34	Free	dl	color_yellow.png		-1	14	314001	310																			1					75	prime_left.png	0	313311	0	0	13	0	313311	0	313311	1	313311	20	0	-1	311812	313311	313310	0	prime_left.png	TrialProc1	left	0		0	10	313621	-313621		0	0	TrialList1	target_both.png	0	dl	-1	3	313361	260	d	625	313986												8	1	34				neut			300
1 ver1_main_procedure	29	1	27	<?xml version="1.0"?>\n<Clock xmlns:dt="urn:schemas-microsoft-com:datatypes"><Description dt:dt="string">E-Prime Primary Realtime Clock</Description><StartTime><Timestamp dt:dt="int">0</Timestamp><DateUtc dt:dt="string">2015-08-14T12:53:02Z</DateUtc></StartTime><FrequencyChanges><FrequencyChange><Frequency dt:dt="r8">2612304</Frequency><Timestamp dt:dt="r8">43639325370</Timestamp><Current dt:dt="r8">0</Current><DateUtc dt:dt="string">2015-08-14T12:53:02Z</DateUtc></FrequencyChange></FrequencyChanges></Clock>\n	1 ver1_main_procedure-29-1	99.939	1.0.0.880	1	nw	690182894	prawa	1	2.0.10.182	08-14-2015	2015-08-14 12:53:03	14:53:03	kobieta	2.0.10.92	3	3	1	1																							d	{SPACE}		no	BlockProc1		BlockList									35	Free	dl	color_green.png		-1	12	316663	310																			2					75	prime_right.png	0	316123	0	0	13	0	316123	0	316123	1	316123	19	0	-1	314623	316123	316122	0	prime_right.png	TrialProc1	right	0		0	11	316433	-316433		0	0	TrialList1	target_both.png	0	dl	-1	3	316172	261	l	478	316650												11	1	35				neut			300
1 ver1_main_procedure	29	1	27	<?xml version="1.0"?>\n<Clock xmlns:dt="urn:schemas-microsoft-com:datatypes"><Description dt:dt="string">E-Prime Primary Realtime Clock</Description><StartTime><Timestamp dt:dt="int">0</Timestamp><DateUtc dt:dt="string">2015-08-14T12:53:02Z</DateUtc></StartTime><FrequencyChanges><FrequencyChange><Frequency dt:dt="r8">2612304</Frequency><Timestamp dt:dt="r8">43639325370</Timestamp><Current dt:dt="r8">0</Current><DateUtc dt:dt="string">2015-08-14T12:53:02Z</DateUtc></FrequencyChange></FrequencyChanges></Clock>\n	1 ver1_main_procedure-29-1	99.939	1.0.0.880	1	nw	690182894	prawa	1	2.0.10.182	08-14-2015	2015-08-14 12:53:03	14:53:03	kobieta	2.0.10.92	3	3	1	1																							d	{SPACE}		no	BlockProc1		BlockList									36	Free	dl	color_red.png		-1	13	319224	461																								75	prime_right.png	0	318784	0	0	13	0	318784	0	318784	1	318784	20	0	-1	317285	318784	318783	0		TrialProc1	left	0		1	10	319094	-319094		0	0	TrialList1	target_both.png	0	dl	-1	3	318834	260	d	376	319210												9	1	36				incomp			450
1 ver1_main_procedure	29	1	27	<?xml version="1.0"?>\n<Clock xmlns:dt="urn:schemas-microsoft-com:datatypes"><Description dt:dt="string">E-Prime Primary Realtime Clock</Description><StartTime><Timestamp dt:dt="int">0</Timestamp><DateUtc dt:dt="string">2015-08-14T12:53:02Z</DateUtc></StartTime><FrequencyChanges><FrequencyChange><Frequency dt:dt="r8">2612304</Frequency><Timestamp dt:dt="r8">43639325370</Timestamp><Current dt:dt="r8">0</Current><DateUtc dt:dt="string">2015-08-14T12:53:02Z</DateUtc></FrequencyChange></FrequencyChanges></Clock>\n	1 ver1_main_procedure-29-1	99.939	1.0.0.880	1	nw	690182894	prawa	1	2.0.10.182	08-14-2015	2015-08-14 12:53:03	14:53:03	kobieta	2.0.10.92	3	3	1	1																							d	{SPACE}		no	BlockProc1		BlockList									37	Cued	d	color_purple.png		-1	7	321946	160																								25	prime_left.png	0	321496	0	0	13	0	321496	0	321496	1	321496	20	0	-1	319996	321496	321495	0		TrialProc1	left	0		0	10	321806	-321806		0	0	TrialList1	target_left.png	1	d	-1	3	321546	260	d	392	321938												1	1	37				comp			150
1 ver1_main_procedure	29	1	27	<?xml version="1.0"?>\n<Clock xmlns:dt="urn:schemas-microsoft-com:datatypes"><Description dt:dt="string">E-Prime Primary Realtime Clock</Description><StartTime><Timestamp dt:dt="int">0</Timestamp><DateUtc dt:dt="string">2015-08-14T12:53:02Z</DateUtc></StartTime><FrequencyChanges><FrequencyChange><Frequency dt:dt="r8">2612304</Frequency><Timestamp dt:dt="r8">43639325370</Timestamp><Current dt:dt="r8">0</Current><DateUtc dt:dt="string">2015-08-14T12:53:02Z</DateUtc></FrequencyChange></FrequencyChanges></Clock>\n	1 ver1_main_procedure-29-1	99.939	1.0.0.880	1	nw	690182894	prawa	1	2.0.10.182	08-14-2015	2015-08-14 12:53:03	14:53:03	kobieta	2.0.10.92	3	3	1	1																							d	{SPACE}		no	BlockProc1		BlockList									38	Free	dl	color_orange.png		-1	14	324377	311																								25	prime_left.png	0	323917	0	0	13	0	323917	0	323917	1	323917	20	0	-1	322418	323917	323916	0		TrialProc1	right	0		0	10	324227	-324227		0	0	TrialList1	target_both.png	0	dl	-1	3	323967	260	l	396	324363												12	1	38				incomp			300
1 ver1_main_procedure	29	1	27	<?xml version="1.0"?>\n<Clock xmlns:dt="urn:schemas-microsoft-com:datatypes"><Description dt:dt="string">E-Prime Primary Realtime Clock</Description><StartTime><Timestamp dt:dt="int">0</Timestamp><DateUtc dt:dt="string">2015-08-14T12:53:02Z</DateUtc></StartTime><FrequencyChanges><FrequencyChange><Frequency dt:dt="r8">2612304</Frequency><Timestamp dt:dt="r8">43639325370</Timestamp><Current dt:dt="r8">0</Current><DateUtc dt:dt="string">2015-08-14T12:53:02Z</DateUtc></FrequencyChange></FrequencyChanges></Clock>\n	1 ver1_main_procedure-29-1	99.939	1.0.0.880	1	nw	690182894	prawa	1	2.0.10.182	08-14-2015	2015-08-14 12:53:03	14:53:03	kobieta	2.0.10.92	3	3	1	1																							d	{SPACE}		no	BlockProc1		BlockList									39	Cued	l	color_blue.png		-1	8	326939	460																								75	prime_right.png	0	326499	0	0	13	0	326499	0	326499	1	326499	20	0	-1	324999	326499	326498	0		TrialProc1	right	0		0	10	326809	-326809		0	0	TrialList1	target_right.png	1	l	-1	3	326549	260	l	382	326931												4	1	39				comp			450
1 ver1_main_procedure	29	1	27	<?xml version="1.0"?>\n<Clock xmlns:dt="urn:schemas-microsoft-com:datatypes"><Description dt:dt="string">E-Prime Primary Realtime Clock</Description><StartTime><Timestamp dt:dt="int">0</Timestamp><DateUtc dt:dt="string">2015-08-14T12:53:02Z</DateUtc></StartTime><FrequencyChanges><FrequencyChange><Frequency dt:dt="r8">2612304</Frequency><Timestamp dt:dt="r8">43639325370</Timestamp><Current dt:dt="r8">0</Current><DateUtc dt:dt="string">2015-08-14T12:53:02Z</DateUtc></FrequencyChange></FrequencyChanges></Clock>\n	1 ver1_main_procedure-29-1	99.939	1.0.0.880	1	nw	690182894	prawa	1	2.0.10.182	08-14-2015	2015-08-14 12:53:03	14:53:03	kobieta	2.0.10.92	3	3	1	1																							d	{SPACE}		no	BlockProc1		BlockList									40	Cued	d	color_yellow.png		-1	11	329470	160																			1					75	prime_left.png	0	329210	0	0	13	0	329210	0	329210	1	329210	20	0	-1	327711	329210	329209	0	prime_left.png	TrialProc1	left	0		0	0	0	0		0	0	TrialList1	target_left.png	1	d	-999999	3	329260	0	d	199	329459												2	1	40				neut			150
1 ver1_main_procedure	29	1	27	<?xml version="1.0"?>\n<Clock xmlns:dt="urn:schemas-microsoft-com:datatypes"><Description dt:dt="string">E-Prime Primary Realtime Clock</Description><StartTime><Timestamp dt:dt="int">0</Timestamp><DateUtc dt:dt="string">2015-08-14T12:53:02Z</DateUtc></StartTime><FrequencyChanges><FrequencyChange><Frequency dt:dt="r8">2612304</Frequency><Timestamp dt:dt="r8">43639325370</Timestamp><Current dt:dt="r8">0</Current><DateUtc dt:dt="string">2015-08-14T12:53:02Z</DateUtc></FrequencyChange></FrequencyChanges></Clock>\n	1 ver1_main_procedure-29-1	99.939	1.0.0.880	1	nw	690182894	prawa	1	2.0.10.182	08-14-2015	2015-08-14 12:53:03	14:53:03	kobieta	2.0.10.92	3	3	1	1																							d	{SPACE}		no	BlockProc1		BlockList									41	Cued	d	color_purple.png		-1	9	331852	160																								75	prime_left.png	0	331442	0	0	13	0	331442	0	331442	1	331442	20	0	-1	329942	331442	331441	0		TrialProc1	left	0		0	10	331752	-331752		0	0	TrialList1	target_left.png	1	d	-1	3	331492	260	d	351	331843												1	1	41				comp			150
1 ver1_main_procedure	29	1	27	<?xml version="1.0"?>\n<Clock xmlns:dt="urn:schemas-microsoft-com:datatypes"><Description dt:dt="string">E-Prime Primary Realtime Clock</Description><StartTime><Timestamp dt:dt="int">0</Timestamp><DateUtc dt:dt="string">2015-08-14T12:53:02Z</DateUtc></StartTime><FrequencyChanges><FrequencyChange><Frequency dt:dt="r8">2612304</Frequency><Timestamp dt:dt="r8">43639325370</Timestamp><Current dt:dt="r8">0</Current><DateUtc dt:dt="string">2015-08-14T12:53:02Z</DateUtc></FrequencyChange></FrequencyChanges></Clock>\n	1 ver1_main_procedure-29-1	99.939	1.0.0.880	1	nw	690182894	prawa	1	2.0.10.182	08-14-2015	2015-08-14 12:53:03	14:53:03	kobieta	2.0.10.92	3	3	1	1																							d	{SPACE}		no	BlockProc1		BlockList									42	Cued	d	color_red.png		-1	12	334223	310																								25	prime_right.png	0	333823	0	0	13	0	333823	0	333823	1	333823	20	0	-1	332324	333823	333822	0		TrialProc1	left	0		0	10	334133	-334133		0	0	TrialList1	target_left.png	1	d	-1	3	333873	260	d	338	334211												3	1	42				incomp			300
1 ver1_main_procedure	29	1	27	<?xml version="1.0"?>\n<Clock xmlns:dt="urn:schemas-microsoft-com:datatypes"><Description dt:dt="string">E-Prime Primary Realtime Clock</Description><StartTime><Timestamp dt:dt="int">0</Timestamp><DateUtc dt:dt="string">2015-08-14T12:53:02Z</DateUtc></StartTime><FrequencyChanges><FrequencyChange><Frequency dt:dt="r8">2612304</Frequency><Timestamp dt:dt="r8">43639325370</Timestamp><Current dt:dt="r8">0</Current><DateUtc dt:dt="string">2015-08-14T12:53:02Z</DateUtc></FrequencyChange></FrequencyChanges></Clock>\n	1 ver1_main_procedure-29-1	99.939	1.0.0.880	1	nw	690182894	prawa	1	2.0.10.182	08-14-2015	2015-08-14 12:53:03	14:53:03	kobieta	2.0.10.92	3	3	1	1																							d	{SPACE}		no	BlockProc1		BlockList									43	Cued	d	color_yellow.png		-1	12	336775	160																			2					75	prime_right.png	1	336345	0	0	13	1	336345	1	336345	0	336344	20	0	-1	334845	336344	336344	0	prime_right.png	TrialProc1	left	0		0	10	336655	-336655		0	0	TrialList1	target_left.png	1	d	-1	4	336395	260	d	368	336763												2	1	43				neut			150
1 ver1_main_procedure	29	1	27	<?xml version="1.0"?>\n<Clock xmlns:dt="urn:schemas-microsoft-com:datatypes"><Description dt:dt="string">E-Prime Primary Realtime Clock</Description><StartTime><Timestamp dt:dt="int">0</Timestamp><DateUtc dt:dt="string">2015-08-14T12:53:02Z</DateUtc></StartTime><FrequencyChanges><FrequencyChange><Frequency dt:dt="r8">2612304</Frequency><Timestamp dt:dt="r8">43639325370</Timestamp><Current dt:dt="r8">0</Current><DateUtc dt:dt="string">2015-08-14T12:53:02Z</DateUtc></FrequencyChange></FrequencyChanges></Clock>\n	1 ver1_main_procedure-29-1	99.939	1.0.0.880	1	nw	690182894	prawa	1	2.0.10.182	08-14-2015	2015-08-14 12:53:03	14:53:03	kobieta	2.0.10.92	3	3	1	1																							d	{SPACE}		no	BlockProc1		BlockList									44	Free	dl	color_blue.png		-1	12	339216	160																								75	prime_right.png	0	338746	0	0	13	0	338746	0	338746	1	338746	20	0	-1	337247	338746	338745	0		TrialProc1	right	0		0	10	339056	-339056		0	0	TrialList1	target_both.png	0	dl	-1	3	338796	260	l	407	339203												10	1	44				comp			150
1 ver1_main_procedure	29	1	27	<?xml version="1.0"?>\n<Clock xmlns:dt="urn:schemas-microsoft-com:datatypes"><Description dt:dt="string">E-Prime Primary Realtime Clock</Description><StartTime><Timestamp dt:dt="int">0</Timestamp><DateUtc dt:dt="string">2015-08-14T12:53:02Z</DateUtc></StartTime><FrequencyChanges><FrequencyChange><Frequency dt:dt="r8">2612304</Frequency><Timestamp dt:dt="r8">43639325370</Timestamp><Current dt:dt="r8">0</Current><DateUtc dt:dt="string">2015-08-14T12:53:02Z</DateUtc></FrequencyChange></FrequencyChanges></Clock>\n	1 ver1_main_procedure-29-1	99.939	1.0.0.880	1	nw	690182894	prawa	1	2.0.10.182	08-14-2015	2015-08-14 12:53:03	14:53:03	kobieta	2.0.10.92	3	3	1	1																							d	{SPACE}		no	BlockProc1		BlockList									45	Cued	d	color_yellow.png		-1	14	341538	310																			1					75	prime_left.png	0	341187	0	0	13	1	341188	1	341188	1	341187	20	0	-1	339688	341187	341186	0	prime_left.png	TrialProc1	left	0		0	11	341498	-341498		0	0	TrialList1	target_left.png	1	d	-1	3	341237	261	d	286	341523												2	1	45				neut			300
1 ver1_main_procedure	29	1	27	<?xml version="1.0"?>\n<Clock xmlns:dt="urn:schemas-microsoft-com:datatypes"><Description dt:dt="string">E-Prime Primary Realtime Clock</Description><StartTime><Timestamp dt:dt="int">0</Timestamp><DateUtc dt:dt="string">2015-08-14T12:53:02Z</DateUtc></StartTime><FrequencyChanges><FrequencyChange><Frequency dt:dt="r8">2612304</Frequency><Timestamp dt:dt="r8">43639325370</Timestamp><Current dt:dt="r8">0</Current><DateUtc dt:dt="string">2015-08-14T12:53:02Z</DateUtc></FrequencyChange></FrequencyChanges></Clock>\n	1 ver1_main_procedure-29-1	99.939	1.0.0.880	1	nw	690182894	prawa	1	2.0.10.182	08-14-2015	2015-08-14 12:53:03	14:53:03	kobieta	2.0.10.92	3	3	1	1																							d	{SPACE}		no	BlockProc1		BlockList									46	Cued	d	color_red.png		-1	11	344079	310																								75	prime_right.png	0	343659	0	0	13	0	343659	0	343659	1	343659	20	0	-1	342160	343659	343658	0		TrialProc1	left	0		0	10	343969	-343969		0	0	TrialList1	target_left.png	1	d	-1	3	343709	260	d	358	344067												3	1	46				incomp			300
1 ver1_main_procedure	29	1	27	<?xml version="1.0"?>\n<Clock xmlns:dt="urn:schemas-microsoft-com:datatypes"><Description dt:dt="string">E-Prime Primary Realtime Clock</Description><StartTime><Timestamp dt:dt="int">0</Timestamp><DateUtc dt:dt="string">2015-08-14T12:53:02Z</DateUtc></StartTime><FrequencyChanges><FrequencyChange><Frequency dt:dt="r8">2612304</Frequency><Timestamp dt:dt="r8">43639325370</Timestamp><Current dt:dt="r8">0</Current><DateUtc dt:dt="string">2015-08-14T12:53:02Z</DateUtc></FrequencyChange></FrequencyChanges></Clock>\n	1 ver1_main_procedure-29-1	99.939	1.0.0.880	1	nw	690182894	prawa	1	2.0.10.182	08-14-2015	2015-08-14 12:53:03	14:53:03	kobieta	2.0.10.92	3	3	1	1																							d	{SPACE}		no	BlockProc1		BlockList									47	Cued	d	color_yellow.png		-1	9	346661	310																			2					25	prime_right.png	0	346200	0	0	13	0	346201	0	346200	1	346200	20	0	-1	344701	346200	346199	0	prime_right.png	TrialProc1	left	0		0	11	346511	-346511		0	0	TrialList1	target_left.png	1	d	-1	3	346250	261	d	401	346651												2	1	47				neut			300
1 ver1_main_procedure	29	1	27	<?xml version="1.0"?>\n<Clock xmlns:dt="urn:schemas-microsoft-com:datatypes"><Description dt:dt="string">E-Prime Primary Realtime Clock</Description><StartTime><Timestamp dt:dt="int">0</Timestamp><DateUtc dt:dt="string">2015-08-14T12:53:02Z</DateUtc></StartTime><FrequencyChanges><FrequencyChange><Frequency dt:dt="r8">2612304</Frequency><Timestamp dt:dt="r8">43639325370</Timestamp><Current dt:dt="r8">0</Current><DateUtc dt:dt="string">2015-08-14T12:53:02Z</DateUtc></FrequencyChange></FrequencyChanges></Clock>\n	1 ver1_main_procedure-29-1	99.939	1.0.0.880	1	nw	690182894	prawa	1	2.0.10.182	08-14-2015	2015-08-14 12:53:03	14:53:03	kobieta	2.0.10.92	3	3	1	1																							d	{SPACE}		no	BlockProc1		BlockList									48	Cued	l	color_green.png		-1	12	349152	460																			1					25	prime_left.png	0	348782	0	0	13	0	348782	0	348782	1	348782	20	0	-1	347283	348782	348781	0	prime_left.png	TrialProc1	right	0		0	10	349092	-349092		0	0	TrialList1	target_right.png	1	l	-1	3	348832	260	l	307	349139												5	1	48				neut			450
1 ver1_main_procedure	29	1	27	<?xml version="1.0"?>\n<Clock xmlns:dt="urn:schemas-microsoft-com:datatypes"><Description dt:dt="string">E-Prime Primary Realtime Clock</Description><StartTime><Timestamp dt:dt="int">0</Timestamp><DateUtc dt:dt="string">2015-08-14T12:53:02Z</DateUtc></StartTime><FrequencyChanges><FrequencyChange><Frequency dt:dt="r8">2612304</Frequency><Timestamp dt:dt="r8">43639325370</Timestamp><Current dt:dt="r8">0</Current><DateUtc dt:dt="string">2015-08-14T12:53:02Z</DateUtc></FrequencyChange></FrequencyChanges></Clock>\n	1 ver1_main_procedure-29-1	99.939	1.0.0.880	1	nw	690182894	prawa	1	2.0.10.182	08-14-2015	2015-08-14 12:53:03	14:53:03	kobieta	2.0.10.92	3	3	1	1																							d	{SPACE}		no	BlockProc1		BlockList									49	Cued	l	color_orange.png		-1	12	351984	460																								75	prime_left.png	1	351424	0	0	13	1	351424	1	351424	0	351423	20	0	-1	349924	351423	351423	0		TrialProc1	right	0		0	11	351734	-351734		0	0	TrialList1	target_right.png	1	l	-1	3	351473	261	l	498	351971												6	1	49				incomp			450
1 ver1_main_procedure	29	1	27	<?xml version="1.0"?>\n<Clock xmlns:dt="urn:schemas-microsoft-com:datatypes"><Description dt:dt="string">E-Prime Primary Realtime Clock</Description><StartTime><Timestamp dt:dt="int">0</Timestamp><DateUtc dt:dt="string">2015-08-14T12:53:02Z</DateUtc></StartTime><FrequencyChanges><FrequencyChange><Frequency dt:dt="r8">2612304</Frequency><Timestamp dt:dt="r8">43639325370</Timestamp><Current dt:dt="r8">0</Current><DateUtc dt:dt="string">2015-08-14T12:53:02Z</DateUtc></FrequencyChange></FrequencyChanges></Clock>\n	1 ver1_main_procedure-29-1	99.939	1.0.0.880	1	nw	690182894	prawa	1	2.0.10.182	08-14-2015	2015-08-14 12:53:03	14:53:03	kobieta	2.0.10.92	3	3	1	1																							d	{SPACE}		no	BlockProc1		BlockList									50	Free	dl	color_green.png		-1	9	354605	160																			2					25	prime_right.png	0	354255	0	0	13	0	354255	0	354255	1	354255	20	0	-1	352756	354255	354254	0	prime_right.png	TrialProc1	right	0		1	10	354565	-354565		0	0	TrialList1	target_both.png	0	dl	-1	3	354305	260	l	290	354595												11	1	50				neut			150
1 ver1_main_procedure	29	1	27	<?xml version="1.0"?>\n<Clock xmlns:dt="urn:schemas-microsoft-com:datatypes"><Description dt:dt="string">E-Prime Primary Realtime Clock</Description><StartTime><Timestamp dt:dt="int">0</Timestamp><DateUtc dt:dt="string">2015-08-14T12:53:02Z</DateUtc></StartTime><FrequencyChanges><FrequencyChange><Frequency dt:dt="r8">2612304</Frequency><Timestamp dt:dt="r8">43639325370</Timestamp><Current dt:dt="r8">0</Current><DateUtc dt:dt="string">2015-08-14T12:53:02Z</DateUtc></FrequencyChange></FrequencyChanges></Clock>\n	1 ver1_main_procedure-29-1	99.939	1.0.0.880	1	nw	690182894	prawa	1	2.0.10.182	08-14-2015	2015-08-14 12:53:03	14:53:03	kobieta	2.0.10.92	3	3	1	1																							d	{SPACE}		no	BlockProc1		BlockList									51	Cued	d	color_red.png		-1	7	356947	310																								25	prime_right.png	1	356577	0	0	13	1	356577	1	356577	0	356576	21	0	-1	355077	356576	356576	0		TrialProc1	left	0		0	10	356887	-356887		0	0	TrialList1	target_left.png	1	d	-1	3	356627	260	d	312	356939												3	1	51				incomp			300
1 ver1_main_procedure	29	1	27	<?xml version="1.0"?>\n<Clock xmlns:dt="urn:schemas-microsoft-com:datatypes"><Description dt:dt="string">E-Prime Primary Realtime Clock</Description><StartTime><Timestamp dt:dt="int">0</Timestamp><DateUtc dt:dt="string">2015-08-14T12:53:02Z</DateUtc></StartTime><FrequencyChanges><FrequencyChange><Frequency dt:dt="r8">2612304</Frequency><Timestamp dt:dt="r8">43639325370</Timestamp><Current dt:dt="r8">0</Current><DateUtc dt:dt="string">2015-08-14T12:53:02Z</DateUtc></FrequencyChange></FrequencyChanges></Clock>\n	1 ver1_main_procedure-29-1	99.939	1.0.0.880	1	nw	690182894	prawa	1	2.0.10.182	08-14-2015	2015-08-14 12:53:03	14:53:03	kobieta	2.0.10.92	3	3	1	1																							d	{SPACE}		no	BlockProc1		BlockList									52	Cued	d	color_yellow.png		-1	6	359418	310																			1					25	prime_left.png	0	359068	0	0	13	0	359068	0	359068	1	359068	20	0	-1	357569	359068	359067	0	prime_left.png	TrialProc1	left	0		0	10	359378	-359378		0	0	TrialList1	target_left.png	1	d	-1	3	359118	260	d	293	359411												2	1	52				neut			300
1 ver1_main_procedure	29	1	27	<?xml version="1.0"?>\n<Clock xmlns:dt="urn:schemas-microsoft-com:datatypes"><Description dt:dt="string">E-Prime Primary Realtime Clock</Description><StartTime><Timestamp dt:dt="int">0</Timestamp><DateUtc dt:dt="string">2015-08-14T12:53:02Z</DateUtc></StartTime><FrequencyChanges><FrequencyChange><Frequency dt:dt="r8">2612304</Frequency><Timestamp dt:dt="r8">43639325370</Timestamp><Current dt:dt="r8">0</Current><DateUtc dt:dt="string">2015-08-14T12:53:02Z</DateUtc></FrequencyChange></FrequencyChanges></Clock>\n	1 ver1_main_procedure-29-1	99.939	1.0.0.880	1	nw	690182894	prawa	1	2.0.10.182	08-14-2015	2015-08-14 12:53:03	14:53:03	kobieta	2.0.10.92	3	3	1	1																							d	{SPACE}		no	BlockProc1		BlockList									53	Free	dl	color_blue.png		-1	8	362100	310																								25	prime_right.png	1	361540	0	0	13	1	361540	1	361540	0	361539	20	0	-1	360040	361539	361539	0		TrialProc1	left	0		0	11	361850	-361850		0	0	TrialList1	target_both.png	0	dl	-1	3	361589	261	l	502	362091												9	1	53				incomp			300
1 ver1_main_procedure	29	1	27	<?xml version="1.0"?>\n<Clock xmlns:dt="urn:schemas-microsoft-com:datatypes"><Description dt:dt="string">E-Prime Primary Realtime Clock</Description><StartTime><Timestamp dt:dt="int">0</Timestamp><DateUtc dt:dt="string">2015-08-14T12:53:02Z</DateUtc></StartTime><FrequencyChanges><FrequencyChange><Frequency dt:dt="r8">2612304</Frequency><Timestamp dt:dt="r8">43639325370</Timestamp><Current dt:dt="r8">0</Current><DateUtc dt:dt="string">2015-08-14T12:53:02Z</DateUtc></FrequencyChange></FrequencyChanges></Clock>\n	1 ver1_main_procedure-29-1	99.939	1.0.0.880	1	nw	690182894	prawa	1	2.0.10.182	08-14-2015	2015-08-14 12:53:03	14:53:03	kobieta	2.0.10.92	3	3	1	1																							d	{SPACE}		no	BlockProc1		BlockList									54	Cued	l	color_blue.png		-1	7	364611	461																								75	prime_right.png	0	364221	0	0	13	0	364221	0	364221	1	364221	20	0	-1	362722	364221	364220	0		TrialProc1	right	0		1	10	364531	-364531		0	0	TrialList1	target_right.png	1	l	-1	3	364271	260	l	332	364603												4	1	54				comp			450
1 ver1_main_procedure	29	1	27	<?xml version="1.0"?>\n<Clock xmlns:dt="urn:schemas-microsoft-com:datatypes"><Description dt:dt="string">E-Prime Primary Realtime Clock</Description><StartTime><Timestamp dt:dt="int">0</Timestamp><DateUtc dt:dt="string">2015-08-14T12:53:02Z</DateUtc></StartTime><FrequencyChanges><FrequencyChange><Frequency dt:dt="r8">2612304</Frequency><Timestamp dt:dt="r8">43639325370</Timestamp><Current dt:dt="r8">0</Current><DateUtc dt:dt="string">2015-08-14T12:53:02Z</DateUtc></FrequencyChange></FrequencyChanges></Clock>\n	1 ver1_main_procedure-29-1	99.939	1.0.0.880	1	nw	690182894	prawa	1	2.0.10.182	08-14-2015	2015-08-14 12:53:03	14:53:03	kobieta	2.0.10.92	3	3	1	1																							d	{SPACE}		no	BlockProc1		BlockList									55	Free	dl	color_red.png		-1	13	367433	310																								25	prime_right.png	0	366883	0	0	13	0	366883	0	366883	1	366883	20	0	-1	365383	366883	366882	0		TrialProc1	right	0		0	10	367193	-367193		0	0	TrialList1	target_both.png	0	dl	-1	3	366933	260	d	486	367419												10	1	55				comp			300
1 ver1_main_procedure	29	1	27	<?xml version="1.0"?>\n<Clock xmlns:dt="urn:schemas-microsoft-com:datatypes"><Description dt:dt="string">E-Prime Primary Realtime Clock</Description><StartTime><Timestamp dt:dt="int">0</Timestamp><DateUtc dt:dt="string">2015-08-14T12:53:02Z</DateUtc></StartTime><FrequencyChanges><FrequencyChange><Frequency dt:dt="r8">2612304</Frequency><Timestamp dt:dt="r8">43639325370</Timestamp><Current dt:dt="r8">0</Current><DateUtc dt:dt="string">2015-08-14T12:53:02Z</DateUtc></FrequencyChange></FrequencyChanges></Clock>\n	1 ver1_main_procedure-29-1	99.939	1.0.0.880	1	nw	690182894	prawa	1	2.0.10.182	08-14-2015	2015-08-14 12:53:03	14:53:03	kobieta	2.0.10.92	3	3	1	1																							d	{SPACE}		no	BlockProc1		BlockList									56	Free	dl	color_purple.png		-1	8	370004	311																								75	prime_left.png	0	369554	0	0	13	0	369554	0	369554	1	369554	20	0	-1	368055	369554	369553	0		TrialProc1	left	0		1	10	369864	-369864		0	0	TrialList1	target_both.png	0	dl	-1	3	369604	260	d	391	369995												7	1	56				comp			300
1 ver1_main_procedure	29	1	27	<?xml version="1.0"?>\n<Clock xmlns:dt="urn:schemas-microsoft-com:datatypes"><Description dt:dt="string">E-Prime Primary Realtime Clock</Description><StartTime><Timestamp dt:dt="int">0</Timestamp><DateUtc dt:dt="string">2015-08-14T12:53:02Z</DateUtc></StartTime><FrequencyChanges><FrequencyChange><Frequency dt:dt="r8">2612304</Frequency><Timestamp dt:dt="r8">43639325370</Timestamp><Current dt:dt="r8">0</Current><DateUtc dt:dt="string">2015-08-14T12:53:02Z</DateUtc></FrequencyChange></FrequencyChanges></Clock>\n	1 ver1_main_procedure-29-1	99.939	1.0.0.880	1	nw	690182894	prawa	1	2.0.10.182	08-14-2015	2015-08-14 12:53:03	14:53:03	kobieta	2.0.10.92	3	3	1	1																							d	{SPACE}		no	BlockProc1		BlockList									57	Cued	l	color_blue.png		-1	12	372456	310																								75	prime_right.png	0	372126	0	0	13	0	372126	0	372126	1	372126	20	0	-1	370627	372126	372125	0		TrialProc1	right	0		0	10	372436	-372436		0	0	TrialList1	target_right.png	1	l	-1	3	372176	260	l	267	372443												4	1	57				comp			300
1 ver1_main_procedure	29	1	27	<?xml version="1.0"?>\n<Clock xmlns:dt="urn:schemas-microsoft-com:datatypes"><Description dt:dt="string">E-Prime Primary Realtime Clock</Description><StartTime><Timestamp dt:dt="int">0</Timestamp><DateUtc dt:dt="string">2015-08-14T12:53:02Z</DateUtc></StartTime><FrequencyChanges><FrequencyChange><Frequency dt:dt="r8">2612304</Frequency><Timestamp dt:dt="r8">43639325370</Timestamp><Current dt:dt="r8">0</Current><DateUtc dt:dt="string">2015-08-14T12:53:02Z</DateUtc></FrequencyChange></FrequencyChanges></Clock>\n	1 ver1_main_procedure-29-1	99.939	1.0.0.880	1	nw	690182894	prawa	1	2.0.10.182	08-14-2015	2015-08-14 12:53:03	14:53:03	kobieta	2.0.10.92	3	3	1	1																							d	{SPACE}		no	BlockProc1		BlockList									58	Cued	l	color_green.png		-1	9	374957	311																			2					25	prime_right.png	0	374577	0	0	13	0	374577	0	374577	1	374577	20	0	-1	373078	374577	374576	0	prime_right.png	TrialProc1	right	0		1	10	374887	-374887		0	0	TrialList1	target_right.png	1	l	-1	3	374627	260	l	321	374948												5	1	58				neut			300
1 ver1_main_procedure	29	1	27	<?xml version="1.0"?>\n<Clock xmlns:dt="urn:schemas-microsoft-com:datatypes"><Description dt:dt="string">E-Prime Primary Realtime Clock</Description><StartTime><Timestamp dt:dt="int">0</Timestamp><DateUtc dt:dt="string">2015-08-14T12:53:02Z</DateUtc></StartTime><FrequencyChanges><FrequencyChange><Frequency dt:dt="r8">2612304</Frequency><Timestamp dt:dt="r8">43639325370</Timestamp><Current dt:dt="r8">0</Current><DateUtc dt:dt="string">2015-08-14T12:53:02Z</DateUtc></FrequencyChange></FrequencyChanges></Clock>\n	1 ver1_main_procedure-29-1	99.939	1.0.0.880	1	nw	690182894	prawa	1	2.0.10.182	08-14-2015	2015-08-14 12:53:03	14:53:03	kobieta	2.0.10.92	3	3	1	1																							d	{SPACE}		no	BlockProc1		BlockList									59	Free	dl	color_purple.png		-1	7	377379	460																								25	prime_left.png	0	377079	0	0	13	0	377079	0	377079	1	377079	20	0	-1	375580	377079	377078	0		TrialProc1	right	0		0	0	0	0		0	0	TrialList1	target_both.png	0	dl	-999999	3	377129	0	d	243	377372												12	1	59				incomp			450
1 ver1_main_procedure	29	1	27	<?xml version="1.0"?>\n<Clock xmlns:dt="urn:schemas-microsoft-com:datatypes"><Description dt:dt="string">E-Prime Primary Realtime Clock</Description><StartTime><Timestamp dt:dt="int">0</Timestamp><DateUtc dt:dt="string">2015-08-14T12:53:02Z</DateUtc></StartTime><FrequencyChanges><FrequencyChange><Frequency dt:dt="r8">2612304</Frequency><Timestamp dt:dt="r8">43639325370</Timestamp><Current dt:dt="r8">0</Current><DateUtc dt:dt="string">2015-08-14T12:53:02Z</DateUtc></FrequencyChange></FrequencyChanges></Clock>\n	1 ver1_main_procedure-29-1	99.939	1.0.0.880	1	nw	690182894	prawa	1	2.0.10.182	08-14-2015	2015-08-14 12:53:03	14:53:03	kobieta	2.0.10.92	3	3	1	1																							d	{SPACE}		no	BlockProc1		BlockList									60	Cued	l	color_blue.png		-1	7	379931	159																								25	prime_right.png	0	379650	0	0	13	0	379650	0	379650	1	379650	20	0	-1	378151	379650	379649	0		TrialProc1	right	0		0	0	0	0		0	0	TrialList1	target_right.png	1	l	-999999	3	379700	0	l	224	379924												4	1	60				comp			150
1 ver1_main_procedure	29	1	27	<?xml version="1.0"?>\n<Clock xmlns:dt="urn:schemas-microsoft-com:datatypes"><Description dt:dt="string">E-Prime Primary Realtime Clock</Description><StartTime><Timestamp dt:dt="int">0</Timestamp><DateUtc dt:dt="string">2015-08-14T12:53:02Z</DateUtc></StartTime><FrequencyChanges><FrequencyChange><Frequency dt:dt="r8">2612304</Frequency><Timestamp dt:dt="r8">43639325370</Timestamp><Current dt:dt="r8">0</Current><DateUtc dt:dt="string">2015-08-14T12:53:02Z</DateUtc></FrequencyChange></FrequencyChanges></Clock>\n	1 ver1_main_procedure-29-1	99.939	1.0.0.880	1	nw	690182894	prawa	1	2.0.10.182	08-14-2015	2015-08-14 12:53:03	14:53:03	kobieta	2.0.10.92	3	3	1	1																							d	{SPACE}		no	BlockProc1		BlockList									61	Cued	d	color_red.png		-1	12	382272	310																								25	prime_right.png	0	381902	0	0	13	0	381902	0	381902	1	381902	20	0	-1	380402	381902	381901	0		TrialProc1	left	0		0	10	382212	-382212		0	0	TrialList1	target_left.png	1	d	-1	3	381952	260	d	308	382260												3	1	61				incomp			300
1 ver1_main_procedure	29	1	27	<?xml version="1.0"?>\n<Clock xmlns:dt="urn:schemas-microsoft-com:datatypes"><Description dt:dt="string">E-Prime Primary Realtime Clock</Description><StartTime><Timestamp dt:dt="int">0</Timestamp><DateUtc dt:dt="string">2015-08-14T12:53:02Z</DateUtc></StartTime><FrequencyChanges><FrequencyChange><Frequency dt:dt="r8">2612304</Frequency><Timestamp dt:dt="r8">43639325370</Timestamp><Current dt:dt="r8">0</Current><DateUtc dt:dt="string">2015-08-14T12:53:02Z</DateUtc></FrequencyChange></FrequencyChanges></Clock>\n	1 ver1_main_procedure-29-1	99.939	1.0.0.880	1	nw	690182894	prawa	1	2.0.10.182	08-14-2015	2015-08-14 12:53:03	14:53:03	kobieta	2.0.10.92	3	3	1	1																							d	{SPACE}		no	BlockProc1		BlockList									62	Cued	l	color_green.png		-1	13	384833	461																			1					25	prime_left.png	0	384393	0	0	13	0	384393	0	384393	1	384393	20	0	-1	382894	384393	384392	0	prime_left.png	TrialProc1	right	0		0	10	384703	-384703		0	0	TrialList1	target_right.png	1	l	-1	3	384443	260	l	377	384820												5	1	62				neut			450
1 ver1_main_procedure	29	1	27	<?xml version="1.0"?>\n<Clock xmlns:dt="urn:schemas-microsoft-com:datatypes"><Description dt:dt="string">E-Prime Primary Realtime Clock</Description><StartTime><Timestamp dt:dt="int">0</Timestamp><DateUtc dt:dt="string">2015-08-14T12:53:02Z</DateUtc></StartTime><FrequencyChanges><FrequencyChange><Frequency dt:dt="r8">2612304</Frequency><Timestamp dt:dt="r8">43639325370</Timestamp><Current dt:dt="r8">0</Current><DateUtc dt:dt="string">2015-08-14T12:53:02Z</DateUtc></FrequencyChange></FrequencyChanges></Clock>\n	1 ver1_main_procedure-29-1	99.939	1.0.0.880	1	nw	690182894	prawa	1	2.0.10.182	08-14-2015	2015-08-14 12:53:03	14:53:03	kobieta	2.0.10.92	3	3	1	1																							d	{SPACE}		no	BlockProc1		BlockList									63	Cued	d	color_red.png		-1	15	387555	160																								25	prime_right.png	0	387105	0	0	13	0	387105	0	387105	1	387105	20	0	-1	385605	387105	387104	0		TrialProc1	left	0		0	10	387415	-387415		0	0	TrialList1	target_left.png	1	d	-1	3	387155	260	d	385	387540												3	1	63				incomp			150
1 ver1_main_procedure	29	1	27	<?xml version="1.0"?>\n<Clock xmlns:dt="urn:schemas-microsoft-com:datatypes"><Description dt:dt="string">E-Prime Primary Realtime Clock</Description><StartTime><Timestamp dt:dt="int">0</Timestamp><DateUtc dt:dt="string">2015-08-14T12:53:02Z</DateUtc></StartTime><FrequencyChanges><FrequencyChange><Frequency dt:dt="r8">2612304</Frequency><Timestamp dt:dt="r8">43639325370</Timestamp><Current dt:dt="r8">0</Current><DateUtc dt:dt="string">2015-08-14T12:53:02Z</DateUtc></FrequencyChange></FrequencyChanges></Clock>\n	1 ver1_main_procedure-29-1	99.939	1.0.0.880	1	nw	690182894	prawa	1	2.0.10.182	08-14-2015	2015-08-14 12:53:03	14:53:03	kobieta	2.0.10.92	3	3	1	1																							d	{SPACE}		no	BlockProc1		BlockList									64	Cued	l	color_orange.png		-1	5	389906	160																								25	prime_left.png	0	389526	0	0	13	0	389526	0	389526	1	389526	20	0	-1	388027	389526	389525	0		TrialProc1	right	0		1	10	389836	-389836		0	0	TrialList1	target_right.png	1	l	-1	3	389576	260	l	324	389900												6	1	64				incomp			150
1 ver1_main_procedure	29	1	27	<?xml version="1.0"?>\n<Clock xmlns:dt="urn:schemas-microsoft-com:datatypes"><Description dt:dt="string">E-Prime Primary Realtime Clock</Description><StartTime><Timestamp dt:dt="int">0</Timestamp><DateUtc dt:dt="string">2015-08-14T12:53:02Z</DateUtc></StartTime><FrequencyChanges><FrequencyChange><Frequency dt:dt="r8">2612304</Frequency><Timestamp dt:dt="r8">43639325370</Timestamp><Current dt:dt="r8">0</Current><DateUtc dt:dt="string">2015-08-14T12:53:02Z</DateUtc></FrequencyChange></FrequencyChanges></Clock>\n	1 ver1_main_procedure-29-1	99.939	1.0.0.880	1	nw	690182894	prawa	1	2.0.10.182	08-14-2015	2015-08-14 12:53:03	14:53:03	kobieta	2.0.10.92	3	3	1	1																							d	{SPACE}		no	BlockProc1		BlockList									65	Cued	d	color_yellow.png		-1	11	392208	310																			2					25	prime_right.png	1	391878	0	0	13	1	391878	1	391878	0	391877	21	0	-1	390378	391877	391877	0	prime_right.png	TrialProc1	left	0		0	10	392188	-392188		0	0	TrialList1	target_left.png	1	d	-1	3	391928	260	d	268	392196												2	1	65				neut			300
1 ver1_main_procedure	29	1	27	<?xml version="1.0"?>\n<Clock xmlns:dt="urn:schemas-microsoft-com:datatypes"><Description dt:dt="string">E-Prime Primary Realtime Clock</Description><StartTime><Timestamp dt:dt="int">0</Timestamp><DateUtc dt:dt="string">2015-08-14T12:53:02Z</DateUtc></StartTime><FrequencyChanges><FrequencyChange><Frequency dt:dt="r8">2612304</Frequency><Timestamp dt:dt="r8">43639325370</Timestamp><Current dt:dt="r8">0</Current><DateUtc dt:dt="string">2015-08-14T12:53:02Z</DateUtc></FrequencyChange></FrequencyChanges></Clock>\n	1 ver1_main_procedure-29-1	99.939	1.0.0.880	1	nw	690182894	prawa	1	2.0.10.182	08-14-2015	2015-08-14 12:53:03	14:53:03	kobieta	2.0.10.92	3	3	1	1																							d	{SPACE}		no	BlockProc1		BlockList									66	Cued	d	color_red.png		-1	12	394689	160																								25	prime_right.png	0	394329	0	0	13	0	394329	0	394329	1	394329	20	0	-1	392830	394329	394328	0		TrialProc1	left	0		0	10	394639	-394639		0	0	TrialList1	target_left.png	1	d	-1	3	394379	260	d	297	394676												3	1	66				incomp			150
1 ver1_main_procedure	29	1	27	<?xml version="1.0"?>\n<Clock xmlns:dt="urn:schemas-microsoft-com:datatypes"><Description dt:dt="string">E-Prime Primary Realtime Clock</Description><StartTime><Timestamp dt:dt="int">0</Timestamp><DateUtc dt:dt="string">2015-08-14T12:53:02Z</DateUtc></StartTime><FrequencyChanges><FrequencyChange><Frequency dt:dt="r8">2612304</Frequency><Timestamp dt:dt="r8">43639325370</Timestamp><Current dt:dt="r8">0</Current><DateUtc dt:dt="string">2015-08-14T12:53:02Z</DateUtc></FrequencyChange></FrequencyChanges></Clock>\n	1 ver1_main_procedure-29-1	99.939	1.0.0.880	1	nw	690182894	prawa	1	2.0.10.182	08-14-2015	2015-08-14 12:53:03	14:53:03	kobieta	2.0.10.92	3	3	1	1																							d	{SPACE}		no	BlockProc1		BlockList									67	Cued	l	color_orange.png		-1	14	397051	310																								25	prime_left.png	0	396660	0	0	13	0	396661	0	396660	1	396660	20	0	-1	395161	396660	396659	0		TrialProc1	right	0		0	11	396971	-396971		0	0	TrialList1	target_right.png	1	l	-1	3	396710	261	l	326	397036												6	1	67				incomp			300
1 ver1_main_procedure	29	1	27	<?xml version="1.0"?>\n<Clock xmlns:dt="urn:schemas-microsoft-com:datatypes"><Description dt:dt="string">E-Prime Primary Realtime Clock</Description><StartTime><Timestamp dt:dt="int">0</Timestamp><DateUtc dt:dt="string">2015-08-14T12:53:02Z</DateUtc></StartTime><FrequencyChanges><FrequencyChange><Frequency dt:dt="r8">2612304</Frequency><Timestamp dt:dt="r8">43639325370</Timestamp><Current dt:dt="r8">0</Current><DateUtc dt:dt="string">2015-08-14T12:53:02Z</DateUtc></FrequencyChange></FrequencyChanges></Clock>\n	1 ver1_main_procedure-29-1	99.939	1.0.0.880	1	nw	690182894	prawa	1	2.0.10.182	08-14-2015	2015-08-14 12:53:03	14:53:03	kobieta	2.0.10.92	3	3	1	1																							d	{SPACE}		no	BlockProc1		BlockList									68	Cued	l			-1	9	399462	160																			1					25	prime_left.png	0	399172	0	0	13	0	399172	0	399172	1	399172	20	0	-1	397673	399172	399171	0	prime_left.png	TrialProc1	right	0		0	0	0	0		0	0	TrialList1	target_right.png	0	l	-999999	3	399222	0	d	230	399452												5	1	68				neut			150
1 ver1_main_procedure	29	1	27	<?xml version="1.0"?>\n<Clock xmlns:dt="urn:schemas-microsoft-com:datatypes"><Description dt:dt="string">E-Prime Primary Realtime Clock</Description><StartTime><Timestamp dt:dt="int">0</Timestamp><DateUtc dt:dt="string">2015-08-14T12:53:02Z</DateUtc></StartTime><FrequencyChanges><FrequencyChange><Frequency dt:dt="r8">2612304</Frequency><Timestamp dt:dt="r8">43639325370</Timestamp><Current dt:dt="r8">0</Current><DateUtc dt:dt="string">2015-08-14T12:53:02Z</DateUtc></FrequencyChange></FrequencyChanges></Clock>\n	1 ver1_main_procedure-29-1	99.939	1.0.0.880	1	nw	690182894	prawa	1	2.0.10.182	08-14-2015	2015-08-14 12:53:03	14:53:03	kobieta	2.0.10.92	3	3	1	1																							d	{SPACE}		no	BlockProc1		BlockList									69	Cued	d	color_red.png		-1	12	401793	160																								75	prime_right.png	0	401433	0	0	13	0	401433	0	401433	1	401433	20	0	-1	399934	401433	401432	0		TrialProc1	left	0		1	10	401743	-401743		0	0	TrialList1	target_left.png	1	d	-1	3	401483	260	d	297	401780												3	1	69				incomp			150
1 ver1_main_procedure	29	1	27	<?xml version="1.0"?>\n<Clock xmlns:dt="urn:schemas-microsoft-com:datatypes"><Description dt:dt="string">E-Prime Primary Realtime Clock</Description><StartTime><Timestamp dt:dt="int">0</Timestamp><DateUtc dt:dt="string">2015-08-14T12:53:02Z</DateUtc></StartTime><FrequencyChanges><FrequencyChange><Frequency dt:dt="r8">2612304</Frequency><Timestamp dt:dt="r8">43639325370</Timestamp><Current dt:dt="r8">0</Current><DateUtc dt:dt="string">2015-08-14T12:53:02Z</DateUtc></FrequencyChange></FrequencyChanges></Clock>\n	1 ver1_main_procedure-29-1	99.939	1.0.0.880	1	nw	690182894	prawa	1	2.0.10.182	08-14-2015	2015-08-14 12:53:03	14:53:03	kobieta	2.0.10.92	3	3	1	1																							d	{SPACE}		no	BlockProc1		BlockList									70	Cued	d	color_red.png		-1	12	404305	460																								25	prime_right.png	0	403765	0	0	13	0	403765	0	403765	1	403765	20	0	-1	402265	403765	403764	0		TrialProc1	left	0		0	10	404075	-404075		0	0	TrialList1	target_left.png	1	d	-1	3	403815	260	d	477	404292												3	1	70				incomp			450
1 ver1_main_procedure	29	1	27	<?xml version="1.0"?>\n<Clock xmlns:dt="urn:schemas-microsoft-com:datatypes"><Description dt:dt="string">E-Prime Primary Realtime Clock</Description><StartTime><Timestamp dt:dt="int">0</Timestamp><DateUtc dt:dt="string">2015-08-14T12:53:02Z</DateUtc></StartTime><FrequencyChanges><FrequencyChange><Frequency dt:dt="r8">2612304</Frequency><Timestamp dt:dt="r8">43639325370</Timestamp><Current dt:dt="r8">0</Current><DateUtc dt:dt="string">2015-08-14T12:53:02Z</DateUtc></FrequencyChange></FrequencyChanges></Clock>\n	1 ver1_main_procedure-29-1	99.939	1.0.0.880	1	nw	690182894	prawa	1	2.0.10.182	08-14-2015	2015-08-14 12:53:03	14:53:03	kobieta	2.0.10.92	3	3	1	1																							d	{SPACE}		no	BlockProc1		BlockList									71	Free	dl	color_green.png		-1	11	406976	311																			2					25	prime_right.png	0	406576	0	0	13	1	406577	1	406577	1	406576	20	0	-1	405077	406576	406575	0	prime_right.png	TrialProc1	left	0		1	10	406886	-406886		0	0	TrialList1	target_both.png	0	dl	-1	3	406626	260	l	338	406964												8	1	71				neut			300
1 ver1_main_procedure	29	1	27	<?xml version="1.0"?>\n<Clock xmlns:dt="urn:schemas-microsoft-com:datatypes"><Description dt:dt="string">E-Prime Primary Realtime Clock</Description><StartTime><Timestamp dt:dt="int">0</Timestamp><DateUtc dt:dt="string">2015-08-14T12:53:02Z</DateUtc></StartTime><FrequencyChanges><FrequencyChange><Frequency dt:dt="r8">2612304</Frequency><Timestamp dt:dt="r8">43639325370</Timestamp><Current dt:dt="r8">0</Current><DateUtc dt:dt="string">2015-08-14T12:53:02Z</DateUtc></FrequencyChange></FrequencyChanges></Clock>\n	1 ver1_main_procedure-29-1	99.939	1.0.0.880	1	nw	690182894	prawa	1	2.0.10.182	08-14-2015	2015-08-14 12:53:03	14:53:03	kobieta	2.0.10.92	3	3	1	1																							d	{SPACE}		no	BlockProc1		BlockList									72	Cued	l	color_orange.png		-1	13	409458	460																								25	prime_left.png	0	409098	0	0	13	0	409098	0	409098	1	409098	20	0	-1	407599	409098	409097	0		TrialProc1	right	0		0	10	409408	-409408		0	0	TrialList1	target_right.png	1	l	-1	3	409148	260	l	296	409444												6	1	72				incomp			450
1 ver1_main_procedure	29	1	27	<?xml version="1.0"?>\n<Clock xmlns:dt="urn:schemas-microsoft-com:datatypes"><Description dt:dt="string">E-Prime Primary Realtime Clock</Description><StartTime><Timestamp dt:dt="int">0</Timestamp><DateUtc dt:dt="string">2015-08-14T12:53:02Z</DateUtc></StartTime><FrequencyChanges><FrequencyChange><Frequency dt:dt="r8">2612304</Frequency><Timestamp dt:dt="r8">43639325370</Timestamp><Current dt:dt="r8">0</Current><DateUtc dt:dt="string">2015-08-14T12:53:02Z</DateUtc></FrequencyChange></FrequencyChanges></Clock>\n	1 ver1_main_procedure-29-1	99.939	1.0.0.880	1	nw	690182894	prawa	1	2.0.10.182	08-14-2015	2015-08-14 12:53:03	14:53:03	kobieta	2.0.10.92	3	3	1	1																							d	{SPACE}		no	BlockProc1		BlockList									73									4	5	6	2	3	1	color_blue.png	color_purple.png	color_orange.png	color_green.png	color_red.png	color_yellow.png	color_yellow.png	color_green.png	color_red.png	color_blue.png	color_purple.png	color_orange.png		1	1	1	30727																						DragProc											Ocena																															
1 ver1_main_procedure	29	1	27	<?xml version="1.0"?>\n<Clock xmlns:dt="urn:schemas-microsoft-com:datatypes"><Description dt:dt="string">E-Prime Primary Realtime Clock</Description><StartTime><Timestamp dt:dt="int">0</Timestamp><DateUtc dt:dt="string">2015-08-14T12:53:02Z</DateUtc></StartTime><FrequencyChanges><FrequencyChange><Frequency dt:dt="r8">2612304</Frequency><Timestamp dt:dt="r8">43639325370</Timestamp><Current dt:dt="r8">0</Current><DateUtc dt:dt="string">2015-08-14T12:53:02Z</DateUtc></FrequencyChange></FrequencyChanges></Clock>\n	1 ver1_main_procedure-29-1	99.939	1.0.0.880	1	nw	690182894	prawa	1	2.0.10.182	08-14-2015	2015-08-14 12:53:03	14:53:03	kobieta	2.0.10.92	3	3	1	1																							d	{SPACE}		no	BlockProc1		BlockList									74															color_blue.png	color_purple.png	color_orange.png	color_green.png	color_red.png	color_yellow.png								2	1	2																							EnterProc											Ocena												30	44	50	65	70	80														
1 ver1_main_procedure	29	1	27	<?xml version="1.0"?>\n<Clock xmlns:dt="urn:schemas-microsoft-com:datatypes"><Description dt:dt="string">E-Prime Primary Realtime Clock</Description><StartTime><Timestamp dt:dt="int">0</Timestamp><DateUtc dt:dt="string">2015-08-14T12:53:02Z</DateUtc></StartTime><FrequencyChanges><FrequencyChange><Frequency dt:dt="r8">2612304</Frequency><Timestamp dt:dt="r8">43639325370</Timestamp><Current dt:dt="r8">0</Current><DateUtc dt:dt="string">2015-08-14T12:53:02Z</DateUtc></FrequencyChange></FrequencyChanges></Clock>\n	1 ver1_main_procedure-29-1	99.939	1.0.0.880	1	nw	690182894	prawa	1	2.0.10.182	08-14-2015	2015-08-14 12:53:03	14:53:03	kobieta	2.0.10.92	4	1	1	2																							d	{SPACE}		no	BlockProc1		BlockList									1	Cued	d	color_purple.png		-1	6	602863	460																								75	prime_right.png	0	602253	0	0	13	0	602253	0	602253	1	602253	20	0	-1	600754	602253	602252	0		TrialProc1	left	0		0	10	602563	-602563		0	0	TrialList1	target_left.png	1	d	-1	3	602303	260	d	553	602856												3	2	73				incomp			450
1 ver1_main_procedure	29	1	27	<?xml version="1.0"?>\n<Clock xmlns:dt="urn:schemas-microsoft-com:datatypes"><Description dt:dt="string">E-Prime Primary Realtime Clock</Description><StartTime><Timestamp dt:dt="int">0</Timestamp><DateUtc dt:dt="string">2015-08-14T12:53:02Z</DateUtc></StartTime><FrequencyChanges><FrequencyChange><Frequency dt:dt="r8">2612304</Frequency><Timestamp dt:dt="r8">43639325370</Timestamp><Current dt:dt="r8">0</Current><DateUtc dt:dt="string">2015-08-14T12:53:02Z</DateUtc></FrequencyChange></FrequencyChanges></Clock>\n	1 ver1_main_procedure-29-1	99.939	1.0.0.880	1	nw	690182894	prawa	1	2.0.10.182	08-14-2015	2015-08-14 12:53:03	14:53:03	kobieta	2.0.10.92	4	1	1	2																							d	{SPACE}		no	BlockProc1		BlockList									2	Cued	d	color_yellow.png		-1	8	605545	460																								25	prime_left.png	0	605134	0	0	13	1	605135	1	605135	0	605134	20	0	-1	603635	605134	605134	0		TrialProc1	left	0		0	11	605445	-605445		0	0	TrialList1	target_left.png	1	d	-1	3	605184	261	d	352	605536												1	2	74				comp			450
1 ver1_main_procedure	29	1	27	<?xml version="1.0"?>\n<Clock xmlns:dt="urn:schemas-microsoft-com:datatypes"><Description dt:dt="string">E-Prime Primary Realtime Clock</Description><StartTime><Timestamp dt:dt="int">0</Timestamp><DateUtc dt:dt="string">2015-08-14T12:53:02Z</DateUtc></StartTime><FrequencyChanges><FrequencyChange><Frequency dt:dt="r8">2612304</Frequency><Timestamp dt:dt="r8">43639325370</Timestamp><Current dt:dt="r8">0</Current><DateUtc dt:dt="string">2015-08-14T12:53:02Z</DateUtc></FrequencyChange></FrequencyChanges></Clock>\n	1 ver1_main_procedure-29-1	99.939	1.0.0.880	1	nw	690182894	prawa	1	2.0.10.182	08-14-2015	2015-08-14 12:53:03	14:53:03	kobieta	2.0.10.92	4	1	1	2																							d	{SPACE}		no	BlockProc1		BlockList									3	Cued	d	color_blue.png		-1	5	608206	461																			1					25	prime_left.png	0	607816	0	0	13	0	607816	0	607816	1	607816	20	0	-1	606317	607816	607815	0	prime_left.png	TrialProc1	left	0		0	10	608126	-608126		0	0	TrialList1	target_left.png	1	d	-1	3	607866	260	d	334	608200												2	2	75				neut			450
1 ver1_main_procedure	29	1	27	<?xml version="1.0"?>\n<Clock xmlns:dt="urn:schemas-microsoft-com:datatypes"><Description dt:dt="string">E-Prime Primary Realtime Clock</Description><StartTime><Timestamp dt:dt="int">0</Timestamp><DateUtc dt:dt="string">2015-08-14T12:53:02Z</DateUtc></StartTime><FrequencyChanges><FrequencyChange><Frequency dt:dt="r8">2612304</Frequency><Timestamp dt:dt="r8">43639325370</Timestamp><Current dt:dt="r8">0</Current><DateUtc dt:dt="string">2015-08-14T12:53:02Z</DateUtc></FrequencyChange></FrequencyChanges></Clock>\n	1 ver1_main_procedure-29-1	99.939	1.0.0.880	1	nw	690182894	prawa	1	2.0.10.182	08-14-2015	2015-08-14 12:53:03	14:53:03	kobieta	2.0.10.92	4	1	1	2																							d	{SPACE}		no	BlockProc1		BlockList									4	Cued	d	color_purple.png		-1	11	610828	160																								25	prime_right.png	0	610478	0	0	13	0	610478	0	610478	1	610478	20	0	-1	608978	610478	610477	0		TrialProc1	left	0		0	10	610788	-610788		0	0	TrialList1	target_left.png	1	d	-1	3	610528	260	d	288	610816												3	2	76				incomp			150
1 ver1_main_procedure	29	1	27	<?xml version="1.0"?>\n<Clock xmlns:dt="urn:schemas-microsoft-com:datatypes"><Description dt:dt="string">E-Prime Primary Realtime Clock</Description><StartTime><Timestamp dt:dt="int">0</Timestamp><DateUtc dt:dt="string">2015-08-14T12:53:02Z</DateUtc></StartTime><FrequencyChanges><FrequencyChange><Frequency dt:dt="r8">2612304</Frequency><Timestamp dt:dt="r8">43639325370</Timestamp><Current dt:dt="r8">0</Current><DateUtc dt:dt="string">2015-08-14T12:53:02Z</DateUtc></FrequencyChange></FrequencyChanges></Clock>\n	1 ver1_main_procedure-29-1	99.939	1.0.0.880	1	nw	690182894	prawa	1	2.0.10.182	08-14-2015	2015-08-14 12:53:03	14:53:03	kobieta	2.0.10.92	4	1	1	2																							d	{SPACE}		no	BlockProc1		BlockList									5	Cued	d	color_yellow.png		-1	14	613199	160																								25	prime_left.png	0	612799	0	0	13	0	612799	0	612799	1	612799	20	0	-1	611300	612799	612798	0		TrialProc1	left	0		0	10	613109	-613109		0	0	TrialList1	target_left.png	1	d	-1	3	612849	260	d	335	613184												1	2	77				comp			150
1 ver1_main_procedure	29	1	27	<?xml version="1.0"?>\n<Clock xmlns:dt="urn:schemas-microsoft-com:datatypes"><Description dt:dt="string">E-Prime Primary Realtime Clock</Description><StartTime><Timestamp dt:dt="int">0</Timestamp><DateUtc dt:dt="string">2015-08-14T12:53:02Z</DateUtc></StartTime><FrequencyChanges><FrequencyChange><Frequency dt:dt="r8">2612304</Frequency><Timestamp dt:dt="r8">43639325370</Timestamp><Current dt:dt="r8">0</Current><DateUtc dt:dt="string">2015-08-14T12:53:02Z</DateUtc></FrequencyChange></FrequencyChanges></Clock>\n	1 ver1_main_procedure-29-1	99.939	1.0.0.880	1	nw	690182894	prawa	1	2.0.10.182	08-14-2015	2015-08-14 12:53:03	14:53:03	kobieta	2.0.10.92	4	1	1	2																							d	{SPACE}		no	BlockProc1		BlockList									6	Cued	l	color_green.png		-1	10	615651	310																								75	prime_left.png	0	615170	0	0	13	1	615171	1	615171	1	615170	20	0	-1	613671	615170	615169	0		TrialProc1	right	0		0	11	615481	-615481		0	0	TrialList1	target_right.png	1	l	-1	3	615220	261	l	420	615640												6	2	78				incomp			300
1 ver1_main_procedure	29	1	27	<?xml version="1.0"?>\n<Clock xmlns:dt="urn:schemas-microsoft-com:datatypes"><Description dt:dt="string">E-Prime Primary Realtime Clock</Description><StartTime><Timestamp dt:dt="int">0</Timestamp><DateUtc dt:dt="string">2015-08-14T12:53:02Z</DateUtc></StartTime><FrequencyChanges><FrequencyChange><Frequency dt:dt="r8">2612304</Frequency><Timestamp dt:dt="r8">43639325370</Timestamp><Current dt:dt="r8">0</Current><DateUtc dt:dt="string">2015-08-14T12:53:02Z</DateUtc></FrequencyChange></FrequencyChanges></Clock>\n	1 ver1_main_procedure-29-1	99.939	1.0.0.880	1	nw	690182894	prawa	1	2.0.10.182	08-14-2015	2015-08-14 12:53:03	14:53:03	kobieta	2.0.10.92	4	1	1	2																							d	{SPACE}		no	BlockProc1		BlockList									7	Cued	l	color_orange.png		-1	11	618212	160																								25	prime_right.png	0	617772	0	0	13	0	617772	0	617772	1	617772	20	0	-1	616273	617772	617771	0		TrialProc1	right	0		0	10	618082	-618082		0	0	TrialList1	target_right.png	1	l	-1	3	617822	260	l	378	618200												4	2	79				comp			150
1 ver1_main_procedure	29	1	27	<?xml version="1.0"?>\n<Clock xmlns:dt="urn:schemas-microsoft-com:datatypes"><Description dt:dt="string">E-Prime Primary Realtime Clock</Description><StartTime><Timestamp dt:dt="int">0</Timestamp><DateUtc dt:dt="string">2015-08-14T12:53:02Z</DateUtc></StartTime><FrequencyChanges><FrequencyChange><Frequency dt:dt="r8">2612304</Frequency><Timestamp dt:dt="r8">43639325370</Timestamp><Current dt:dt="r8">0</Current><DateUtc dt:dt="string">2015-08-14T12:53:02Z</DateUtc></FrequencyChange></FrequencyChanges></Clock>\n	1 ver1_main_procedure-29-1	99.939	1.0.0.880	1	nw	690182894	prawa	1	2.0.10.182	08-14-2015	2015-08-14 12:53:03	14:53:03	kobieta	2.0.10.92	4	1	1	2																							d	{SPACE}		no	BlockProc1		BlockList									8	Free	dl	color_blue.png		-1	13	620854	160																			2					75	prime_right.png	0	620183	0	0	13	1	620184	1	620184	0	620183	20	0	-1	618684	620183	620183	0	prime_right.png	TrialProc1	right	0		0	11	620494	-620494		0	0	TrialList1	target_both.png	0	dl	-1	3	620233	261	d	608	620841												11	2	80				neut			150
1 ver1_main_procedure	29	1	27	<?xml version="1.0"?>\n<Clock xmlns:dt="urn:schemas-microsoft-com:datatypes"><Description dt:dt="string">E-Prime Primary Realtime Clock</Description><StartTime><Timestamp dt:dt="int">0</Timestamp><DateUtc dt:dt="string">2015-08-14T12:53:02Z</DateUtc></StartTime><FrequencyChanges><FrequencyChange><Frequency dt:dt="r8">2612304</Frequency><Timestamp dt:dt="r8">43639325370</Timestamp><Current dt:dt="r8">0</Current><DateUtc dt:dt="string">2015-08-14T12:53:02Z</DateUtc></FrequencyChange></FrequencyChanges></Clock>\n	1 ver1_main_procedure-29-1	99.939	1.0.0.880	1	nw	690182894	prawa	1	2.0.10.182	08-14-2015	2015-08-14 12:53:03	14:53:03	kobieta	2.0.10.92	4	1	1	2																							d	{SPACE}		no	BlockProc1		BlockList									9	Free	dl	color_orange.png		-1	8	623345	160																								75	prime_right.png	0	622825	0	0	13	0	622825	0	622825	1	622825	20	0	-1	621326	622825	622824	0		TrialProc1	right	0		0	10	623135	-623135		0	0	TrialList1	target_both.png	0	dl	-1	3	622875	260	l	462	623337												10	2	81				comp			150
1 ver1_main_procedure	29	1	27	<?xml version="1.0"?>\n<Clock xmlns:dt="urn:schemas-microsoft-com:datatypes"><Description dt:dt="string">E-Prime Primary Realtime Clock</Description><StartTime><Timestamp dt:dt="int">0</Timestamp><DateUtc dt:dt="string">2015-08-14T12:53:02Z</DateUtc></StartTime><FrequencyChanges><FrequencyChange><Frequency dt:dt="r8">2612304</Frequency><Timestamp dt:dt="r8">43639325370</Timestamp><Current dt:dt="r8">0</Current><DateUtc dt:dt="string">2015-08-14T12:53:02Z</DateUtc></FrequencyChange></FrequencyChanges></Clock>\n	1 ver1_main_procedure-29-1	99.939	1.0.0.880	1	nw	690182894	prawa	1	2.0.10.182	08-14-2015	2015-08-14 12:53:03	14:53:03	kobieta	2.0.10.92	4	1	1	2																							d	{SPACE}		no	BlockProc1		BlockList									10	Free	dl	color_purple.png		-1	6	625807	460																								25	prime_right.png	0	625316	0	0	13	1	625317	1	625317	0	625316	20	0	-1	623817	625316	625316	0		TrialProc1	left	0		0	11	625627	-625627		0	0	TrialList1	target_both.png	0	dl	-1	3	625366	261	d	435	625801												9	2	82				incomp			450
