ExperimentName	Subject	Session	Age	Clock.Information	DataFile.Basename	Display.RefreshRate	ExperimentVersion	Group	Name	RandomSeed	Recznosc	ResearcherID	RuntimeVersion	SessionDate	SessionStartDateTimeUtc	SessionTime	Sex	StudioVersion	Block	BlockList	BlockList.Cycle	BlockList.Sample	BlockNumber	GoodBye.RESP	GoodBye2.RESP	GoodByeList	GoodByeList.Cycle	GoodByeList.Sample	InstrList	InstrList.Cycle	InstrList.Sample	Instructions3.RESP	Instructions4.RESP	Instructions5.RESP	kobieta_S1	kobieta_S2	kobieta_S3	kobieta_S4	kobieta_S5	mezczyzna_S1	mezczyzna_S2	mezczyzna_S3	mezczyzna_S4	mezczyzna_S5	NextBlock.RESP	NextBlock0.RESP	planowanie	PracticeMode	Procedure[Block]	proszenie	Running[Block]	TrainingList	TrainingList.Cycle	TrainingList.Sample	WordList	WordList1	wykonanie	zauwazenie	zrozumienie	Trial	ChoiceType	CorrectRespon	Effect	ErrorText	Fixation2.DurationError	Fixation2.OnsetDelay	Fixation2.OnsetTime	Fixation2.OnsetToOnsetTime	GoalRespInd1	GoalRespInd2	GoalRespInd3	GoalRespInd4	GoalRespInd5	GoalRespInd6	GoalRespName1	GoalRespName2	GoalRespName3	GoalRespName4	GoalRespName5	GoalRespName6	kol1	kol2	kol3	kol4	kol5	kol6	NeutralPrimeList1	Ocena	Ocena.Cycle	Ocena.Sample	OverallRT	Posit	Prime	Prime.ActionDelay	Prime.ActionTime	Prime.CustomOffsetTime	Prime.CustomOnsetTime	Prime.Duration	Prime.DurationError	Prime.FinishTime	Prime.OffsetDelay	Prime.OffsetTime	Prime.OnsetDelay	Prime.OnsetTime	Prime.OnsetToOnsetTime	Prime.PendingInputMasks	Prime.PreRelease	Prime.StartTime	Prime.TargetOffsetTime	Prime.TargetOnsetTime	Prime.TimingMode	PrimeChoice	Procedure[Trial]	Resp	RespWin.ACC	RespWin.CRESP	RespWin.DurationError	RespWin.OnsetDelay	RespWin.OnsetTime	RespWin.OnsetToOnsetTime	RespWin.RESP	RespWin.RT	RespWin.RTTime	Running[Trial]	Target	TargetSlide.ACC	TargetSlide.CRESP	TargetSlide.DurationError	TargetSlide.OnsetDelay	TargetSlide.OnsetTime	TargetSlide.OnsetToOnsetTime	TargetSlide.RESP	TargetSlide.RT	TargetSlide.RTTime	TargetTraining	TBox1	TBox2	TBox3	TBox4	TBox5	TBox6	TrainingList1	TrainingList1.Cycle	TrainingList1.Sample	TrCorrectResp	TrialList1	TrialList1.Cycle	TrialList1.Sample	TrialList2	TrialList2.Cycle	TrialList2.Sample	TrialType	TrPosit	TrWaitTime	WaitTime
1 ver1_main_procedure	30	1	23	<?xml version="1.0"?>\n<Clock xmlns:dt="urn:schemas-microsoft-com:datatypes"><Description dt:dt="string">E-Prime Primary Realtime Clock</Description><StartTime><Timestamp dt:dt="int">0</Timestamp><DateUtc dt:dt="string">2015-08-14T15:08:18Z</DateUtc></StartTime><FrequencyChanges><FrequencyChange><Frequency dt:dt="r8">2441416</Frequency><Timestamp dt:dt="r8">47951512226</Timestamp><Current dt:dt="r8">0</Current><DateUtc dt:dt="string">2015-08-14T15:08:18Z</DateUtc></FrequencyChange></FrequencyChanges></Clock>\n	1 ver1_main_procedure-30-1	99.924	1.0.0.880	2	pg	707352857	prawa	1	2.0.10.356	08-14-2015	2015-08-14 15:08:18	17:08:18	kobieta	2.0.10.92	1										1	1	1	{SPACE}	{SPACE}	l	poproszona	planowała	zrozumiałaś	wykonała		poproszony	planował	zrozumiałeś	wykonał				planowała		InstrProc	poproszona	InstrList				1		wykonała		zrozumiałaś																																																																																																
1 ver1_main_procedure	30	1	23	<?xml version="1.0"?>\n<Clock xmlns:dt="urn:schemas-microsoft-com:datatypes"><Description dt:dt="string">E-Prime Primary Realtime Clock</Description><StartTime><Timestamp dt:dt="int">0</Timestamp><DateUtc dt:dt="string">2015-08-14T15:08:18Z</DateUtc></StartTime><FrequencyChanges><FrequencyChange><Frequency dt:dt="r8">2441416</Frequency><Timestamp dt:dt="r8">47951512226</Timestamp><Current dt:dt="r8">0</Current><DateUtc dt:dt="string">2015-08-14T15:08:18Z</DateUtc></FrequencyChange></FrequencyChanges></Clock>\n	1 ver1_main_procedure-30-1	99.924	1.0.0.880	2	pg	707352857	prawa	1	2.0.10.356	08-14-2015	2015-08-14 15:08:18	17:08:18	kobieta	2.0.10.92	2																														TrainingProc1		TrainingList	1	1	1						1																																																					TrainProc											TrainingList1											target_both.png							3	1	1	dl								25	150	
1 ver1_main_procedure	30	1	23	<?xml version="1.0"?>\n<Clock xmlns:dt="urn:schemas-microsoft-com:datatypes"><Description dt:dt="string">E-Prime Primary Realtime Clock</Description><StartTime><Timestamp dt:dt="int">0</Timestamp><DateUtc dt:dt="string">2015-08-14T15:08:18Z</DateUtc></StartTime><FrequencyChanges><FrequencyChange><Frequency dt:dt="r8">2441416</Frequency><Timestamp dt:dt="r8">47951512226</Timestamp><Current dt:dt="r8">0</Current><DateUtc dt:dt="string">2015-08-14T15:08:18Z</DateUtc></FrequencyChange></FrequencyChanges></Clock>\n	1 ver1_main_procedure-30-1	99.924	1.0.0.880	2	pg	707352857	prawa	1	2.0.10.356	08-14-2015	2015-08-14 15:08:18	17:08:18	kobieta	2.0.10.92	2																														TrainingProc1		TrainingList	1	1	1						2																																																					TrainProc											TrainingList1											target_right.png							2	1	2	l								25	300	
1 ver1_main_procedure	30	1	23	<?xml version="1.0"?>\n<Clock xmlns:dt="urn:schemas-microsoft-com:datatypes"><Description dt:dt="string">E-Prime Primary Realtime Clock</Description><StartTime><Timestamp dt:dt="int">0</Timestamp><DateUtc dt:dt="string">2015-08-14T15:08:18Z</DateUtc></StartTime><FrequencyChanges><FrequencyChange><Frequency dt:dt="r8">2441416</Frequency><Timestamp dt:dt="r8">47951512226</Timestamp><Current dt:dt="r8">0</Current><DateUtc dt:dt="string">2015-08-14T15:08:18Z</DateUtc></FrequencyChange></FrequencyChanges></Clock>\n	1 ver1_main_procedure-30-1	99.924	1.0.0.880	2	pg	707352857	prawa	1	2.0.10.356	08-14-2015	2015-08-14 15:08:18	17:08:18	kobieta	2.0.10.92	2																														TrainingProc1		TrainingList	1	1	1						3																																																					TrainProc											TrainingList1											target_right.png							2	1	3	l								25	300	
1 ver1_main_procedure	30	1	23	<?xml version="1.0"?>\n<Clock xmlns:dt="urn:schemas-microsoft-com:datatypes"><Description dt:dt="string">E-Prime Primary Realtime Clock</Description><StartTime><Timestamp dt:dt="int">0</Timestamp><DateUtc dt:dt="string">2015-08-14T15:08:18Z</DateUtc></StartTime><FrequencyChanges><FrequencyChange><Frequency dt:dt="r8">2441416</Frequency><Timestamp dt:dt="r8">47951512226</Timestamp><Current dt:dt="r8">0</Current><DateUtc dt:dt="string">2015-08-14T15:08:18Z</DateUtc></FrequencyChange></FrequencyChanges></Clock>\n	1 ver1_main_procedure-30-1	99.924	1.0.0.880	2	pg	707352857	prawa	1	2.0.10.356	08-14-2015	2015-08-14 15:08:18	17:08:18	kobieta	2.0.10.92	2																														TrainingProc1		TrainingList	1	1	1						4																																																					TrainProc											TrainingList1											target_left.png							1	1	4	d								25	150	
1 ver1_main_procedure	30	1	23	<?xml version="1.0"?>\n<Clock xmlns:dt="urn:schemas-microsoft-com:datatypes"><Description dt:dt="string">E-Prime Primary Realtime Clock</Description><StartTime><Timestamp dt:dt="int">0</Timestamp><DateUtc dt:dt="string">2015-08-14T15:08:18Z</DateUtc></StartTime><FrequencyChanges><FrequencyChange><Frequency dt:dt="r8">2441416</Frequency><Timestamp dt:dt="r8">47951512226</Timestamp><Current dt:dt="r8">0</Current><DateUtc dt:dt="string">2015-08-14T15:08:18Z</DateUtc></FrequencyChange></FrequencyChanges></Clock>\n	1 ver1_main_procedure-30-1	99.924	1.0.0.880	2	pg	707352857	prawa	1	2.0.10.356	08-14-2015	2015-08-14 15:08:18	17:08:18	kobieta	2.0.10.92	2																														TrainingProc1		TrainingList	1	1	1						5																																																					TrainProc											TrainingList1											target_both.png							3	1	5	dl								75	150	
1 ver1_main_procedure	30	1	23	<?xml version="1.0"?>\n<Clock xmlns:dt="urn:schemas-microsoft-com:datatypes"><Description dt:dt="string">E-Prime Primary Realtime Clock</Description><StartTime><Timestamp dt:dt="int">0</Timestamp><DateUtc dt:dt="string">2015-08-14T15:08:18Z</DateUtc></StartTime><FrequencyChanges><FrequencyChange><Frequency dt:dt="r8">2441416</Frequency><Timestamp dt:dt="r8">47951512226</Timestamp><Current dt:dt="r8">0</Current><DateUtc dt:dt="string">2015-08-14T15:08:18Z</DateUtc></FrequencyChange></FrequencyChanges></Clock>\n	1 ver1_main_procedure-30-1	99.924	1.0.0.880	2	pg	707352857	prawa	1	2.0.10.356	08-14-2015	2015-08-14 15:08:18	17:08:18	kobieta	2.0.10.92	2																														TrainingProc1		TrainingList	1	1	1						6																																																					TrainProc											TrainingList1											target_right.png							2	1	6	l								75	450	
1 ver1_main_procedure	30	1	23	<?xml version="1.0"?>\n<Clock xmlns:dt="urn:schemas-microsoft-com:datatypes"><Description dt:dt="string">E-Prime Primary Realtime Clock</Description><StartTime><Timestamp dt:dt="int">0</Timestamp><DateUtc dt:dt="string">2015-08-14T15:08:18Z</DateUtc></StartTime><FrequencyChanges><FrequencyChange><Frequency dt:dt="r8">2441416</Frequency><Timestamp dt:dt="r8">47951512226</Timestamp><Current dt:dt="r8">0</Current><DateUtc dt:dt="string">2015-08-14T15:08:18Z</DateUtc></FrequencyChange></FrequencyChanges></Clock>\n	1 ver1_main_procedure-30-1	99.924	1.0.0.880	2	pg	707352857	prawa	1	2.0.10.356	08-14-2015	2015-08-14 15:08:18	17:08:18	kobieta	2.0.10.92	2																														TrainingProc1		TrainingList	1	1	1						7																																																					TrainProc											TrainingList1											target_left.png							1	1	7	d								25	300	
1 ver1_main_procedure	30	1	23	<?xml version="1.0"?>\n<Clock xmlns:dt="urn:schemas-microsoft-com:datatypes"><Description dt:dt="string">E-Prime Primary Realtime Clock</Description><StartTime><Timestamp dt:dt="int">0</Timestamp><DateUtc dt:dt="string">2015-08-14T15:08:18Z</DateUtc></StartTime><FrequencyChanges><FrequencyChange><Frequency dt:dt="r8">2441416</Frequency><Timestamp dt:dt="r8">47951512226</Timestamp><Current dt:dt="r8">0</Current><DateUtc dt:dt="string">2015-08-14T15:08:18Z</DateUtc></FrequencyChange></FrequencyChanges></Clock>\n	1 ver1_main_procedure-30-1	99.924	1.0.0.880	2	pg	707352857	prawa	1	2.0.10.356	08-14-2015	2015-08-14 15:08:18	17:08:18	kobieta	2.0.10.92	2																														TrainingProc1		TrainingList	1	1	1						8																																																					TrainProc											TrainingList1											target_both.png							3	1	8	dl								25	450	
1 ver1_main_procedure	30	1	23	<?xml version="1.0"?>\n<Clock xmlns:dt="urn:schemas-microsoft-com:datatypes"><Description dt:dt="string">E-Prime Primary Realtime Clock</Description><StartTime><Timestamp dt:dt="int">0</Timestamp><DateUtc dt:dt="string">2015-08-14T15:08:18Z</DateUtc></StartTime><FrequencyChanges><FrequencyChange><Frequency dt:dt="r8">2441416</Frequency><Timestamp dt:dt="r8">47951512226</Timestamp><Current dt:dt="r8">0</Current><DateUtc dt:dt="string">2015-08-14T15:08:18Z</DateUtc></FrequencyChange></FrequencyChanges></Clock>\n	1 ver1_main_procedure-30-1	99.924	1.0.0.880	2	pg	707352857	prawa	1	2.0.10.356	08-14-2015	2015-08-14 15:08:18	17:08:18	kobieta	2.0.10.92	2																														TrainingProc1		TrainingList	1	1	1						9																																																					TrainProc											TrainingList1											target_left.png							1	1	9	d								25	450	
1 ver1_main_procedure	30	1	23	<?xml version="1.0"?>\n<Clock xmlns:dt="urn:schemas-microsoft-com:datatypes"><Description dt:dt="string">E-Prime Primary Realtime Clock</Description><StartTime><Timestamp dt:dt="int">0</Timestamp><DateUtc dt:dt="string">2015-08-14T15:08:18Z</DateUtc></StartTime><FrequencyChanges><FrequencyChange><Frequency dt:dt="r8">2441416</Frequency><Timestamp dt:dt="r8">47951512226</Timestamp><Current dt:dt="r8">0</Current><DateUtc dt:dt="string">2015-08-14T15:08:18Z</DateUtc></FrequencyChange></FrequencyChanges></Clock>\n	1 ver1_main_procedure-30-1	99.924	1.0.0.880	2	pg	707352857	prawa	1	2.0.10.356	08-14-2015	2015-08-14 15:08:18	17:08:18	kobieta	2.0.10.92	3	6	1	1																							l	{SPACE}		no	BlockProc2		BlockList									1	Free	dl	color_purple.png		0	14	259591	311																			2					25	prime_right.png	0	258721	0	0	13	0	258721	0	258721	1	258721	20	0	-1	257222	258721	258720	0	prime_right.png	TrialProc1	right	0		0	20	259041	-259041		0	0	TrialList2	target_both.png	0	dl	0	3	258771	270	l	806	259577															11	1	1	neut			300
1 ver1_main_procedure	30	1	23	<?xml version="1.0"?>\n<Clock xmlns:dt="urn:schemas-microsoft-com:datatypes"><Description dt:dt="string">E-Prime Primary Realtime Clock</Description><StartTime><Timestamp dt:dt="int">0</Timestamp><DateUtc dt:dt="string">2015-08-14T15:08:18Z</DateUtc></StartTime><FrequencyChanges><FrequencyChange><Frequency dt:dt="r8">2441416</Frequency><Timestamp dt:dt="r8">47951512226</Timestamp><Current dt:dt="r8">0</Current><DateUtc dt:dt="string">2015-08-14T15:08:18Z</DateUtc></FrequencyChange></FrequencyChanges></Clock>\n	1 ver1_main_procedure-30-1	99.924	1.0.0.880	2	pg	707352857	prawa	1	2.0.10.356	08-14-2015	2015-08-14 15:08:18	17:08:18	kobieta	2.0.10.92	3	6	1	1																							l	{SPACE}		no	BlockProc2		BlockList									2	Free	dl	color_purple.png		0	12	262313	161																			1					75	prime_left.png	0	261713	0	0	13	0	261713	0	261713	1	261713	20	0	-1	260214	261713	261712	0	prime_left.png	TrialProc1	left	0		0	10	262023	-262023		0	0	TrialList2	target_both.png	0	dl	0	3	261763	260	l	538	262301															8	1	2	neut			150
1 ver1_main_procedure	30	1	23	<?xml version="1.0"?>\n<Clock xmlns:dt="urn:schemas-microsoft-com:datatypes"><Description dt:dt="string">E-Prime Primary Realtime Clock</Description><StartTime><Timestamp dt:dt="int">0</Timestamp><DateUtc dt:dt="string">2015-08-14T15:08:18Z</DateUtc></StartTime><FrequencyChanges><FrequencyChange><Frequency dt:dt="r8">2441416</Frequency><Timestamp dt:dt="r8">47951512226</Timestamp><Current dt:dt="r8">0</Current><DateUtc dt:dt="string">2015-08-14T15:08:18Z</DateUtc></FrequencyChange></FrequencyChanges></Clock>\n	1 ver1_main_procedure-30-1	99.924	1.0.0.880	2	pg	707352857	prawa	1	2.0.10.356	08-14-2015	2015-08-14 15:08:18	17:08:18	kobieta	2.0.10.92	3	6	1	1																							l	{SPACE}		no	BlockProc2		BlockList									3	Cued	l	color_purple.png		0	12	264745	160																			2					75	prime_right.png	0	264285	0	0	13	0	264285	0	264285	1	264285	20	0	-1	262786	264285	264284	0	prime_right.png	TrialProc1	right	0		0	10	264595	-264595		0	0	TrialList2	target_right.png	1	l	0	3	264335	260	l	398	264733															5	1	3	neut			150
1 ver1_main_procedure	30	1	23	<?xml version="1.0"?>\n<Clock xmlns:dt="urn:schemas-microsoft-com:datatypes"><Description dt:dt="string">E-Prime Primary Realtime Clock</Description><StartTime><Timestamp dt:dt="int">0</Timestamp><DateUtc dt:dt="string">2015-08-14T15:08:18Z</DateUtc></StartTime><FrequencyChanges><FrequencyChange><Frequency dt:dt="r8">2441416</Frequency><Timestamp dt:dt="r8">47951512226</Timestamp><Current dt:dt="r8">0</Current><DateUtc dt:dt="string">2015-08-14T15:08:18Z</DateUtc></FrequencyChange></FrequencyChanges></Clock>\n	1 ver1_main_procedure-30-1	99.924	1.0.0.880	2	pg	707352857	prawa	1	2.0.10.356	08-14-2015	2015-08-14 15:08:18	17:08:18	kobieta	2.0.10.92	3	6	1	1																							l	{SPACE}		no	BlockProc2		BlockList									4	Free	dl	color_red.png		0	14	267327	460																								75	prime_right.png	0	266717	0	0	13	0	266717	0	266717	1	266717	20	0	-1	265218	266717	266716	0		TrialProc1	right	0		0	10	267027	-267027		0	0	TrialList2	target_both.png	0	dl	0	3	266767	260	d	546	267313															10	1	4	comp			450
1 ver1_main_procedure	30	1	23	<?xml version="1.0"?>\n<Clock xmlns:dt="urn:schemas-microsoft-com:datatypes"><Description dt:dt="string">E-Prime Primary Realtime Clock</Description><StartTime><Timestamp dt:dt="int">0</Timestamp><DateUtc dt:dt="string">2015-08-14T15:08:18Z</DateUtc></StartTime><FrequencyChanges><FrequencyChange><Frequency dt:dt="r8">2441416</Frequency><Timestamp dt:dt="r8">47951512226</Timestamp><Current dt:dt="r8">0</Current><DateUtc dt:dt="string">2015-08-14T15:08:18Z</DateUtc></FrequencyChange></FrequencyChanges></Clock>\n	1 ver1_main_procedure-30-1	99.924	1.0.0.880	2	pg	707352857	prawa	1	2.0.10.356	08-14-2015	2015-08-14 15:08:18	17:08:18	kobieta	2.0.10.92	3	6	1	1																							l	{SPACE}		no	BlockProc2		BlockList									5	Free	dl	color_blue.png		0	12	270229	311																								25	prime_left.png	0	269599	0	0	13	0	269599	0	269599	1	269599	20	0	-1	268100	269599	269598	0		TrialProc1	left	0		0	10	269909	-269909		0	0	TrialList2	target_both.png	0	dl	0	3	269649	260	l	568	270217															7	1	5	comp			300
1 ver1_main_procedure	30	1	23	<?xml version="1.0"?>\n<Clock xmlns:dt="urn:schemas-microsoft-com:datatypes"><Description dt:dt="string">E-Prime Primary Realtime Clock</Description><StartTime><Timestamp dt:dt="int">0</Timestamp><DateUtc dt:dt="string">2015-08-14T15:08:18Z</DateUtc></StartTime><FrequencyChanges><FrequencyChange><Frequency dt:dt="r8">2441416</Frequency><Timestamp dt:dt="r8">47951512226</Timestamp><Current dt:dt="r8">0</Current><DateUtc dt:dt="string">2015-08-14T15:08:18Z</DateUtc></FrequencyChange></FrequencyChanges></Clock>\n	1 ver1_main_procedure-30-1	99.924	1.0.0.880	2	pg	707352857	prawa	1	2.0.10.356	08-14-2015	2015-08-14 15:08:18	17:08:18	kobieta	2.0.10.92	3	6	1	1																							l	{SPACE}		no	BlockProc2		BlockList									6	Free	dl	color_blue.png		0	8	272851	160																								75	prime_left.png	0	272351	0	0	13	0	272351	0	272351	1	272351	20	0	-1	270852	272351	272350	0		TrialProc1	left	0		0	10	272661	-272661		0	0	TrialList2	target_both.png	0	dl	0	3	272401	260	l	442	272843															7	1	6	comp			150
1 ver1_main_procedure	30	1	23	<?xml version="1.0"?>\n<Clock xmlns:dt="urn:schemas-microsoft-com:datatypes"><Description dt:dt="string">E-Prime Primary Realtime Clock</Description><StartTime><Timestamp dt:dt="int">0</Timestamp><DateUtc dt:dt="string">2015-08-14T15:08:18Z</DateUtc></StartTime><FrequencyChanges><FrequencyChange><Frequency dt:dt="r8">2441416</Frequency><Timestamp dt:dt="r8">47951512226</Timestamp><Current dt:dt="r8">0</Current><DateUtc dt:dt="string">2015-08-14T15:08:18Z</DateUtc></FrequencyChange></FrequencyChanges></Clock>\n	1 ver1_main_procedure-30-1	99.924	1.0.0.880	2	pg	707352857	prawa	1	2.0.10.356	08-14-2015	2015-08-14 15:08:18	17:08:18	kobieta	2.0.10.92	3	6	1	1																							l	{SPACE}		no	BlockProc2		BlockList									7	Free	dl	color_yellow.png		0	13	275293	460																								25	prime_right.png	0	274823	0	0	13	0	274823	0	274823	1	274823	20	0	-1	273324	274823	274822	0		TrialProc1	right	0		0	10	275133	-275133		0	0	TrialList2	target_both.png	0	dl	0	3	274873	260	l	407	275280															10	1	7	comp			450
1 ver1_main_procedure	30	1	23	<?xml version="1.0"?>\n<Clock xmlns:dt="urn:schemas-microsoft-com:datatypes"><Description dt:dt="string">E-Prime Primary Realtime Clock</Description><StartTime><Timestamp dt:dt="int">0</Timestamp><DateUtc dt:dt="string">2015-08-14T15:08:18Z</DateUtc></StartTime><FrequencyChanges><FrequencyChange><Frequency dt:dt="r8">2441416</Frequency><Timestamp dt:dt="r8">47951512226</Timestamp><Current dt:dt="r8">0</Current><DateUtc dt:dt="string">2015-08-14T15:08:18Z</DateUtc></FrequencyChange></FrequencyChanges></Clock>\n	1 ver1_main_procedure-30-1	99.924	1.0.0.880	2	pg	707352857	prawa	1	2.0.10.356	08-14-2015	2015-08-14 15:08:18	17:08:18	kobieta	2.0.10.92	3	6	1	1																							l	{SPACE}		no	BlockProc2		BlockList									8	Free	dl	color_purple.png		0	5	278055	460																			1					75	prime_left.png	0	277565	0	0	13	0	277565	0	277565	1	277565	20	0	-1	276066	277565	277564	0	prime_left.png	TrialProc1	left	0		0	10	277875	-277875		0	0	TrialList2	target_both.png	0	dl	0	3	277615	260	l	435	278050															8	1	8	neut			450
1 ver1_main_procedure	30	1	23	<?xml version="1.0"?>\n<Clock xmlns:dt="urn:schemas-microsoft-com:datatypes"><Description dt:dt="string">E-Prime Primary Realtime Clock</Description><StartTime><Timestamp dt:dt="int">0</Timestamp><DateUtc dt:dt="string">2015-08-14T15:08:18Z</DateUtc></StartTime><FrequencyChanges><FrequencyChange><Frequency dt:dt="r8">2441416</Frequency><Timestamp dt:dt="r8">47951512226</Timestamp><Current dt:dt="r8">0</Current><DateUtc dt:dt="string">2015-08-14T15:08:18Z</DateUtc></FrequencyChange></FrequencyChanges></Clock>\n	1 ver1_main_procedure-30-1	99.924	1.0.0.880	2	pg	707352857	prawa	1	2.0.10.356	08-14-2015	2015-08-14 15:08:18	17:08:18	kobieta	2.0.10.92	3	6	1	1																							l	{SPACE}		no	BlockProc2		BlockList									9	Free	dl	color_purple.png		0	11	280927	310																			2					25	prime_right.png	0	280327	0	0	13	0	280327	0	280327	1	280327	20	0	-1	278828	280327	280326	0	prime_right.png	TrialProc1	left	0		0	10	280637	-280637		0	0	TrialList2	target_both.png	0	dl	0	3	280377	260	l	539	280916															8	1	9	neut			300
1 ver1_main_procedure	30	1	23	<?xml version="1.0"?>\n<Clock xmlns:dt="urn:schemas-microsoft-com:datatypes"><Description dt:dt="string">E-Prime Primary Realtime Clock</Description><StartTime><Timestamp dt:dt="int">0</Timestamp><DateUtc dt:dt="string">2015-08-14T15:08:18Z</DateUtc></StartTime><FrequencyChanges><FrequencyChange><Frequency dt:dt="r8">2441416</Frequency><Timestamp dt:dt="r8">47951512226</Timestamp><Current dt:dt="r8">0</Current><DateUtc dt:dt="string">2015-08-14T15:08:18Z</DateUtc></FrequencyChange></FrequencyChanges></Clock>\n	1 ver1_main_procedure-30-1	99.924	1.0.0.880	2	pg	707352857	prawa	1	2.0.10.356	08-14-2015	2015-08-14 15:08:18	17:08:18	kobieta	2.0.10.92	3	6	1	1																							l	{SPACE}		no	BlockProc2		BlockList									10	Free	dl	color_orange.png		0	11	283379	460																								75	prime_left.png	0	283049	0	0	13	0	283049	0	283049	1	283049	20	0	-1	281550	283049	283048	0		TrialProc1	left	0		0	10	283359	-283359		0	0	TrialList2	target_both.png	0	dl	0	3	283099	260	d	269	283368															7	1	10	comp			450
1 ver1_main_procedure	30	1	23	<?xml version="1.0"?>\n<Clock xmlns:dt="urn:schemas-microsoft-com:datatypes"><Description dt:dt="string">E-Prime Primary Realtime Clock</Description><StartTime><Timestamp dt:dt="int">0</Timestamp><DateUtc dt:dt="string">2015-08-14T15:08:18Z</DateUtc></StartTime><FrequencyChanges><FrequencyChange><Frequency dt:dt="r8">2441416</Frequency><Timestamp dt:dt="r8">47951512226</Timestamp><Current dt:dt="r8">0</Current><DateUtc dt:dt="string">2015-08-14T15:08:18Z</DateUtc></FrequencyChange></FrequencyChanges></Clock>\n	1 ver1_main_procedure-30-1	99.924	1.0.0.880	2	pg	707352857	prawa	1	2.0.10.356	08-14-2015	2015-08-14 15:08:18	17:08:18	kobieta	2.0.10.92	3	6	1	1																							l	{SPACE}		no	BlockProc2		BlockList									11	Free	dl	color_orange.png		0	9	286081	310																								75	prime_left.png	0	285651	0	0	13	0	285651	0	285651	1	285651	20	0	-1	284152	285651	285650	0		TrialProc1	right	0		0	10	285961	-285961		0	0	TrialList2	target_both.png	0	dl	0	3	285701	260	d	371	286072															12	1	11	incomp			300
1 ver1_main_procedure	30	1	23	<?xml version="1.0"?>\n<Clock xmlns:dt="urn:schemas-microsoft-com:datatypes"><Description dt:dt="string">E-Prime Primary Realtime Clock</Description><StartTime><Timestamp dt:dt="int">0</Timestamp><DateUtc dt:dt="string">2015-08-14T15:08:18Z</DateUtc></StartTime><FrequencyChanges><FrequencyChange><Frequency dt:dt="r8">2441416</Frequency><Timestamp dt:dt="r8">47951512226</Timestamp><Current dt:dt="r8">0</Current><DateUtc dt:dt="string">2015-08-14T15:08:18Z</DateUtc></FrequencyChange></FrequencyChanges></Clock>\n	1 ver1_main_procedure-30-1	99.924	1.0.0.880	2	pg	707352857	prawa	1	2.0.10.356	08-14-2015	2015-08-14 15:08:18	17:08:18	kobieta	2.0.10.92	3	6	1	1																							l	{SPACE}		no	BlockProc2		BlockList									12	Free	dl	color_yellow.png		0	7	288823	160																								25	prime_right.png	0	288203	0	0	13	0	288203	0	288203	1	288203	20	0	-1	286704	288203	288202	0		TrialProc1	left	0		0	10	288513	-288513		0	0	TrialList2	target_both.png	0	dl	0	3	288253	260	l	563	288816															9	1	12	incomp			150
1 ver1_main_procedure	30	1	23	<?xml version="1.0"?>\n<Clock xmlns:dt="urn:schemas-microsoft-com:datatypes"><Description dt:dt="string">E-Prime Primary Realtime Clock</Description><StartTime><Timestamp dt:dt="int">0</Timestamp><DateUtc dt:dt="string">2015-08-14T15:08:18Z</DateUtc></StartTime><FrequencyChanges><FrequencyChange><Frequency dt:dt="r8">2441416</Frequency><Timestamp dt:dt="r8">47951512226</Timestamp><Current dt:dt="r8">0</Current><DateUtc dt:dt="string">2015-08-14T15:08:18Z</DateUtc></FrequencyChange></FrequencyChanges></Clock>\n	1 ver1_main_procedure-30-1	99.924	1.0.0.880	2	pg	707352857	prawa	1	2.0.10.356	08-14-2015	2015-08-14 15:08:18	17:08:18	kobieta	2.0.10.92	3	6	1	1																							l	{SPACE}		no	BlockProc2		BlockList									13	Free	dl	color_blue.png		0	6	291075	460																								75	prime_left.png	0	290795	0	0	13	0	290795	0	290795	2	290795	20	0	-1	289296	290795	290793	0		TrialProc1	right	0		0	0	0	0		0	0	TrialList2	target_both.png	0	dl	-999999	3	290845	0	l	224	291069															12	1	13	incomp			450
1 ver1_main_procedure	30	1	23	<?xml version="1.0"?>\n<Clock xmlns:dt="urn:schemas-microsoft-com:datatypes"><Description dt:dt="string">E-Prime Primary Realtime Clock</Description><StartTime><Timestamp dt:dt="int">0</Timestamp><DateUtc dt:dt="string">2015-08-14T15:08:18Z</DateUtc></StartTime><FrequencyChanges><FrequencyChange><Frequency dt:dt="r8">2441416</Frequency><Timestamp dt:dt="r8">47951512226</Timestamp><Current dt:dt="r8">0</Current><DateUtc dt:dt="string">2015-08-14T15:08:18Z</DateUtc></FrequencyChange></FrequencyChanges></Clock>\n	1 ver1_main_procedure-30-1	99.924	1.0.0.880	2	pg	707352857	prawa	1	2.0.10.356	08-14-2015	2015-08-14 15:08:18	17:08:18	kobieta	2.0.10.92	3	6	1	1																							l	{SPACE}		no	BlockProc2		BlockList									14	Free	dl	color_green.png		0	11	293627	310																			1					25	prime_left.png	0	293346	0	0	13	1	293347	1	293347	1	293346	20	0	-1	291848	293346	293345	0	prime_left.png	TrialProc1	right	0		0	0	0	0		0	0	TrialList2	target_both.png	0	dl	-999999	3	293396	0	d	220	293616															11	1	14	neut			300
1 ver1_main_procedure	30	1	23	<?xml version="1.0"?>\n<Clock xmlns:dt="urn:schemas-microsoft-com:datatypes"><Description dt:dt="string">E-Prime Primary Realtime Clock</Description><StartTime><Timestamp dt:dt="int">0</Timestamp><DateUtc dt:dt="string">2015-08-14T15:08:18Z</DateUtc></StartTime><FrequencyChanges><FrequencyChange><Frequency dt:dt="r8">2441416</Frequency><Timestamp dt:dt="r8">47951512226</Timestamp><Current dt:dt="r8">0</Current><DateUtc dt:dt="string">2015-08-14T15:08:18Z</DateUtc></FrequencyChange></FrequencyChanges></Clock>\n	1 ver1_main_procedure-30-1	99.924	1.0.0.880	2	pg	707352857	prawa	1	2.0.10.356	08-14-2015	2015-08-14 15:08:18	17:08:18	kobieta	2.0.10.92	3	6	1	1																							l	{SPACE}		no	BlockProc2		BlockList									15	Free	dl	color_red.png		0	12	296078	161																								75	prime_right.png	0	295748	0	0	13	0	295748	0	295748	1	295748	20	0	-1	294249	295748	295747	0		TrialProc1	left	0		1	10	296058	-296058		0	0	TrialList2	target_both.png	0	dl	0	3	295798	260	d	268	296066															9	1	15	incomp			150
1 ver1_main_procedure	30	1	23	<?xml version="1.0"?>\n<Clock xmlns:dt="urn:schemas-microsoft-com:datatypes"><Description dt:dt="string">E-Prime Primary Realtime Clock</Description><StartTime><Timestamp dt:dt="int">0</Timestamp><DateUtc dt:dt="string">2015-08-14T15:08:18Z</DateUtc></StartTime><FrequencyChanges><FrequencyChange><Frequency dt:dt="r8">2441416</Frequency><Timestamp dt:dt="r8">47951512226</Timestamp><Current dt:dt="r8">0</Current><DateUtc dt:dt="string">2015-08-14T15:08:18Z</DateUtc></FrequencyChange></FrequencyChanges></Clock>\n	1 ver1_main_procedure-30-1	99.924	1.0.0.880	2	pg	707352857	prawa	1	2.0.10.356	08-14-2015	2015-08-14 15:08:18	17:08:18	kobieta	2.0.10.92	3	6	1	1																							l	{SPACE}		no	BlockProc2		BlockList									16	Free	dl	color_blue.png		0	8	298320	460																								25	prime_left.png	0	298050	0	0	13	0	298050	0	298050	1	298050	20	0	-1	296551	298050	298049	0		TrialProc1	left	0		0	0	0	0		0	0	TrialList2	target_both.png	0	dl	-999999	3	298100	0	l	212	298312															7	1	16	comp			450
1 ver1_main_procedure	30	1	23	<?xml version="1.0"?>\n<Clock xmlns:dt="urn:schemas-microsoft-com:datatypes"><Description dt:dt="string">E-Prime Primary Realtime Clock</Description><StartTime><Timestamp dt:dt="int">0</Timestamp><DateUtc dt:dt="string">2015-08-14T15:08:18Z</DateUtc></StartTime><FrequencyChanges><FrequencyChange><Frequency dt:dt="r8">2441416</Frequency><Timestamp dt:dt="r8">47951512226</Timestamp><Current dt:dt="r8">0</Current><DateUtc dt:dt="string">2015-08-14T15:08:18Z</DateUtc></FrequencyChange></FrequencyChanges></Clock>\n	1 ver1_main_procedure-30-1	99.924	1.0.0.880	2	pg	707352857	prawa	1	2.0.10.356	08-14-2015	2015-08-14 15:08:18	17:08:18	kobieta	2.0.10.92	3	6	1	1																							l	{SPACE}		no	BlockProc2		BlockList									17	Free	dl	color_yellow.png		0	12	301102	460																								75	prime_right.png	0	300592	0	0	13	0	300592	0	300592	1	300592	20	0	-1	299093	300592	300591	0		TrialProc1	right	0		0	10	300902	-300902		0	0	TrialList2	target_both.png	0	dl	0	3	300642	260	l	448	301090															10	1	17	comp			450
1 ver1_main_procedure	30	1	23	<?xml version="1.0"?>\n<Clock xmlns:dt="urn:schemas-microsoft-com:datatypes"><Description dt:dt="string">E-Prime Primary Realtime Clock</Description><StartTime><Timestamp dt:dt="int">0</Timestamp><DateUtc dt:dt="string">2015-08-14T15:08:18Z</DateUtc></StartTime><FrequencyChanges><FrequencyChange><Frequency dt:dt="r8">2441416</Frequency><Timestamp dt:dt="r8">47951512226</Timestamp><Current dt:dt="r8">0</Current><DateUtc dt:dt="string">2015-08-14T15:08:18Z</DateUtc></FrequencyChange></FrequencyChanges></Clock>\n	1 ver1_main_procedure-30-1	99.924	1.0.0.880	2	pg	707352857	prawa	1	2.0.10.356	08-14-2015	2015-08-14 15:08:18	17:08:18	kobieta	2.0.10.92	3	6	1	1																							l	{SPACE}		no	BlockProc2		BlockList									18	Cued	l	color_yellow.png		0	10	303674	460																								75	prime_right.png	0	303374	0	0	13	0	303374	0	303374	1	303374	20	0	-1	301875	303374	303373	0		TrialProc1	right	0		0	0	0	0		0	0	TrialList2	target_right.png	1	l	-999999	3	303424	0	l	240	303664															4	1	18	comp			450
1 ver1_main_procedure	30	1	23	<?xml version="1.0"?>\n<Clock xmlns:dt="urn:schemas-microsoft-com:datatypes"><Description dt:dt="string">E-Prime Primary Realtime Clock</Description><StartTime><Timestamp dt:dt="int">0</Timestamp><DateUtc dt:dt="string">2015-08-14T15:08:18Z</DateUtc></StartTime><FrequencyChanges><FrequencyChange><Frequency dt:dt="r8">2441416</Frequency><Timestamp dt:dt="r8">47951512226</Timestamp><Current dt:dt="r8">0</Current><DateUtc dt:dt="string">2015-08-14T15:08:18Z</DateUtc></FrequencyChange></FrequencyChanges></Clock>\n	1 ver1_main_procedure-30-1	99.924	1.0.0.880	2	pg	707352857	prawa	1	2.0.10.356	08-14-2015	2015-08-14 15:08:18	17:08:18	kobieta	2.0.10.92	3	6	1	1																							l	{SPACE}		no	BlockProc2		BlockList									19	Cued	l	color_yellow.png		0	8	306316	310																								75	prime_right.png	0	305946	0	0	13	0	305946	0	305946	1	305946	20	0	-1	304447	305946	305945	0		TrialProc1	right	0		0	10	306256	-306256		0	0	TrialList2	target_right.png	1	l	0	3	305996	260	l	312	306308															4	1	19	comp			300
1 ver1_main_procedure	30	1	23	<?xml version="1.0"?>\n<Clock xmlns:dt="urn:schemas-microsoft-com:datatypes"><Description dt:dt="string">E-Prime Primary Realtime Clock</Description><StartTime><Timestamp dt:dt="int">0</Timestamp><DateUtc dt:dt="string">2015-08-14T15:08:18Z</DateUtc></StartTime><FrequencyChanges><FrequencyChange><Frequency dt:dt="r8">2441416</Frequency><Timestamp dt:dt="r8">47951512226</Timestamp><Current dt:dt="r8">0</Current><DateUtc dt:dt="string">2015-08-14T15:08:18Z</DateUtc></FrequencyChange></FrequencyChanges></Clock>\n	1 ver1_main_procedure-30-1	99.924	1.0.0.880	2	pg	707352857	prawa	1	2.0.10.356	08-14-2015	2015-08-14 15:08:18	17:08:18	kobieta	2.0.10.92	3	6	1	1																							l	{SPACE}		no	BlockProc2		BlockList									20	Free	dl	color_purple.png		0	5	309028	160																			2					25	prime_right.png	0	308438	0	0	13	0	308438	0	308438	1	308438	20	0	-1	306939	308438	308437	0	prime_right.png	TrialProc1	left	0		0	10	308748	-308748		0	0	TrialList2	target_both.png	0	dl	0	3	308488	260	l	535	309023															8	1	20	neut			150
1 ver1_main_procedure	30	1	23	<?xml version="1.0"?>\n<Clock xmlns:dt="urn:schemas-microsoft-com:datatypes"><Description dt:dt="string">E-Prime Primary Realtime Clock</Description><StartTime><Timestamp dt:dt="int">0</Timestamp><DateUtc dt:dt="string">2015-08-14T15:08:18Z</DateUtc></StartTime><FrequencyChanges><FrequencyChange><Frequency dt:dt="r8">2441416</Frequency><Timestamp dt:dt="r8">47951512226</Timestamp><Current dt:dt="r8">0</Current><DateUtc dt:dt="string">2015-08-14T15:08:18Z</DateUtc></FrequencyChange></FrequencyChanges></Clock>\n	1 ver1_main_procedure-30-1	99.924	1.0.0.880	2	pg	707352857	prawa	1	2.0.10.356	08-14-2015	2015-08-14 15:08:18	17:08:18	kobieta	2.0.10.92	3	6	1	1																							l	{SPACE}		no	BlockProc2		BlockList									21	Free	dl	color_yellow.png		0	7	311440	310																								25	prime_right.png	0	311000	0	0	13	0	311000	0	311000	2	311000	20	0	-1	309501	311000	310998	0		TrialProc1	right	0		0	10	311310	-311310		0	0	TrialList2	target_both.png	0	dl	0	3	311050	260	l	383	311433															10	1	21	comp			300
1 ver1_main_procedure	30	1	23	<?xml version="1.0"?>\n<Clock xmlns:dt="urn:schemas-microsoft-com:datatypes"><Description dt:dt="string">E-Prime Primary Realtime Clock</Description><StartTime><Timestamp dt:dt="int">0</Timestamp><DateUtc dt:dt="string">2015-08-14T15:08:18Z</DateUtc></StartTime><FrequencyChanges><FrequencyChange><Frequency dt:dt="r8">2441416</Frequency><Timestamp dt:dt="r8">47951512226</Timestamp><Current dt:dt="r8">0</Current><DateUtc dt:dt="string">2015-08-14T15:08:18Z</DateUtc></FrequencyChange></FrequencyChanges></Clock>\n	1 ver1_main_procedure-30-1	99.924	1.0.0.880	2	pg	707352857	prawa	1	2.0.10.356	08-14-2015	2015-08-14 15:08:18	17:08:18	kobieta	2.0.10.92	3	6	1	1																							l	{SPACE}		no	BlockProc2		BlockList									22	Cued	l	color_purple.png		0	5	314092	160																			1					25	prime_left.png	0	313561	0	0	13	1	313562	1	313562	1	313561	20	0	-1	312063	313561	313560	0	prime_left.png	TrialProc1	right	0		0	11	313872	-313872		0	0	TrialList2	target_right.png	1	l	0	3	313611	261	l	476	314087															5	1	22	neut			150
1 ver1_main_procedure	30	1	23	<?xml version="1.0"?>\n<Clock xmlns:dt="urn:schemas-microsoft-com:datatypes"><Description dt:dt="string">E-Prime Primary Realtime Clock</Description><StartTime><Timestamp dt:dt="int">0</Timestamp><DateUtc dt:dt="string">2015-08-14T15:08:18Z</DateUtc></StartTime><FrequencyChanges><FrequencyChange><Frequency dt:dt="r8">2441416</Frequency><Timestamp dt:dt="r8">47951512226</Timestamp><Current dt:dt="r8">0</Current><DateUtc dt:dt="string">2015-08-14T15:08:18Z</DateUtc></FrequencyChange></FrequencyChanges></Clock>\n	1 ver1_main_procedure-30-1	99.924	1.0.0.880	2	pg	707352857	prawa	1	2.0.10.356	08-14-2015	2015-08-14 15:08:18	17:08:18	kobieta	2.0.10.92	3	6	1	1																							l	{SPACE}		no	BlockProc2		BlockList									23	Free	dl	color_green.png		0	13	316594	460																			2					75	prime_right.png	0	316063	0	0	13	0	316063	0	316063	1	316063	20	0	-1	314564	316063	316062	0	prime_right.png	TrialProc1	left	0		1	10	316373	-316373		0	0	TrialList2	target_both.png	0	dl	0	3	316113	260	d	468	316581															8	1	23	neut			450
1 ver1_main_procedure	30	1	23	<?xml version="1.0"?>\n<Clock xmlns:dt="urn:schemas-microsoft-com:datatypes"><Description dt:dt="string">E-Prime Primary Realtime Clock</Description><StartTime><Timestamp dt:dt="int">0</Timestamp><DateUtc dt:dt="string">2015-08-14T15:08:18Z</DateUtc></StartTime><FrequencyChanges><FrequencyChange><Frequency dt:dt="r8">2441416</Frequency><Timestamp dt:dt="r8">47951512226</Timestamp><Current dt:dt="r8">0</Current><DateUtc dt:dt="string">2015-08-14T15:08:18Z</DateUtc></FrequencyChange></FrequencyChanges></Clock>\n	1 ver1_main_procedure-30-1	99.924	1.0.0.880	2	pg	707352857	prawa	1	2.0.10.356	08-14-2015	2015-08-14 15:08:18	17:08:18	kobieta	2.0.10.92	3	6	1	1																							l	{SPACE}		no	BlockProc2		BlockList									24	Cued	l	color_blue.png		0	13	319356	460																								75	prime_left.png	0	318865	0	0	13	0	318866	0	318865	1	318865	20	0	-1	317366	318865	318864	0		TrialProc1	right	0		0	11	319176	-319176		0	0	TrialList2	target_right.png	1	l	0	3	318915	261	l	428	319343															6	1	24	incomp			450
1 ver1_main_procedure	30	1	23	<?xml version="1.0"?>\n<Clock xmlns:dt="urn:schemas-microsoft-com:datatypes"><Description dt:dt="string">E-Prime Primary Realtime Clock</Description><StartTime><Timestamp dt:dt="int">0</Timestamp><DateUtc dt:dt="string">2015-08-14T15:08:18Z</DateUtc></StartTime><FrequencyChanges><FrequencyChange><Frequency dt:dt="r8">2441416</Frequency><Timestamp dt:dt="r8">47951512226</Timestamp><Current dt:dt="r8">0</Current><DateUtc dt:dt="string">2015-08-14T15:08:18Z</DateUtc></FrequencyChange></FrequencyChanges></Clock>\n	1 ver1_main_procedure-30-1	99.924	1.0.0.880	2	pg	707352857	prawa	1	2.0.10.356	08-14-2015	2015-08-14 15:08:18	17:08:18	kobieta	2.0.10.92	3	6	1	1																							l	{SPACE}		no	BlockProc2		BlockList									25	Cued	d	color_red.png		0	13	322068	460																								75	prime_right.png	0	321627	0	0	13	1	321628	1	321628	1	321627	20	0	-1	320129	321627	321626	0		TrialProc1	left	0		0	11	321938	-321938		0	0	TrialList2	target_left.png	1	d	0	3	321677	261	d	378	322055															3	1	25	incomp			450
1 ver1_main_procedure	30	1	23	<?xml version="1.0"?>\n<Clock xmlns:dt="urn:schemas-microsoft-com:datatypes"><Description dt:dt="string">E-Prime Primary Realtime Clock</Description><StartTime><Timestamp dt:dt="int">0</Timestamp><DateUtc dt:dt="string">2015-08-14T15:08:18Z</DateUtc></StartTime><FrequencyChanges><FrequencyChange><Frequency dt:dt="r8">2441416</Frequency><Timestamp dt:dt="r8">47951512226</Timestamp><Current dt:dt="r8">0</Current><DateUtc dt:dt="string">2015-08-14T15:08:18Z</DateUtc></FrequencyChange></FrequencyChanges></Clock>\n	1 ver1_main_procedure-30-1	99.924	1.0.0.880	2	pg	707352857	prawa	1	2.0.10.356	08-14-2015	2015-08-14 15:08:18	17:08:18	kobieta	2.0.10.92	3	6	1	1																							l	{SPACE}		no	BlockProc2		BlockList									26	Free	dl	color_blue.png		0	5	324720	460																								25	prime_left.png	0	324339	0	0	13	1	324340	1	324340	1	324339	20	0	-1	322841	324339	324338	0		TrialProc1	right	0		0	11	324650	-324650		0	0	TrialList2	target_both.png	0	dl	0	3	324389	261	l	326	324715															12	1	26	incomp			450
1 ver1_main_procedure	30	1	23	<?xml version="1.0"?>\n<Clock xmlns:dt="urn:schemas-microsoft-com:datatypes"><Description dt:dt="string">E-Prime Primary Realtime Clock</Description><StartTime><Timestamp dt:dt="int">0</Timestamp><DateUtc dt:dt="string">2015-08-14T15:08:18Z</DateUtc></StartTime><FrequencyChanges><FrequencyChange><Frequency dt:dt="r8">2441416</Frequency><Timestamp dt:dt="r8">47951512226</Timestamp><Current dt:dt="r8">0</Current><DateUtc dt:dt="string">2015-08-14T15:08:18Z</DateUtc></FrequencyChange></FrequencyChanges></Clock>\n	1 ver1_main_procedure-30-1	99.924	1.0.0.880	2	pg	707352857	prawa	1	2.0.10.356	08-14-2015	2015-08-14 15:08:18	17:08:18	kobieta	2.0.10.92	3	6	1	1																							l	{SPACE}		no	BlockProc2		BlockList									27	Cued	d	color_green.png		0	14	327372	460																			1					25	prime_left.png	0	326991	0	0	13	0	326992	0	326991	1	326991	20	0	-1	325492	326991	326990	0	prime_left.png	TrialProc1	left	0		0	11	327302	-327302		0	0	TrialList2	target_left.png	1	d	0	3	327041	261	d	317	327358															2	1	27	neut			450
1 ver1_main_procedure	30	1	23	<?xml version="1.0"?>\n<Clock xmlns:dt="urn:schemas-microsoft-com:datatypes"><Description dt:dt="string">E-Prime Primary Realtime Clock</Description><StartTime><Timestamp dt:dt="int">0</Timestamp><DateUtc dt:dt="string">2015-08-14T15:08:18Z</DateUtc></StartTime><FrequencyChanges><FrequencyChange><Frequency dt:dt="r8">2441416</Frequency><Timestamp dt:dt="r8">47951512226</Timestamp><Current dt:dt="r8">0</Current><DateUtc dt:dt="string">2015-08-14T15:08:18Z</DateUtc></FrequencyChange></FrequencyChanges></Clock>\n	1 ver1_main_procedure-30-1	99.924	1.0.0.880	2	pg	707352857	prawa	1	2.0.10.356	08-14-2015	2015-08-14 15:08:18	17:08:18	kobieta	2.0.10.92	3	6	1	1																							l	{SPACE}		no	BlockProc2		BlockList									28	Free	dl	color_red.png		0	10	330194	160																								75	prime_right.png	0	329643	0	0	13	1	329644	1	329644	1	329643	20	0	-1	328144	329643	329642	0		TrialProc1	left	0		0	11	329954	-329954		0	0	TrialList2	target_both.png	0	dl	0	3	329693	261	d	491	330184															9	1	28	incomp			150
1 ver1_main_procedure	30	1	23	<?xml version="1.0"?>\n<Clock xmlns:dt="urn:schemas-microsoft-com:datatypes"><Description dt:dt="string">E-Prime Primary Realtime Clock</Description><StartTime><Timestamp dt:dt="int">0</Timestamp><DateUtc dt:dt="string">2015-08-14T15:08:18Z</DateUtc></StartTime><FrequencyChanges><FrequencyChange><Frequency dt:dt="r8">2441416</Frequency><Timestamp dt:dt="r8">47951512226</Timestamp><Current dt:dt="r8">0</Current><DateUtc dt:dt="string">2015-08-14T15:08:18Z</DateUtc></FrequencyChange></FrequencyChanges></Clock>\n	1 ver1_main_procedure-30-1	99.924	1.0.0.880	2	pg	707352857	prawa	1	2.0.10.356	08-14-2015	2015-08-14 15:08:18	17:08:18	kobieta	2.0.10.92	3	6	1	1																							l	{SPACE}		no	BlockProc2		BlockList									29	Free	dl	color_green.png		0	6	332746	460																			2					25	prime_right.png	0	332165	0	0	13	0	332165	0	332165	1	332165	20	0	-1	330666	332165	332164	0	prime_right.png	TrialProc1	left	0		1	10	332475	-332475		0	0	TrialList2	target_both.png	0	dl	0	3	332215	260	d	524	332739															8	1	29	neut			450
1 ver1_main_procedure	30	1	23	<?xml version="1.0"?>\n<Clock xmlns:dt="urn:schemas-microsoft-com:datatypes"><Description dt:dt="string">E-Prime Primary Realtime Clock</Description><StartTime><Timestamp dt:dt="int">0</Timestamp><DateUtc dt:dt="string">2015-08-14T15:08:18Z</DateUtc></StartTime><FrequencyChanges><FrequencyChange><Frequency dt:dt="r8">2441416</Frequency><Timestamp dt:dt="r8">47951512226</Timestamp><Current dt:dt="r8">0</Current><DateUtc dt:dt="string">2015-08-14T15:08:18Z</DateUtc></FrequencyChange></FrequencyChanges></Clock>\n	1 ver1_main_procedure-30-1	99.924	1.0.0.880	2	pg	707352857	prawa	1	2.0.10.356	08-14-2015	2015-08-14 15:08:18	17:08:18	kobieta	2.0.10.92	3	6	1	1																							l	{SPACE}		no	BlockProc2		BlockList									30	Free	dl	color_purple.png		0	9	335478	460																			1					25	prime_left.png	0	335017	0	0	13	0	335018	0	335017	1	335017	20	0	-1	333518	335017	335016	0	prime_left.png	TrialProc1	right	0		0	11	335328	-335328		0	0	TrialList2	target_both.png	0	dl	0	3	335067	261	l	402	335469															11	1	30	neut			450
1 ver1_main_procedure	30	1	23	<?xml version="1.0"?>\n<Clock xmlns:dt="urn:schemas-microsoft-com:datatypes"><Description dt:dt="string">E-Prime Primary Realtime Clock</Description><StartTime><Timestamp dt:dt="int">0</Timestamp><DateUtc dt:dt="string">2015-08-14T15:08:18Z</DateUtc></StartTime><FrequencyChanges><FrequencyChange><Frequency dt:dt="r8">2441416</Frequency><Timestamp dt:dt="r8">47951512226</Timestamp><Current dt:dt="r8">0</Current><DateUtc dt:dt="string">2015-08-14T15:08:18Z</DateUtc></FrequencyChange></FrequencyChanges></Clock>\n	1 ver1_main_procedure-30-1	99.924	1.0.0.880	2	pg	707352857	prawa	1	2.0.10.356	08-14-2015	2015-08-14 15:08:18	17:08:18	kobieta	2.0.10.92	3	6	1	1																							l	{SPACE}		no	BlockProc2		BlockList									31	Free	dl	color_yellow.png		0	7	338200	160																								75	prime_right.png	0	337749	0	0	13	1	337750	1	337750	1	337749	20	0	-1	336250	337749	337748	0		TrialProc1	right	0		0	11	338060	-338060		0	0	TrialList2	target_both.png	0	dl	0	3	337799	261	l	394	338193															10	1	31	comp			150
1 ver1_main_procedure	30	1	23	<?xml version="1.0"?>\n<Clock xmlns:dt="urn:schemas-microsoft-com:datatypes"><Description dt:dt="string">E-Prime Primary Realtime Clock</Description><StartTime><Timestamp dt:dt="int">0</Timestamp><DateUtc dt:dt="string">2015-08-14T15:08:18Z</DateUtc></StartTime><FrequencyChanges><FrequencyChange><Frequency dt:dt="r8">2441416</Frequency><Timestamp dt:dt="r8">47951512226</Timestamp><Current dt:dt="r8">0</Current><DateUtc dt:dt="string">2015-08-14T15:08:18Z</DateUtc></FrequencyChange></FrequencyChanges></Clock>\n	1 ver1_main_procedure-30-1	99.924	1.0.0.880	2	pg	707352857	prawa	1	2.0.10.356	08-14-2015	2015-08-14 15:08:18	17:08:18	kobieta	2.0.10.92	3	6	1	1																							l	{SPACE}		no	BlockProc2		BlockList									32	Free	dl	color_purple.png		0	6	340551	161																			2					75	prime_right.png	0	340171	0	0	13	0	340171	0	340171	1	340171	20	0	-1	338672	340171	340170	0	prime_right.png	TrialProc1	right	0		1	10	340481	-340481		0	0	TrialList2	target_both.png	0	dl	0	3	340221	260	l	324	340545															11	1	32	neut			150
1 ver1_main_procedure	30	1	23	<?xml version="1.0"?>\n<Clock xmlns:dt="urn:schemas-microsoft-com:datatypes"><Description dt:dt="string">E-Prime Primary Realtime Clock</Description><StartTime><Timestamp dt:dt="int">0</Timestamp><DateUtc dt:dt="string">2015-08-14T15:08:18Z</DateUtc></StartTime><FrequencyChanges><FrequencyChange><Frequency dt:dt="r8">2441416</Frequency><Timestamp dt:dt="r8">47951512226</Timestamp><Current dt:dt="r8">0</Current><DateUtc dt:dt="string">2015-08-14T15:08:18Z</DateUtc></FrequencyChange></FrequencyChanges></Clock>\n	1 ver1_main_procedure-30-1	99.924	1.0.0.880	2	pg	707352857	prawa	1	2.0.10.356	08-14-2015	2015-08-14 15:08:18	17:08:18	kobieta	2.0.10.92	3	6	1	1																							l	{SPACE}		no	BlockProc2		BlockList									33	Free	dl	color_green.png		0	10	342843	461																			1					75	prime_left.png	0	342523	0	0	13	0	342523	0	342523	1	342523	20	0	-1	341024	342523	342522	0	prime_left.png	TrialProc1	left	0		-999999	10	342833	0		0	0	TrialList2	target_both.png	0	dl	0	3	342573	0	d	257	342830															8	1	33	neut			450
1 ver1_main_procedure	30	1	23	<?xml version="1.0"?>\n<Clock xmlns:dt="urn:schemas-microsoft-com:datatypes"><Description dt:dt="string">E-Prime Primary Realtime Clock</Description><StartTime><Timestamp dt:dt="int">0</Timestamp><DateUtc dt:dt="string">2015-08-14T15:08:18Z</DateUtc></StartTime><FrequencyChanges><FrequencyChange><Frequency dt:dt="r8">2441416</Frequency><Timestamp dt:dt="r8">47951512226</Timestamp><Current dt:dt="r8">0</Current><DateUtc dt:dt="string">2015-08-14T15:08:18Z</DateUtc></FrequencyChange></FrequencyChanges></Clock>\n	1 ver1_main_procedure-30-1	99.924	1.0.0.880	2	pg	707352857	prawa	1	2.0.10.356	08-14-2015	2015-08-14 15:08:18	17:08:18	kobieta	2.0.10.92	3	6	1	1																							l	{SPACE}		no	BlockProc2		BlockList									34	Free	dl	color_red.png		0	13	345555	460																								25	prime_right.png	0	345115	0	0	13	0	345115	0	345115	1	345115	20	0	-1	343616	345115	345114	0		TrialProc1	left	0		0	10	345425	-345425		0	0	TrialList2	target_both.png	0	dl	0	3	345165	260	d	377	345542															9	1	34	incomp			450
1 ver1_main_procedure	30	1	23	<?xml version="1.0"?>\n<Clock xmlns:dt="urn:schemas-microsoft-com:datatypes"><Description dt:dt="string">E-Prime Primary Realtime Clock</Description><StartTime><Timestamp dt:dt="int">0</Timestamp><DateUtc dt:dt="string">2015-08-14T15:08:18Z</DateUtc></StartTime><FrequencyChanges><FrequencyChange><Frequency dt:dt="r8">2441416</Frequency><Timestamp dt:dt="r8">47951512226</Timestamp><Current dt:dt="r8">0</Current><DateUtc dt:dt="string">2015-08-14T15:08:18Z</DateUtc></FrequencyChange></FrequencyChanges></Clock>\n	1 ver1_main_procedure-30-1	99.924	1.0.0.880	2	pg	707352857	prawa	1	2.0.10.356	08-14-2015	2015-08-14 15:08:18	17:08:18	kobieta	2.0.10.92	3	6	1	1																							l	{SPACE}		no	BlockProc2		BlockList									35	Free	dl	color_purple.png		0	7	348317	461																			2					75	prime_right.png	0	347827	0	0	13	0	347827	0	347827	1	347827	20	0	-1	346328	347827	347826	0	prime_right.png	TrialProc1	left	0		0	10	348137	-348137		0	0	TrialList2	target_both.png	0	dl	0	3	347877	260	l	433	348310															8	1	35	neut			450
1 ver1_main_procedure	30	1	23	<?xml version="1.0"?>\n<Clock xmlns:dt="urn:schemas-microsoft-com:datatypes"><Description dt:dt="string">E-Prime Primary Realtime Clock</Description><StartTime><Timestamp dt:dt="int">0</Timestamp><DateUtc dt:dt="string">2015-08-14T15:08:18Z</DateUtc></StartTime><FrequencyChanges><FrequencyChange><Frequency dt:dt="r8">2441416</Frequency><Timestamp dt:dt="r8">47951512226</Timestamp><Current dt:dt="r8">0</Current><DateUtc dt:dt="string">2015-08-14T15:08:18Z</DateUtc></FrequencyChange></FrequencyChanges></Clock>\n	1 ver1_main_procedure-30-1	99.924	1.0.0.880	2	pg	707352857	prawa	1	2.0.10.356	08-14-2015	2015-08-14 15:08:18	17:08:18	kobieta	2.0.10.92	3	6	1	1																							l	{SPACE}		no	BlockProc2		BlockList									36	Free	dl	color_blue.png		0	5	351099	311																								25	prime_left.png	0	350589	0	0	13	0	350589	0	350589	1	350589	20	0	-1	349090	350589	350588	0		TrialProc1	right	0		0	10	350899	-350899		0	0	TrialList2	target_both.png	0	dl	0	3	350639	260	l	455	351094															12	1	36	incomp			300
1 ver1_main_procedure	30	1	23	<?xml version="1.0"?>\n<Clock xmlns:dt="urn:schemas-microsoft-com:datatypes"><Description dt:dt="string">E-Prime Primary Realtime Clock</Description><StartTime><Timestamp dt:dt="int">0</Timestamp><DateUtc dt:dt="string">2015-08-14T15:08:18Z</DateUtc></StartTime><FrequencyChanges><FrequencyChange><Frequency dt:dt="r8">2441416</Frequency><Timestamp dt:dt="r8">47951512226</Timestamp><Current dt:dt="r8">0</Current><DateUtc dt:dt="string">2015-08-14T15:08:18Z</DateUtc></FrequencyChange></FrequencyChanges></Clock>\n	1 ver1_main_procedure-30-1	99.924	1.0.0.880	2	pg	707352857	prawa	1	2.0.10.356	08-14-2015	2015-08-14 15:08:18	17:08:18	kobieta	2.0.10.92	3	6	1	1																							l	{SPACE}		no	BlockProc2		BlockList									37	Free	dl	color_blue.png		0	11	353631	160																								75	prime_left.png	0	353221	0	0	13	0	353221	0	353221	1	353221	20	0	-1	351722	353221	353220	0		TrialProc1	right	0		0	10	353531	-353531		0	0	TrialList2	target_both.png	0	dl	0	3	353271	260	l	349	353620															12	1	37	incomp			150
1 ver1_main_procedure	30	1	23	<?xml version="1.0"?>\n<Clock xmlns:dt="urn:schemas-microsoft-com:datatypes"><Description dt:dt="string">E-Prime Primary Realtime Clock</Description><StartTime><Timestamp dt:dt="int">0</Timestamp><DateUtc dt:dt="string">2015-08-14T15:08:18Z</DateUtc></StartTime><FrequencyChanges><FrequencyChange><Frequency dt:dt="r8">2441416</Frequency><Timestamp dt:dt="r8">47951512226</Timestamp><Current dt:dt="r8">0</Current><DateUtc dt:dt="string">2015-08-14T15:08:18Z</DateUtc></FrequencyChange></FrequencyChanges></Clock>\n	1 ver1_main_procedure-30-1	99.924	1.0.0.880	2	pg	707352857	prawa	1	2.0.10.356	08-14-2015	2015-08-14 15:08:18	17:08:18	kobieta	2.0.10.92	3	6	1	1																							l	{SPACE}		no	BlockProc2		BlockList									38	Free	dl	color_red.png		0	5	355943	160																								75	prime_right.png	0	355603	0	0	13	0	355603	0	355603	2	355603	20	0	-1	354104	355603	355601	0		TrialProc1	left	0		0	10	355913	-355913		0	0	TrialList2	target_both.png	0	dl	0	3	355653	260	d	285	355938															9	1	38	incomp			150
1 ver1_main_procedure	30	1	23	<?xml version="1.0"?>\n<Clock xmlns:dt="urn:schemas-microsoft-com:datatypes"><Description dt:dt="string">E-Prime Primary Realtime Clock</Description><StartTime><Timestamp dt:dt="int">0</Timestamp><DateUtc dt:dt="string">2015-08-14T15:08:18Z</DateUtc></StartTime><FrequencyChanges><FrequencyChange><Frequency dt:dt="r8">2441416</Frequency><Timestamp dt:dt="r8">47951512226</Timestamp><Current dt:dt="r8">0</Current><DateUtc dt:dt="string">2015-08-14T15:08:18Z</DateUtc></FrequencyChange></FrequencyChanges></Clock>\n	1 ver1_main_procedure-30-1	99.924	1.0.0.880	2	pg	707352857	prawa	1	2.0.10.356	08-14-2015	2015-08-14 15:08:18	17:08:18	kobieta	2.0.10.92	3	6	1	1																							l	{SPACE}		no	BlockProc2		BlockList									39	Free	dl	color_orange.png		0	13	358325	460																								25	prime_left.png	0	357914	0	0	13	0	357914	0	357914	1	357914	20	0	-1	356415	357914	357913	0		TrialProc1	left	0		0	11	358225	-358225		0	0	TrialList2	target_both.png	0	dl	0	3	357964	261	d	348	358312															7	1	39	comp			450
1 ver1_main_procedure	30	1	23	<?xml version="1.0"?>\n<Clock xmlns:dt="urn:schemas-microsoft-com:datatypes"><Description dt:dt="string">E-Prime Primary Realtime Clock</Description><StartTime><Timestamp dt:dt="int">0</Timestamp><DateUtc dt:dt="string">2015-08-14T15:08:18Z</DateUtc></StartTime><FrequencyChanges><FrequencyChange><Frequency dt:dt="r8">2441416</Frequency><Timestamp dt:dt="r8">47951512226</Timestamp><Current dt:dt="r8">0</Current><DateUtc dt:dt="string">2015-08-14T15:08:18Z</DateUtc></FrequencyChange></FrequencyChanges></Clock>\n	1 ver1_main_procedure-30-1	99.924	1.0.0.880	2	pg	707352857	prawa	1	2.0.10.356	08-14-2015	2015-08-14 15:08:18	17:08:18	kobieta	2.0.10.92	3	6	1	1																							l	{SPACE}		no	BlockProc2		BlockList									40	Cued	d	color_red.png		0	10	361027	310																								75	prime_right.png	0	360596	0	0	13	0	360597	0	360596	1	360596	20	0	-1	359097	360596	360595	0		TrialProc1	left	0		0	11	360907	-360907		0	0	TrialList2	target_left.png	1	d	0	3	360646	261	d	371	361017															3	1	40	incomp			300
1 ver1_main_procedure	30	1	23	<?xml version="1.0"?>\n<Clock xmlns:dt="urn:schemas-microsoft-com:datatypes"><Description dt:dt="string">E-Prime Primary Realtime Clock</Description><StartTime><Timestamp dt:dt="int">0</Timestamp><DateUtc dt:dt="string">2015-08-14T15:08:18Z</DateUtc></StartTime><FrequencyChanges><FrequencyChange><Frequency dt:dt="r8">2441416</Frequency><Timestamp dt:dt="r8">47951512226</Timestamp><Current dt:dt="r8">0</Current><DateUtc dt:dt="string">2015-08-14T15:08:18Z</DateUtc></FrequencyChange></FrequencyChanges></Clock>\n	1 ver1_main_procedure-30-1	99.924	1.0.0.880	2	pg	707352857	prawa	1	2.0.10.356	08-14-2015	2015-08-14 15:08:18	17:08:18	kobieta	2.0.10.92	3	6	1	1																							l	{SPACE}		no	BlockProc2		BlockList									41	Free	dl	color_orange.png		0	10	363609	460																								25	prime_left.png	0	363148	0	0	13	0	363148	0	363148	1	363148	20	0	-1	361649	363148	363147	0		TrialProc1	right	0		1	10	363458	-363458		0	0	TrialList2	target_both.png	0	dl	0	3	363198	260	d	401	363599															12	1	41	incomp			450
1 ver1_main_procedure	30	1	23	<?xml version="1.0"?>\n<Clock xmlns:dt="urn:schemas-microsoft-com:datatypes"><Description dt:dt="string">E-Prime Primary Realtime Clock</Description><StartTime><Timestamp dt:dt="int">0</Timestamp><DateUtc dt:dt="string">2015-08-14T15:08:18Z</DateUtc></StartTime><FrequencyChanges><FrequencyChange><Frequency dt:dt="r8">2441416</Frequency><Timestamp dt:dt="r8">47951512226</Timestamp><Current dt:dt="r8">0</Current><DateUtc dt:dt="string">2015-08-14T15:08:18Z</DateUtc></FrequencyChange></FrequencyChanges></Clock>\n	1 ver1_main_procedure-30-1	99.924	1.0.0.880	2	pg	707352857	prawa	1	2.0.10.356	08-14-2015	2015-08-14 15:08:18	17:08:18	kobieta	2.0.10.92	3	6	1	1																							l	{SPACE}		no	BlockProc2		BlockList									42	Free	dl	color_yellow.png		0	6	366451	460																								75	prime_right.png	0	365880	0	0	13	0	365880	0	365880	1	365880	20	0	-1	364381	365880	365879	0		TrialProc1	left	0		1	10	366190	-366190		0	0	TrialList2	target_both.png	0	dl	0	3	365930	260	l	515	366445															9	1	42	incomp			450
1 ver1_main_procedure	30	1	23	<?xml version="1.0"?>\n<Clock xmlns:dt="urn:schemas-microsoft-com:datatypes"><Description dt:dt="string">E-Prime Primary Realtime Clock</Description><StartTime><Timestamp dt:dt="int">0</Timestamp><DateUtc dt:dt="string">2015-08-14T15:08:18Z</DateUtc></StartTime><FrequencyChanges><FrequencyChange><Frequency dt:dt="r8">2441416</Frequency><Timestamp dt:dt="r8">47951512226</Timestamp><Current dt:dt="r8">0</Current><DateUtc dt:dt="string">2015-08-14T15:08:18Z</DateUtc></FrequencyChange></FrequencyChanges></Clock>\n	1 ver1_main_procedure-30-1	99.924	1.0.0.880	2	pg	707352857	prawa	1	2.0.10.356	08-14-2015	2015-08-14 15:08:18	17:08:18	kobieta	2.0.10.92	3	6	1	1																							l	{SPACE}		no	BlockProc2		BlockList									43	Free	dl	color_yellow.png		0	6	369213	310																								25	prime_right.png	0	368722	0	0	13	0	368722	0	368722	1	368722	20	0	-1	367223	368722	368721	0		TrialProc1	right	0		0	11	369033	-369033		0	0	TrialList2	target_both.png	0	dl	0	3	368772	261	l	435	369207															10	1	43	comp			300
1 ver1_main_procedure	30	1	23	<?xml version="1.0"?>\n<Clock xmlns:dt="urn:schemas-microsoft-com:datatypes"><Description dt:dt="string">E-Prime Primary Realtime Clock</Description><StartTime><Timestamp dt:dt="int">0</Timestamp><DateUtc dt:dt="string">2015-08-14T15:08:18Z</DateUtc></StartTime><FrequencyChanges><FrequencyChange><Frequency dt:dt="r8">2441416</Frequency><Timestamp dt:dt="r8">47951512226</Timestamp><Current dt:dt="r8">0</Current><DateUtc dt:dt="string">2015-08-14T15:08:18Z</DateUtc></FrequencyChange></FrequencyChanges></Clock>\n	1 ver1_main_procedure-30-1	99.924	1.0.0.880	2	pg	707352857	prawa	1	2.0.10.356	08-14-2015	2015-08-14 15:08:18	17:08:18	kobieta	2.0.10.92	3	6	1	1																							l	{SPACE}		no	BlockProc2		BlockList									44	Free	dl	color_yellow.png		0	6	371815	160																								75	prime_right.png	0	371334	0	0	13	0	371334	0	371334	1	371334	20	0	-1	369835	371334	371333	0		TrialProc1	left	0		0	11	371645	-371645		0	0	TrialList2	target_both.png	0	dl	0	3	371384	261	l	425	371809															9	1	44	incomp			150
1 ver1_main_procedure	30	1	23	<?xml version="1.0"?>\n<Clock xmlns:dt="urn:schemas-microsoft-com:datatypes"><Description dt:dt="string">E-Prime Primary Realtime Clock</Description><StartTime><Timestamp dt:dt="int">0</Timestamp><DateUtc dt:dt="string">2015-08-14T15:08:18Z</DateUtc></StartTime><FrequencyChanges><FrequencyChange><Frequency dt:dt="r8">2441416</Frequency><Timestamp dt:dt="r8">47951512226</Timestamp><Current dt:dt="r8">0</Current><DateUtc dt:dt="string">2015-08-14T15:08:18Z</DateUtc></FrequencyChange></FrequencyChanges></Clock>\n	1 ver1_main_procedure-30-1	99.924	1.0.0.880	2	pg	707352857	prawa	1	2.0.10.356	08-14-2015	2015-08-14 15:08:18	17:08:18	kobieta	2.0.10.92	3	6	1	1																							l	{SPACE}		no	BlockProc2		BlockList									45	Free	dl	color_orange.png		0	7	374206	461																								25	prime_left.png	0	373786	0	0	13	0	373786	0	373786	1	373786	20	0	-1	372287	373786	373785	0		TrialProc1	right	0		0	10	374096	-374096		0	0	TrialList2	target_both.png	0	dl	0	3	373836	260	d	362	374198															12	1	45	incomp			450
1 ver1_main_procedure	30	1	23	<?xml version="1.0"?>\n<Clock xmlns:dt="urn:schemas-microsoft-com:datatypes"><Description dt:dt="string">E-Prime Primary Realtime Clock</Description><StartTime><Timestamp dt:dt="int">0</Timestamp><DateUtc dt:dt="string">2015-08-14T15:08:18Z</DateUtc></StartTime><FrequencyChanges><FrequencyChange><Frequency dt:dt="r8">2441416</Frequency><Timestamp dt:dt="r8">47951512226</Timestamp><Current dt:dt="r8">0</Current><DateUtc dt:dt="string">2015-08-14T15:08:18Z</DateUtc></FrequencyChange></FrequencyChanges></Clock>\n	1 ver1_main_procedure-30-1	99.924	1.0.0.880	2	pg	707352857	prawa	1	2.0.10.356	08-14-2015	2015-08-14 15:08:18	17:08:18	kobieta	2.0.10.92	3	6	1	1																							l	{SPACE}		no	BlockProc2		BlockList									46	Free	dl	color_yellow.png		0	11	377008	461																								75	prime_right.png	0	376478	0	0	13	0	376478	0	376478	1	376478	20	0	-1	374979	376478	376477	0		TrialProc1	left	0		0	10	376788	-376788		0	0	TrialList2	target_both.png	0	dl	0	3	376528	260	l	469	376997															9	1	46	incomp			450
1 ver1_main_procedure	30	1	23	<?xml version="1.0"?>\n<Clock xmlns:dt="urn:schemas-microsoft-com:datatypes"><Description dt:dt="string">E-Prime Primary Realtime Clock</Description><StartTime><Timestamp dt:dt="int">0</Timestamp><DateUtc dt:dt="string">2015-08-14T15:08:18Z</DateUtc></StartTime><FrequencyChanges><FrequencyChange><Frequency dt:dt="r8">2441416</Frequency><Timestamp dt:dt="r8">47951512226</Timestamp><Current dt:dt="r8">0</Current><DateUtc dt:dt="string">2015-08-14T15:08:18Z</DateUtc></FrequencyChange></FrequencyChanges></Clock>\n	1 ver1_main_procedure-30-1	99.924	1.0.0.880	2	pg	707352857	prawa	1	2.0.10.356	08-14-2015	2015-08-14 15:08:18	17:08:18	kobieta	2.0.10.92	3	6	1	1																							l	{SPACE}		no	BlockProc2		BlockList									47	Free	dl	color_orange.png		0	12	379721	460																								75	prime_left.png	0	379280	0	0	13	0	379280	0	379280	1	379280	20	0	-1	377781	379280	379279	0		TrialProc1	left	0		0	10	379590	-379590		0	0	TrialList2	target_both.png	0	dl	0	3	379330	260	d	379	379709															7	1	47	comp			450
1 ver1_main_procedure	30	1	23	<?xml version="1.0"?>\n<Clock xmlns:dt="urn:schemas-microsoft-com:datatypes"><Description dt:dt="string">E-Prime Primary Realtime Clock</Description><StartTime><Timestamp dt:dt="int">0</Timestamp><DateUtc dt:dt="string">2015-08-14T15:08:18Z</DateUtc></StartTime><FrequencyChanges><FrequencyChange><Frequency dt:dt="r8">2441416</Frequency><Timestamp dt:dt="r8">47951512226</Timestamp><Current dt:dt="r8">0</Current><DateUtc dt:dt="string">2015-08-14T15:08:18Z</DateUtc></FrequencyChange></FrequencyChanges></Clock>\n	1 ver1_main_procedure-30-1	99.924	1.0.0.880	2	pg	707352857	prawa	1	2.0.10.356	08-14-2015	2015-08-14 15:08:18	17:08:18	kobieta	2.0.10.92	3	6	1	1																							l	{SPACE}		no	BlockProc2		BlockList									48	Free	dl	color_green.png		0	9	382412	461																			1					75	prime_left.png	0	381992	0	0	13	0	381992	0	381992	1	381992	20	0	-1	380493	381992	381991	0	prime_left.png	TrialProc1	right	0		1	10	382302	-382302		0	0	TrialList2	target_both.png	0	dl	0	3	382042	260	d	361	382403															11	1	48	neut			450
1 ver1_main_procedure	30	1	23	<?xml version="1.0"?>\n<Clock xmlns:dt="urn:schemas-microsoft-com:datatypes"><Description dt:dt="string">E-Prime Primary Realtime Clock</Description><StartTime><Timestamp dt:dt="int">0</Timestamp><DateUtc dt:dt="string">2015-08-14T15:08:18Z</DateUtc></StartTime><FrequencyChanges><FrequencyChange><Frequency dt:dt="r8">2441416</Frequency><Timestamp dt:dt="r8">47951512226</Timestamp><Current dt:dt="r8">0</Current><DateUtc dt:dt="string">2015-08-14T15:08:18Z</DateUtc></FrequencyChange></FrequencyChanges></Clock>\n	1 ver1_main_procedure-30-1	99.924	1.0.0.880	2	pg	707352857	prawa	1	2.0.10.356	08-14-2015	2015-08-14 15:08:18	17:08:18	kobieta	2.0.10.92	3	6	1	1																							l	{SPACE}		no	BlockProc2		BlockList									49	Free	dl	color_yellow.png		0	13	385044	311																								75	prime_right.png	0	384684	0	0	13	0	384684	0	384684	1	384684	20	0	-1	383185	384684	384683	0		TrialProc1	left	0		1	10	384994	-384994		0	0	TrialList2	target_both.png	0	dl	0	3	384734	260	l	297	385031															9	1	49	incomp			300
1 ver1_main_procedure	30	1	23	<?xml version="1.0"?>\n<Clock xmlns:dt="urn:schemas-microsoft-com:datatypes"><Description dt:dt="string">E-Prime Primary Realtime Clock</Description><StartTime><Timestamp dt:dt="int">0</Timestamp><DateUtc dt:dt="string">2015-08-14T15:08:18Z</DateUtc></StartTime><FrequencyChanges><FrequencyChange><Frequency dt:dt="r8">2441416</Frequency><Timestamp dt:dt="r8">47951512226</Timestamp><Current dt:dt="r8">0</Current><DateUtc dt:dt="string">2015-08-14T15:08:18Z</DateUtc></FrequencyChange></FrequencyChanges></Clock>\n	1 ver1_main_procedure-30-1	99.924	1.0.0.880	2	pg	707352857	prawa	1	2.0.10.356	08-14-2015	2015-08-14 15:08:18	17:08:18	kobieta	2.0.10.92	3	6	1	1																							l	{SPACE}		no	BlockProc2		BlockList									50	Free	dl	color_orange.png		0	9	387666	311																								25	prime_left.png	0	387166	0	0	13	0	387166	0	387166	1	387166	20	0	-1	385667	387166	387165	0		TrialProc1	left	0		0	10	387476	-387476		0	0	TrialList2	target_both.png	0	dl	0	3	387216	260	d	441	387657															7	1	50	comp			300
1 ver1_main_procedure	30	1	23	<?xml version="1.0"?>\n<Clock xmlns:dt="urn:schemas-microsoft-com:datatypes"><Description dt:dt="string">E-Prime Primary Realtime Clock</Description><StartTime><Timestamp dt:dt="int">0</Timestamp><DateUtc dt:dt="string">2015-08-14T15:08:18Z</DateUtc></StartTime><FrequencyChanges><FrequencyChange><Frequency dt:dt="r8">2441416</Frequency><Timestamp dt:dt="r8">47951512226</Timestamp><Current dt:dt="r8">0</Current><DateUtc dt:dt="string">2015-08-14T15:08:18Z</DateUtc></FrequencyChange></FrequencyChanges></Clock>\n	1 ver1_main_procedure-30-1	99.924	1.0.0.880	2	pg	707352857	prawa	1	2.0.10.356	08-14-2015	2015-08-14 15:08:18	17:08:18	kobieta	2.0.10.92	3	6	1	1																							l	{SPACE}		no	BlockProc2		BlockList									51	Free	dl	color_blue.png		0	6	390539	460																								25	prime_left.png	0	389788	0	0	13	0	389788	0	389788	1	389788	20	0	-1	388289	389788	389787	0		TrialProc1	left	0		0	10	390098	-390098		0	0	TrialList2	target_both.png	0	dl	0	3	389838	260	l	695	390533															7	1	51	comp			450
1 ver1_main_procedure	30	1	23	<?xml version="1.0"?>\n<Clock xmlns:dt="urn:schemas-microsoft-com:datatypes"><Description dt:dt="string">E-Prime Primary Realtime Clock</Description><StartTime><Timestamp dt:dt="int">0</Timestamp><DateUtc dt:dt="string">2015-08-14T15:08:18Z</DateUtc></StartTime><FrequencyChanges><FrequencyChange><Frequency dt:dt="r8">2441416</Frequency><Timestamp dt:dt="r8">47951512226</Timestamp><Current dt:dt="r8">0</Current><DateUtc dt:dt="string">2015-08-14T15:08:18Z</DateUtc></FrequencyChange></FrequencyChanges></Clock>\n	1 ver1_main_procedure-30-1	99.924	1.0.0.880	2	pg	707352857	prawa	1	2.0.10.356	08-14-2015	2015-08-14 15:08:18	17:08:18	kobieta	2.0.10.92	3	6	1	1																							l	{SPACE}		no	BlockProc2		BlockList									52	Free	dl	color_green.png		0	13	393671	460																			2					75	prime_right.png	0	392810	0	0	13	0	392810	0	392810	1	392810	20	0	-1	391311	392810	392809	0	prime_right.png	TrialProc1	right	0		1	10	393120	-393120		0	0	TrialList2	target_both.png	0	dl	0	3	392860	260	d	798	393658															11	1	52	neut			450
1 ver1_main_procedure	30	1	23	<?xml version="1.0"?>\n<Clock xmlns:dt="urn:schemas-microsoft-com:datatypes"><Description dt:dt="string">E-Prime Primary Realtime Clock</Description><StartTime><Timestamp dt:dt="int">0</Timestamp><DateUtc dt:dt="string">2015-08-14T15:08:18Z</DateUtc></StartTime><FrequencyChanges><FrequencyChange><Frequency dt:dt="r8">2441416</Frequency><Timestamp dt:dt="r8">47951512226</Timestamp><Current dt:dt="r8">0</Current><DateUtc dt:dt="string">2015-08-14T15:08:18Z</DateUtc></FrequencyChange></FrequencyChanges></Clock>\n	1 ver1_main_procedure-30-1	99.924	1.0.0.880	2	pg	707352857	prawa	1	2.0.10.356	08-14-2015	2015-08-14 15:08:18	17:08:18	kobieta	2.0.10.92	3	6	1	1																							l	{SPACE}		no	BlockProc2		BlockList									53	Free	dl	color_purple.png		0	9	396643	160																			1					75	prime_left.png	0	395943	0	0	13	0	395943	0	395943	2	395943	20	0	-1	394444	395943	395941	0	prime_left.png	TrialProc1	right	0		0	10	396253	-396253		0	0	TrialList2	target_both.png	0	dl	0	3	395993	260	l	641	396634															11	1	53	neut			150
1 ver1_main_procedure	30	1	23	<?xml version="1.0"?>\n<Clock xmlns:dt="urn:schemas-microsoft-com:datatypes"><Description dt:dt="string">E-Prime Primary Realtime Clock</Description><StartTime><Timestamp dt:dt="int">0</Timestamp><DateUtc dt:dt="string">2015-08-14T15:08:18Z</DateUtc></StartTime><FrequencyChanges><FrequencyChange><Frequency dt:dt="r8">2441416</Frequency><Timestamp dt:dt="r8">47951512226</Timestamp><Current dt:dt="r8">0</Current><DateUtc dt:dt="string">2015-08-14T15:08:18Z</DateUtc></FrequencyChange></FrequencyChanges></Clock>\n	1 ver1_main_procedure-30-1	99.924	1.0.0.880	2	pg	707352857	prawa	1	2.0.10.356	08-14-2015	2015-08-14 15:08:18	17:08:18	kobieta	2.0.10.92	3	6	1	1																							l	{SPACE}		no	BlockProc2		BlockList									54	Cued	l	color_purple.png		0	11	399395	460																			2					75	prime_right.png	1	398615	0	0	13	1	398615	1	398615	1	398614	20	0	-1	397116	398614	398613	0	prime_right.png	TrialProc1	right	0		0	10	398925	-398925		0	0	TrialList2	target_right.png	1	l	0	4	398665	260	l	719	399384															5	1	54	neut			450
1 ver1_main_procedure	30	1	23	<?xml version="1.0"?>\n<Clock xmlns:dt="urn:schemas-microsoft-com:datatypes"><Description dt:dt="string">E-Prime Primary Realtime Clock</Description><StartTime><Timestamp dt:dt="int">0</Timestamp><DateUtc dt:dt="string">2015-08-14T15:08:18Z</DateUtc></StartTime><FrequencyChanges><FrequencyChange><Frequency dt:dt="r8">2441416</Frequency><Timestamp dt:dt="r8">47951512226</Timestamp><Current dt:dt="r8">0</Current><DateUtc dt:dt="string">2015-08-14T15:08:18Z</DateUtc></FrequencyChange></FrequencyChanges></Clock>\n	1 ver1_main_procedure-30-1	99.924	1.0.0.880	2	pg	707352857	prawa	1	2.0.10.356	08-14-2015	2015-08-14 15:08:18	17:08:18	kobieta	2.0.10.92	3	6	1	1																							l	{SPACE}		no	BlockProc2		BlockList									55	Cued	d	color_orange.png		0	13	402117	160																								25	prime_left.png	0	401667	0	0	13	0	401667	0	401667	1	401667	20	0	-1	400168	401667	401666	0		TrialProc1	left	0		0	10	401977	-401977		0	0	TrialList2	target_left.png	1	d	0	3	401717	260	d	387	402104															1	1	55	comp			150
1 ver1_main_procedure	30	1	23	<?xml version="1.0"?>\n<Clock xmlns:dt="urn:schemas-microsoft-com:datatypes"><Description dt:dt="string">E-Prime Primary Realtime Clock</Description><StartTime><Timestamp dt:dt="int">0</Timestamp><DateUtc dt:dt="string">2015-08-14T15:08:18Z</DateUtc></StartTime><FrequencyChanges><FrequencyChange><Frequency dt:dt="r8">2441416</Frequency><Timestamp dt:dt="r8">47951512226</Timestamp><Current dt:dt="r8">0</Current><DateUtc dt:dt="string">2015-08-14T15:08:18Z</DateUtc></FrequencyChange></FrequencyChanges></Clock>\n	1 ver1_main_procedure-30-1	99.924	1.0.0.880	2	pg	707352857	prawa	1	2.0.10.356	08-14-2015	2015-08-14 15:08:18	17:08:18	kobieta	2.0.10.92	3	6	1	1																							l	{SPACE}		no	BlockProc2		BlockList									56	Free	dl	color_blue.png		0	13	404959	160																								75	prime_left.png	0	404089	0	0	13	0	404089	0	404089	2	404089	20	0	-1	402590	404089	404087	0		TrialProc1	right	0		0	10	404399	-404399		0	0	TrialList2	target_both.png	0	dl	0	3	404139	260	l	807	404946															12	1	56	incomp			150
1 ver1_main_procedure	30	1	23	<?xml version="1.0"?>\n<Clock xmlns:dt="urn:schemas-microsoft-com:datatypes"><Description dt:dt="string">E-Prime Primary Realtime Clock</Description><StartTime><Timestamp dt:dt="int">0</Timestamp><DateUtc dt:dt="string">2015-08-14T15:08:18Z</DateUtc></StartTime><FrequencyChanges><FrequencyChange><Frequency dt:dt="r8">2441416</Frequency><Timestamp dt:dt="r8">47951512226</Timestamp><Current dt:dt="r8">0</Current><DateUtc dt:dt="string">2015-08-14T15:08:18Z</DateUtc></FrequencyChange></FrequencyChanges></Clock>\n	1 ver1_main_procedure-30-1	99.924	1.0.0.880	2	pg	707352857	prawa	1	2.0.10.356	08-14-2015	2015-08-14 15:08:18	17:08:18	kobieta	2.0.10.92	3	6	1	1																							l	{SPACE}		no	BlockProc2		BlockList									57	Cued	d	color_red.png		0	7	407381	310																								25	prime_right.png	0	406931	0	0	13	0	406931	0	406931	1	406931	20	0	-1	405432	406931	406930	0		TrialProc1	left	0		0	10	407241	-407241		0	0	TrialList2	target_left.png	1	d	0	3	406981	260	d	393	407374															3	1	57	incomp			300
1 ver1_main_procedure	30	1	23	<?xml version="1.0"?>\n<Clock xmlns:dt="urn:schemas-microsoft-com:datatypes"><Description dt:dt="string">E-Prime Primary Realtime Clock</Description><StartTime><Timestamp dt:dt="int">0</Timestamp><DateUtc dt:dt="string">2015-08-14T15:08:18Z</DateUtc></StartTime><FrequencyChanges><FrequencyChange><Frequency dt:dt="r8">2441416</Frequency><Timestamp dt:dt="r8">47951512226</Timestamp><Current dt:dt="r8">0</Current><DateUtc dt:dt="string">2015-08-14T15:08:18Z</DateUtc></FrequencyChange></FrequencyChanges></Clock>\n	1 ver1_main_procedure-30-1	99.924	1.0.0.880	2	pg	707352857	prawa	1	2.0.10.356	08-14-2015	2015-08-14 15:08:18	17:08:18	kobieta	2.0.10.92	3	6	1	1																							l	{SPACE}		no	BlockProc2		BlockList									58	Cued	d	color_orange.png		0	6	409913	160																								25	prime_left.png	0	409503	0	0	13	0	409503	0	409503	2	409503	20	0	-1	408004	409503	409501	0		TrialProc1	left	0		0	10	409813	-409813		0	0	TrialList2	target_left.png	1	d	0	3	409553	260	d	354	409907															1	1	58	comp			150
1 ver1_main_procedure	30	1	23	<?xml version="1.0"?>\n<Clock xmlns:dt="urn:schemas-microsoft-com:datatypes"><Description dt:dt="string">E-Prime Primary Realtime Clock</Description><StartTime><Timestamp dt:dt="int">0</Timestamp><DateUtc dt:dt="string">2015-08-14T15:08:18Z</DateUtc></StartTime><FrequencyChanges><FrequencyChange><Frequency dt:dt="r8">2441416</Frequency><Timestamp dt:dt="r8">47951512226</Timestamp><Current dt:dt="r8">0</Current><DateUtc dt:dt="string">2015-08-14T15:08:18Z</DateUtc></FrequencyChange></FrequencyChanges></Clock>\n	1 ver1_main_procedure-30-1	99.924	1.0.0.880	2	pg	707352857	prawa	1	2.0.10.356	08-14-2015	2015-08-14 15:08:18	17:08:18	kobieta	2.0.10.92	3	6	1	1																							l	{SPACE}		no	BlockProc2		BlockList									59	Cued	d	color_orange.png		0	10	412285	460																								25	prime_left.png	0	411884	0	0	13	0	411884	0	411884	1	411884	20	0	-1	410386	411884	411883	0		TrialProc1	left	0		0	11	412195	-412195		0	0	TrialList2	target_left.png	1	d	0	3	411934	261	d	340	412274															1	1	59	comp			450
1 ver1_main_procedure	30	1	23	<?xml version="1.0"?>\n<Clock xmlns:dt="urn:schemas-microsoft-com:datatypes"><Description dt:dt="string">E-Prime Primary Realtime Clock</Description><StartTime><Timestamp dt:dt="int">0</Timestamp><DateUtc dt:dt="string">2015-08-14T15:08:18Z</DateUtc></StartTime><FrequencyChanges><FrequencyChange><Frequency dt:dt="r8">2441416</Frequency><Timestamp dt:dt="r8">47951512226</Timestamp><Current dt:dt="r8">0</Current><DateUtc dt:dt="string">2015-08-14T15:08:18Z</DateUtc></FrequencyChange></FrequencyChanges></Clock>\n	1 ver1_main_procedure-30-1	99.924	1.0.0.880	2	pg	707352857	prawa	1	2.0.10.356	08-14-2015	2015-08-14 15:08:18	17:08:18	kobieta	2.0.10.92	3	6	1	1																							l	{SPACE}		no	BlockProc2		BlockList									60	Cued	l	color_yellow.png		0	10	414947	310																								75	prime_right.png	0	414556	0	0	13	0	414556	0	414556	1	414556	20	0	-1	413057	414556	414555	0		TrialProc1	right	0		0	11	414867	-414867		0	0	TrialList2	target_right.png	1	l	0	3	414606	261	l	330	414936															4	1	60	comp			300
1 ver1_main_procedure	30	1	23	<?xml version="1.0"?>\n<Clock xmlns:dt="urn:schemas-microsoft-com:datatypes"><Description dt:dt="string">E-Prime Primary Realtime Clock</Description><StartTime><Timestamp dt:dt="int">0</Timestamp><DateUtc dt:dt="string">2015-08-14T15:08:18Z</DateUtc></StartTime><FrequencyChanges><FrequencyChange><Frequency dt:dt="r8">2441416</Frequency><Timestamp dt:dt="r8">47951512226</Timestamp><Current dt:dt="r8">0</Current><DateUtc dt:dt="string">2015-08-14T15:08:18Z</DateUtc></FrequencyChange></FrequencyChanges></Clock>\n	1 ver1_main_procedure-30-1	99.924	1.0.0.880	2	pg	707352857	prawa	1	2.0.10.356	08-14-2015	2015-08-14 15:08:18	17:08:18	kobieta	2.0.10.92	3	6	1	1																							l	{SPACE}		no	BlockProc2		BlockList									61	Cued	l	color_blue.png		0	15	417549	160																								25	prime_left.png	0	417068	0	0	13	0	417068	0	417068	1	417068	20	0	-1	415569	417068	417067	0		TrialProc1	right	0		0	10	417378	-417378		0	0	TrialList2	target_right.png	1	l	0	3	417118	260	l	416	417534															6	1	61	incomp			150
1 ver1_main_procedure	30	1	23	<?xml version="1.0"?>\n<Clock xmlns:dt="urn:schemas-microsoft-com:datatypes"><Description dt:dt="string">E-Prime Primary Realtime Clock</Description><StartTime><Timestamp dt:dt="int">0</Timestamp><DateUtc dt:dt="string">2015-08-14T15:08:18Z</DateUtc></StartTime><FrequencyChanges><FrequencyChange><Frequency dt:dt="r8">2441416</Frequency><Timestamp dt:dt="r8">47951512226</Timestamp><Current dt:dt="r8">0</Current><DateUtc dt:dt="string">2015-08-14T15:08:18Z</DateUtc></FrequencyChange></FrequencyChanges></Clock>\n	1 ver1_main_procedure-30-1	99.924	1.0.0.880	2	pg	707352857	prawa	1	2.0.10.356	08-14-2015	2015-08-14 15:08:18	17:08:18	kobieta	2.0.10.92	3	6	1	1																							l	{SPACE}		no	BlockProc2		BlockList									62	Free	dl	color_green.png		0	10	419870	461																			1					25	prime_left.png	0	419520	0	0	13	0	419520	0	419520	1	419520	20	0	-1	418021	419520	419519	0	prime_left.png	TrialProc1	right	0		0	10	419830	-419830		0	0	TrialList2	target_both.png	0	dl	0	3	419570	260	d	290	419860															11	1	62	neut			450
1 ver1_main_procedure	30	1	23	<?xml version="1.0"?>\n<Clock xmlns:dt="urn:schemas-microsoft-com:datatypes"><Description dt:dt="string">E-Prime Primary Realtime Clock</Description><StartTime><Timestamp dt:dt="int">0</Timestamp><DateUtc dt:dt="string">2015-08-14T15:08:18Z</DateUtc></StartTime><FrequencyChanges><FrequencyChange><Frequency dt:dt="r8">2441416</Frequency><Timestamp dt:dt="r8">47951512226</Timestamp><Current dt:dt="r8">0</Current><DateUtc dt:dt="string">2015-08-14T15:08:18Z</DateUtc></FrequencyChange></FrequencyChanges></Clock>\n	1 ver1_main_procedure-30-1	99.924	1.0.0.880	2	pg	707352857	prawa	1	2.0.10.356	08-14-2015	2015-08-14 15:08:18	17:08:18	kobieta	2.0.10.92	3	6	1	1																							l	{SPACE}		no	BlockProc2		BlockList									63	Cued	d	color_green.png		0	6	422512	160																			2					25	prime_right.png	0	422142	0	0	13	0	422142	0	422142	1	422142	20	0	-1	420643	422142	422141	0	prime_right.png	TrialProc1	left	0		0	10	422452	-422452		0	0	TrialList2	target_left.png	1	d	0	3	422192	260	d	314	422506															2	1	63	neut			150
1 ver1_main_procedure	30	1	23	<?xml version="1.0"?>\n<Clock xmlns:dt="urn:schemas-microsoft-com:datatypes"><Description dt:dt="string">E-Prime Primary Realtime Clock</Description><StartTime><Timestamp dt:dt="int">0</Timestamp><DateUtc dt:dt="string">2015-08-14T15:08:18Z</DateUtc></StartTime><FrequencyChanges><FrequencyChange><Frequency dt:dt="r8">2441416</Frequency><Timestamp dt:dt="r8">47951512226</Timestamp><Current dt:dt="r8">0</Current><DateUtc dt:dt="string">2015-08-14T15:08:18Z</DateUtc></FrequencyChange></FrequencyChanges></Clock>\n	1 ver1_main_procedure-30-1	99.924	1.0.0.880	2	pg	707352857	prawa	1	2.0.10.356	08-14-2015	2015-08-14 15:08:18	17:08:18	kobieta	2.0.10.92	3	6	1	1																							l	{SPACE}		no	BlockProc2		BlockList									64	Free	dl	color_orange.png		0	14	425034	310																								25	prime_left.png	0	424484	0	0	13	0	424484	0	424484	1	424484	20	0	-1	422985	424484	424483	0		TrialProc1	left	0		0	10	424794	-424794		0	0	TrialList2	target_both.png	0	dl	0	3	424534	260	d	486	425020															7	1	64	comp			300
1 ver1_main_procedure	30	1	23	<?xml version="1.0"?>\n<Clock xmlns:dt="urn:schemas-microsoft-com:datatypes"><Description dt:dt="string">E-Prime Primary Realtime Clock</Description><StartTime><Timestamp dt:dt="int">0</Timestamp><DateUtc dt:dt="string">2015-08-14T15:08:18Z</DateUtc></StartTime><FrequencyChanges><FrequencyChange><Frequency dt:dt="r8">2441416</Frequency><Timestamp dt:dt="r8">47951512226</Timestamp><Current dt:dt="r8">0</Current><DateUtc dt:dt="string">2015-08-14T15:08:18Z</DateUtc></FrequencyChange></FrequencyChanges></Clock>\n	1 ver1_main_procedure-30-1	99.924	1.0.0.880	2	pg	707352857	prawa	1	2.0.10.356	08-14-2015	2015-08-14 15:08:18	17:08:18	kobieta	2.0.10.92	3	6	1	1																							l	{SPACE}		no	BlockProc2		BlockList									65	Free	dl	color_purple.png		0	13	427736	460																			1					25	prime_left.png	0	427156	0	0	13	0	427156	0	427156	1	427156	20	0	-1	425657	427156	427155	0	prime_left.png	TrialProc1	right	0		0	10	427466	-427466		0	0	TrialList2	target_both.png	0	dl	0	3	427206	260	l	517	427723															11	1	65	neut			450
1 ver1_main_procedure	30	1	23	<?xml version="1.0"?>\n<Clock xmlns:dt="urn:schemas-microsoft-com:datatypes"><Description dt:dt="string">E-Prime Primary Realtime Clock</Description><StartTime><Timestamp dt:dt="int">0</Timestamp><DateUtc dt:dt="string">2015-08-14T15:08:18Z</DateUtc></StartTime><FrequencyChanges><FrequencyChange><Frequency dt:dt="r8">2441416</Frequency><Timestamp dt:dt="r8">47951512226</Timestamp><Current dt:dt="r8">0</Current><DateUtc dt:dt="string">2015-08-14T15:08:18Z</DateUtc></FrequencyChange></FrequencyChanges></Clock>\n	1 ver1_main_procedure-30-1	99.924	1.0.0.880	2	pg	707352857	prawa	1	2.0.10.356	08-14-2015	2015-08-14 15:08:18	17:08:18	kobieta	2.0.10.92	3	6	1	1																							l	{SPACE}		no	BlockProc2		BlockList									66	Free	dl	color_purple.png		0	9	430548	160																			2					75	prime_right.png	0	430008	0	0	13	0	430008	0	430008	1	430008	20	0	-1	428509	430008	430007	0	prime_right.png	TrialProc1	left	0		0	10	430318	-430318		0	0	TrialList2	target_both.png	0	dl	0	3	430058	260	l	481	430539															8	1	66	neut			150
1 ver1_main_procedure	30	1	23	<?xml version="1.0"?>\n<Clock xmlns:dt="urn:schemas-microsoft-com:datatypes"><Description dt:dt="string">E-Prime Primary Realtime Clock</Description><StartTime><Timestamp dt:dt="int">0</Timestamp><DateUtc dt:dt="string">2015-08-14T15:08:18Z</DateUtc></StartTime><FrequencyChanges><FrequencyChange><Frequency dt:dt="r8">2441416</Frequency><Timestamp dt:dt="r8">47951512226</Timestamp><Current dt:dt="r8">0</Current><DateUtc dt:dt="string">2015-08-14T15:08:18Z</DateUtc></FrequencyChange></FrequencyChanges></Clock>\n	1 ver1_main_procedure-30-1	99.924	1.0.0.880	2	pg	707352857	prawa	1	2.0.10.356	08-14-2015	2015-08-14 15:08:18	17:08:18	kobieta	2.0.10.92	3	6	1	1																							l	{SPACE}		no	BlockProc2		BlockList									67	Cued	d	color_green.png		0	7	433040	460																			1					75	prime_left.png	0	432520	0	0	13	0	432520	0	432520	1	432520	20	0	-1	431021	432520	432519	0	prime_left.png	TrialProc1	left	0		0	10	432830	-432830		0	0	TrialList2	target_left.png	1	d	0	3	432570	260	d	463	433033															2	1	67	neut			450
1 ver1_main_procedure	30	1	23	<?xml version="1.0"?>\n<Clock xmlns:dt="urn:schemas-microsoft-com:datatypes"><Description dt:dt="string">E-Prime Primary Realtime Clock</Description><StartTime><Timestamp dt:dt="int">0</Timestamp><DateUtc dt:dt="string">2015-08-14T15:08:18Z</DateUtc></StartTime><FrequencyChanges><FrequencyChange><Frequency dt:dt="r8">2441416</Frequency><Timestamp dt:dt="r8">47951512226</Timestamp><Current dt:dt="r8">0</Current><DateUtc dt:dt="string">2015-08-14T15:08:18Z</DateUtc></FrequencyChange></FrequencyChanges></Clock>\n	1 ver1_main_procedure-30-1	99.924	1.0.0.880	2	pg	707352857	prawa	1	2.0.10.356	08-14-2015	2015-08-14 15:08:18	17:08:18	kobieta	2.0.10.92	3	6	1	1																							l	{SPACE}		no	BlockProc2		BlockList									68	Cued	l	color_blue.png		0	7	435692	310																								25	prime_left.png	0	435312	0	0	13	0	435312	0	435312	1	435312	20	0	-1	433813	435312	435311	0		TrialProc1	right	0		0	10	435622	-435622		0	0	TrialList2	target_right.png	1	l	0	3	435362	260	l	323	435685															6	1	68	incomp			300
1 ver1_main_procedure	30	1	23	<?xml version="1.0"?>\n<Clock xmlns:dt="urn:schemas-microsoft-com:datatypes"><Description dt:dt="string">E-Prime Primary Realtime Clock</Description><StartTime><Timestamp dt:dt="int">0</Timestamp><DateUtc dt:dt="string">2015-08-14T15:08:18Z</DateUtc></StartTime><FrequencyChanges><FrequencyChange><Frequency dt:dt="r8">2441416</Frequency><Timestamp dt:dt="r8">47951512226</Timestamp><Current dt:dt="r8">0</Current><DateUtc dt:dt="string">2015-08-14T15:08:18Z</DateUtc></FrequencyChange></FrequencyChanges></Clock>\n	1 ver1_main_procedure-30-1	99.924	1.0.0.880	2	pg	707352857	prawa	1	2.0.10.356	08-14-2015	2015-08-14 15:08:18	17:08:18	kobieta	2.0.10.92	3	6	1	1																							l	{SPACE}		no	BlockProc2		BlockList									69	Free	dl	color_yellow.png		0	7	438294	160																								75	prime_right.png	0	437814	0	0	13	0	437814	0	437814	2	437814	20	0	-1	436315	437814	437812	0		TrialProc1	right	0		0	10	438124	-438124		0	0	TrialList2	target_both.png	0	dl	0	3	437864	260	l	423	438287															10	1	69	comp			150
1 ver1_main_procedure	30	1	23	<?xml version="1.0"?>\n<Clock xmlns:dt="urn:schemas-microsoft-com:datatypes"><Description dt:dt="string">E-Prime Primary Realtime Clock</Description><StartTime><Timestamp dt:dt="int">0</Timestamp><DateUtc dt:dt="string">2015-08-14T15:08:18Z</DateUtc></StartTime><FrequencyChanges><FrequencyChange><Frequency dt:dt="r8">2441416</Frequency><Timestamp dt:dt="r8">47951512226</Timestamp><Current dt:dt="r8">0</Current><DateUtc dt:dt="string">2015-08-14T15:08:18Z</DateUtc></FrequencyChange></FrequencyChanges></Clock>\n	1 ver1_main_procedure-30-1	99.924	1.0.0.880	2	pg	707352857	prawa	1	2.0.10.356	08-14-2015	2015-08-14 15:08:18	17:08:18	kobieta	2.0.10.92	3	6	1	1																							l	{SPACE}		no	BlockProc2		BlockList									70	Free	dl	color_blue.png		0	7	440716	160																								75	prime_left.png	0	440265	0	0	13	0	440266	0	440265	1	440265	20	0	-1	438767	440265	440264	0		TrialProc1	right	0		0	11	440576	-440576		0	0	TrialList2	target_both.png	0	dl	0	3	440315	261	l	394	440709															12	1	70	incomp			150
1 ver1_main_procedure	30	1	23	<?xml version="1.0"?>\n<Clock xmlns:dt="urn:schemas-microsoft-com:datatypes"><Description dt:dt="string">E-Prime Primary Realtime Clock</Description><StartTime><Timestamp dt:dt="int">0</Timestamp><DateUtc dt:dt="string">2015-08-14T15:08:18Z</DateUtc></StartTime><FrequencyChanges><FrequencyChange><Frequency dt:dt="r8">2441416</Frequency><Timestamp dt:dt="r8">47951512226</Timestamp><Current dt:dt="r8">0</Current><DateUtc dt:dt="string">2015-08-14T15:08:18Z</DateUtc></FrequencyChange></FrequencyChanges></Clock>\n	1 ver1_main_procedure-30-1	99.924	1.0.0.880	2	pg	707352857	prawa	1	2.0.10.356	08-14-2015	2015-08-14 15:08:18	17:08:18	kobieta	2.0.10.92	3	6	1	1																							l	{SPACE}		no	BlockProc2		BlockList									71	Free	dl	color_yellow.png		0	5	443298	160																								25	prime_right.png	0	442687	0	0	13	0	442687	0	442687	1	442687	20	0	-1	441188	442687	442686	0		TrialProc1	right	0		0	10	442997	-442997		0	0	TrialList2	target_both.png	0	dl	0	3	442737	260	l	556	443293															10	1	71	comp			150
1 ver1_main_procedure	30	1	23	<?xml version="1.0"?>\n<Clock xmlns:dt="urn:schemas-microsoft-com:datatypes"><Description dt:dt="string">E-Prime Primary Realtime Clock</Description><StartTime><Timestamp dt:dt="int">0</Timestamp><DateUtc dt:dt="string">2015-08-14T15:08:18Z</DateUtc></StartTime><FrequencyChanges><FrequencyChange><Frequency dt:dt="r8">2441416</Frequency><Timestamp dt:dt="r8">47951512226</Timestamp><Current dt:dt="r8">0</Current><DateUtc dt:dt="string">2015-08-14T15:08:18Z</DateUtc></FrequencyChange></FrequencyChanges></Clock>\n	1 ver1_main_procedure-30-1	99.924	1.0.0.880	2	pg	707352857	prawa	1	2.0.10.356	08-14-2015	2015-08-14 15:08:18	17:08:18	kobieta	2.0.10.92	3	6	1	1																							l	{SPACE}		no	BlockProc2		BlockList									72	Free	dl	color_yellow.png		0	11	445749	161																								75	prime_right.png	0	445269	0	0	13	0	445269	0	445269	1	445269	20	0	-1	443770	445269	445268	0		TrialProc1	right	0		0	10	445579	-445579		0	0	TrialList2	target_both.png	0	dl	0	3	445319	260	l	419	445738															10	1	72	comp			150
1 ver1_main_procedure	30	1	23	<?xml version="1.0"?>\n<Clock xmlns:dt="urn:schemas-microsoft-com:datatypes"><Description dt:dt="string">E-Prime Primary Realtime Clock</Description><StartTime><Timestamp dt:dt="int">0</Timestamp><DateUtc dt:dt="string">2015-08-14T15:08:18Z</DateUtc></StartTime><FrequencyChanges><FrequencyChange><Frequency dt:dt="r8">2441416</Frequency><Timestamp dt:dt="r8">47951512226</Timestamp><Current dt:dt="r8">0</Current><DateUtc dt:dt="string">2015-08-14T15:08:18Z</DateUtc></FrequencyChange></FrequencyChanges></Clock>\n	1 ver1_main_procedure-30-1	99.924	1.0.0.880	2	pg	707352857	prawa	1	2.0.10.356	08-14-2015	2015-08-14 15:08:18	17:08:18	kobieta	2.0.10.92	3	6	1	1																							l	{SPACE}		no	BlockProc2		BlockList									73									6	2	5	4	3	1	color_red.png	color_blue.png	color_orange.png	color_green.png	color_yellow.png	color_purple.png	color_purple.png	color_blue.png	color_yellow.png	color_green.png	color_orange.png	color_red.png		1	1	1	62451																						DragProc											Ocena																															
1 ver1_main_procedure	30	1	23	<?xml version="1.0"?>\n<Clock xmlns:dt="urn:schemas-microsoft-com:datatypes"><Description dt:dt="string">E-Prime Primary Realtime Clock</Description><StartTime><Timestamp dt:dt="int">0</Timestamp><DateUtc dt:dt="string">2015-08-14T15:08:18Z</DateUtc></StartTime><FrequencyChanges><FrequencyChange><Frequency dt:dt="r8">2441416</Frequency><Timestamp dt:dt="r8">47951512226</Timestamp><Current dt:dt="r8">0</Current><DateUtc dt:dt="string">2015-08-14T15:08:18Z</DateUtc></FrequencyChange></FrequencyChanges></Clock>\n	1 ver1_main_procedure-30-1	99.924	1.0.0.880	2	pg	707352857	prawa	1	2.0.10.356	08-14-2015	2015-08-14 15:08:18	17:08:18	kobieta	2.0.10.92	3	6	1	1																							l	{SPACE}		no	BlockProc2		BlockList									74				Liczby muszą być przypisane w sposób rosnący.											color_red.png	color_blue.png	color_orange.png	color_green.png	color_yellow.png	color_purple.png								2	1	2																							EnterProc											Ocena												10	20	50	80	90	100														
1 ver1_main_procedure	30	1	23	<?xml version="1.0"?>\n<Clock xmlns:dt="urn:schemas-microsoft-com:datatypes"><Description dt:dt="string">E-Prime Primary Realtime Clock</Description><StartTime><Timestamp dt:dt="int">0</Timestamp><DateUtc dt:dt="string">2015-08-14T15:08:18Z</DateUtc></StartTime><FrequencyChanges><FrequencyChange><Frequency dt:dt="r8">2441416</Frequency><Timestamp dt:dt="r8">47951512226</Timestamp><Current dt:dt="r8">0</Current><DateUtc dt:dt="string">2015-08-14T15:08:18Z</DateUtc></FrequencyChange></FrequencyChanges></Clock>\n	1 ver1_main_procedure-30-1	99.924	1.0.0.880	2	pg	707352857	prawa	1	2.0.10.356	08-14-2015	2015-08-14 15:08:18	17:08:18	kobieta	2.0.10.92	4	4	1	2																							l	{SPACE}		no	BlockProc2		BlockList									1	Free	dl	color_purple.png		0	5	761663	461																								25	prime_left.png	0	760813	0	0	13	0	760813	0	760813	1	760813	20	0	-1	759314	760813	760812	0		TrialProc1	right	0		0	10	761123	-761123		0	0	TrialList2	target_both.png	0	dl	0	3	760863	260	l	795	761658															12	2	73	incomp			450
1 ver1_main_procedure	30	1	23	<?xml version="1.0"?>\n<Clock xmlns:dt="urn:schemas-microsoft-com:datatypes"><Description dt:dt="string">E-Prime Primary Realtime Clock</Description><StartTime><Timestamp dt:dt="int">0</Timestamp><DateUtc dt:dt="string">2015-08-14T15:08:18Z</DateUtc></StartTime><FrequencyChanges><FrequencyChange><Frequency dt:dt="r8">2441416</Frequency><Timestamp dt:dt="r8">47951512226</Timestamp><Current dt:dt="r8">0</Current><DateUtc dt:dt="string">2015-08-14T15:08:18Z</DateUtc></FrequencyChange></FrequencyChanges></Clock>\n	1 ver1_main_procedure-30-1	99.924	1.0.0.880	2	pg	707352857	prawa	1	2.0.10.356	08-14-2015	2015-08-14 15:08:18	17:08:18	kobieta	2.0.10.92	4	4	1	2																							l	{SPACE}		no	BlockProc2		BlockList									2	Free	dl	color_blue.png		0	11	764606	460																								25	prime_right.png	0	763935	0	0	13	0	763935	0	763935	1	763935	20	0	-1	762436	763935	763934	0		TrialProc1	left	0		0	10	764245	-764245		0	0	TrialList2	target_both.png	0	dl	0	3	763985	260	l	610	764595															9	2	74	incomp			450
1 ver1_main_procedure	30	1	23	<?xml version="1.0"?>\n<Clock xmlns:dt="urn:schemas-microsoft-com:datatypes"><Description dt:dt="string">E-Prime Primary Realtime Clock</Description><StartTime><Timestamp dt:dt="int">0</Timestamp><DateUtc dt:dt="string">2015-08-14T15:08:18Z</DateUtc></StartTime><FrequencyChanges><FrequencyChange><Frequency dt:dt="r8">2441416</Frequency><Timestamp dt:dt="r8">47951512226</Timestamp><Current dt:dt="r8">0</Current><DateUtc dt:dt="string">2015-08-14T15:08:18Z</DateUtc></FrequencyChange></FrequencyChanges></Clock>\n	1 ver1_main_procedure-30-1	99.924	1.0.0.880	2	pg	707352857	prawa	1	2.0.10.356	08-14-2015	2015-08-14 15:08:18	17:08:18	kobieta	2.0.10.92	4	4	1	2																							l	{SPACE}		no	BlockProc2		BlockList									3	Free	dl	color_yellow.png		0	5	767578	460																			2					25	prime_right.png	0	766877	0	0	13	0	766877	0	766877	1	766877	20	0	-1	765378	766877	766876	0	prime_right.png	TrialProc1	left	0		1	10	767187	-767187		0	0	TrialList2	target_both.png	0	dl	0	3	766927	260	d	646	767573															8	2	75	neut			450
1 ver1_main_procedure	30	1	23	<?xml version="1.0"?>\n<Clock xmlns:dt="urn:schemas-microsoft-com:datatypes"><Description dt:dt="string">E-Prime Primary Realtime Clock</Description><StartTime><Timestamp dt:dt="int">0</Timestamp><DateUtc dt:dt="string">2015-08-14T15:08:18Z</DateUtc></StartTime><FrequencyChanges><FrequencyChange><Frequency dt:dt="r8">2441416</Frequency><Timestamp dt:dt="r8">47951512226</Timestamp><Current dt:dt="r8">0</Current><DateUtc dt:dt="string">2015-08-14T15:08:18Z</DateUtc></FrequencyChange></FrequencyChanges></Clock>\n	1 ver1_main_procedure-30-1	99.924	1.0.0.880	2	pg	707352857	prawa	1	2.0.10.356	08-14-2015	2015-08-14 15:08:18	17:08:18	kobieta	2.0.10.92	4	4	1	2																							l	{SPACE}		no	BlockProc2		BlockList									4	Cued	l	color_red.png		0	7	770400	460																			1					75	prime_left.png	0	769849	0	0	13	1	769850	1	769850	1	769849	20	0	-1	768351	769849	769848	0	prime_left.png	TrialProc1	right	0		0	11	770160	-770160		0	0	TrialList2	target_right.png	1	l	0	3	769899	261	l	494	770393															5	2	76	neut			450
1 ver1_main_procedure	30	1	23	<?xml version="1.0"?>\n<Clock xmlns:dt="urn:schemas-microsoft-com:datatypes"><Description dt:dt="string">E-Prime Primary Realtime Clock</Description><StartTime><Timestamp dt:dt="int">0</Timestamp><DateUtc dt:dt="string">2015-08-14T15:08:18Z</DateUtc></StartTime><FrequencyChanges><FrequencyChange><Frequency dt:dt="r8">2441416</Frequency><Timestamp dt:dt="r8">47951512226</Timestamp><Current dt:dt="r8">0</Current><DateUtc dt:dt="string">2015-08-14T15:08:18Z</DateUtc></FrequencyChange></FrequencyChanges></Clock>\n	1 ver1_main_procedure-30-1	99.924	1.0.0.880	2	pg	707352857	prawa	1	2.0.10.356	08-14-2015	2015-08-14 15:08:18	17:08:18	kobieta	2.0.10.92	4	4	1	2																							l	{SPACE}		no	BlockProc2		BlockList									5	Cued	l	color_purple.png		0	7	773142	310																								25	prime_left.png	0	772672	0	0	13	0	772672	0	772672	2	772672	20	0	-1	771173	772672	772670	0		TrialProc1	right	0		0	10	772982	-772982		0	0	TrialList2	target_right.png	1	l	0	3	772722	260	l	413	773135															6	2	77	incomp			300
1 ver1_main_procedure	30	1	23	<?xml version="1.0"?>\n<Clock xmlns:dt="urn:schemas-microsoft-com:datatypes"><Description dt:dt="string">E-Prime Primary Realtime Clock</Description><StartTime><Timestamp dt:dt="int">0</Timestamp><DateUtc dt:dt="string">2015-08-14T15:08:18Z</DateUtc></StartTime><FrequencyChanges><FrequencyChange><Frequency dt:dt="r8">2441416</Frequency><Timestamp dt:dt="r8">47951512226</Timestamp><Current dt:dt="r8">0</Current><DateUtc dt:dt="string">2015-08-14T15:08:18Z</DateUtc></FrequencyChange></FrequencyChanges></Clock>\n	1 ver1_main_procedure-30-1	99.924	1.0.0.880	2	pg	707352857	prawa	1	2.0.10.356	08-14-2015	2015-08-14 15:08:18	17:08:18	kobieta	2.0.10.92	4	4	1	2																							l	{SPACE}		no	BlockProc2		BlockList									6	Cued	d	color_yellow.png		0	11	775734	160																			2					75	prime_right.png	0	775263	0	0	13	1	775264	1	775264	1	775263	20	0	-1	773765	775263	775262	0	prime_right.png	TrialProc1	left	0		0	11	775574	-775574		0	0	TrialList2	target_left.png	1	d	0	3	775313	261	d	410	775723															2	2	78	neut			150
1 ver1_main_procedure	30	1	23	<?xml version="1.0"?>\n<Clock xmlns:dt="urn:schemas-microsoft-com:datatypes"><Description dt:dt="string">E-Prime Primary Realtime Clock</Description><StartTime><Timestamp dt:dt="int">0</Timestamp><DateUtc dt:dt="string">2015-08-14T15:08:18Z</DateUtc></StartTime><FrequencyChanges><FrequencyChange><Frequency dt:dt="r8">2441416</Frequency><Timestamp dt:dt="r8">47951512226</Timestamp><Current dt:dt="r8">0</Current><DateUtc dt:dt="string">2015-08-14T15:08:18Z</DateUtc></FrequencyChange></FrequencyChanges></Clock>\n	1 ver1_main_procedure-30-1	99.924	1.0.0.880	2	pg	707352857	prawa	1	2.0.10.356	08-14-2015	2015-08-14 15:08:18	17:08:18	kobieta	2.0.10.92	4	4	1	2																							l	{SPACE}		no	BlockProc2		BlockList									7	Free	dl	color_red.png		0	5	778376	310																			1					75	prime_left.png	0	777705	0	0	13	0	777705	0	777705	1	777705	20	0	-1	776206	777705	777704	0	prime_left.png	TrialProc1	right	0		1	10	778015	-778015		0	0	TrialList2	target_both.png	0	dl	0	3	777755	260	l	616	778371															11	2	79	neut			300
1 ver1_main_procedure	30	1	23	<?xml version="1.0"?>\n<Clock xmlns:dt="urn:schemas-microsoft-com:datatypes"><Description dt:dt="string">E-Prime Primary Realtime Clock</Description><StartTime><Timestamp dt:dt="int">0</Timestamp><DateUtc dt:dt="string">2015-08-14T15:08:18Z</DateUtc></StartTime><FrequencyChanges><FrequencyChange><Frequency dt:dt="r8">2441416</Frequency><Timestamp dt:dt="r8">47951512226</Timestamp><Current dt:dt="r8">0</Current><DateUtc dt:dt="string">2015-08-14T15:08:18Z</DateUtc></FrequencyChange></FrequencyChanges></Clock>\n	1 ver1_main_procedure-30-1	99.924	1.0.0.880	2	pg	707352857	prawa	1	2.0.10.356	08-14-2015	2015-08-14 15:08:18	17:08:18	kobieta	2.0.10.92	4	4	1	2																							l	{SPACE}		no	BlockProc2		BlockList									8	Free	dl	color_red.png		0	10	781158	310																			2					25	prime_right.png	0	780497	0	0	13	0	780497	0	780497	1	780497	20	0	-1	778998	780497	780496	0	prime_right.png	TrialProc1	right	0		0	11	780808	-780808		0	0	TrialList2	target_both.png	0	dl	0	3	780547	261	l	600	781147															11	2	80	neut			300
1 ver1_main_procedure	30	1	23	<?xml version="1.0"?>\n<Clock xmlns:dt="urn:schemas-microsoft-com:datatypes"><Description dt:dt="string">E-Prime Primary Realtime Clock</Description><StartTime><Timestamp dt:dt="int">0</Timestamp><DateUtc dt:dt="string">2015-08-14T15:08:18Z</DateUtc></StartTime><FrequencyChanges><FrequencyChange><Frequency dt:dt="r8">2441416</Frequency><Timestamp dt:dt="r8">47951512226</Timestamp><Current dt:dt="r8">0</Current><DateUtc dt:dt="string">2015-08-14T15:08:18Z</DateUtc></FrequencyChange></FrequencyChanges></Clock>\n	1 ver1_main_procedure-30-1	99.924	1.0.0.880	2	pg	707352857	prawa	1	2.0.10.356	08-14-2015	2015-08-14 15:08:18	17:08:18	kobieta	2.0.10.92	4	4	1	2																							l	{SPACE}		no	BlockProc2		BlockList									9	Free	dl	color_purple.png		0	6	783980	160																								75	prime_left.png	0	783279	0	0	13	1	783280	1	783280	1	783279	20	0	-1	781781	783279	783278	0		TrialProc1	left	0		0	11	783590	-783590		0	0	TrialList2	target_both.png	0	dl	0	3	783329	261	l	644	783973															7	2	81	comp			150
