ExperimentName	Subject	Session	Age	Clock.Information	DataFile.Basename	Display.RefreshRate	ExperimentVersion	Group	Name	RandomSeed	Recznosc	ResearcherID	RuntimeVersion	SessionDate	SessionStartDateTimeUtc	SessionTime	Sex	StudioVersion	Block	BlockList	BlockList.Cycle	BlockList.Sample	BlockNumber	GoodBye.RESP	GoodBye2.RESP	GoodByeList	GoodByeList.Cycle	GoodByeList.Sample	InstrList	InstrList.Cycle	InstrList.Sample	Instructions3.RESP	Instructions4.RESP	Instructions5.RESP	kobieta_S1	kobieta_S2	kobieta_S3	kobieta_S4	kobieta_S5	mezczyzna_S1	mezczyzna_S2	mezczyzna_S3	mezczyzna_S4	mezczyzna_S5	NextBlock.RESP	NextBlock0.RESP	planowanie	PracticeMode	Procedure[Block]	proszenie	Running[Block]	TrainingList	TrainingList.Cycle	TrainingList.Sample	WordList	WordList1	wykonanie	zauwazenie	zrozumienie	Trial	ChoiceType	CorrectRespon	Effect	ErrorText	Fixation2.DurationError	Fixation2.OnsetDelay	Fixation2.OnsetTime	Fixation2.OnsetToOnsetTime	GoalRespInd1	GoalRespInd2	GoalRespInd3	GoalRespInd4	GoalRespInd5	GoalRespInd6	GoalRespName1	GoalRespName2	GoalRespName3	GoalRespName4	GoalRespName5	GoalRespName6	kol1	kol2	kol3	kol4	kol5	kol6	NeutralPrimeList1	Ocena	Ocena.Cycle	Ocena.Sample	OverallRT	Posit	Prime	Prime.ActionDelay	Prime.ActionTime	Prime.CustomOffsetTime	Prime.CustomOnsetTime	Prime.Duration	Prime.DurationError	Prime.FinishTime	Prime.OffsetDelay	Prime.OffsetTime	Prime.OnsetDelay	Prime.OnsetTime	Prime.OnsetToOnsetTime	Prime.PendingInputMasks	Prime.PreRelease	Prime.StartTime	Prime.TargetOffsetTime	Prime.TargetOnsetTime	Prime.TimingMode	PrimeChoice	Procedure[Trial]	Resp	RespWin.ACC	RespWin.CRESP	RespWin.DurationError	RespWin.OnsetDelay	RespWin.OnsetTime	RespWin.OnsetToOnsetTime	RespWin.RESP	RespWin.RT	RespWin.RTTime	Running[Trial]	Target	TargetSlide.ACC	TargetSlide.CRESP	TargetSlide.DurationError	TargetSlide.OnsetDelay	TargetSlide.OnsetTime	TargetSlide.OnsetToOnsetTime	TargetSlide.RESP	TargetSlide.RT	TargetSlide.RTTime	TargetTraining	TBox1	TBox2	TBox3	TBox4	TBox5	TBox6	TrainingList1	TrainingList1.Cycle	TrainingList1.Sample	TrCorrectResp	TrialList1	TrialList1.Cycle	TrialList1.Sample	TrialList2	TrialList2.Cycle	TrialList2.Sample	TrialType	TrPosit	TrWaitTime	WaitTime
1 ver1_main_procedure	38	1	21	<?xml version="1.0"?>\n<Clock xmlns:dt="urn:schemas-microsoft-com:datatypes"><Description dt:dt="string">E-Prime Primary Realtime Clock</Description><StartTime><Timestamp dt:dt="int">0</Timestamp><DateUtc dt:dt="string">2015-08-21T14:07:57Z</DateUtc></StartTime><FrequencyChanges><FrequencyChange><Frequency dt:dt="r8">2612285</Frequency><Timestamp dt:dt="r8">4756341081</Timestamp><Current dt:dt="r8">0</Current><DateUtc dt:dt="string">2015-08-21T14:07:57Z</DateUtc></FrequencyChange></FrequencyChanges></Clock>\n	1 ver1_main_procedure-38-1	99.939	1.0.0.880	2	łm	461902658	prawa	1	2.0.10.182	08-21-2015	2015-08-21 14:07:57	16:07:57	mezczyzna	2.0.10.92	1										1	1	1	{SPACE}	{SPACE}	d	poproszona	planowała	zrozumiałaś	wykonała		poproszony	planował	zrozumiałeś	wykonał				planował		InstrProc	poproszony	InstrList				1		wykonał		zrozumiałeś																																																																																																
1 ver1_main_procedure	38	1	21	<?xml version="1.0"?>\n<Clock xmlns:dt="urn:schemas-microsoft-com:datatypes"><Description dt:dt="string">E-Prime Primary Realtime Clock</Description><StartTime><Timestamp dt:dt="int">0</Timestamp><DateUtc dt:dt="string">2015-08-21T14:07:57Z</DateUtc></StartTime><FrequencyChanges><FrequencyChange><Frequency dt:dt="r8">2612285</Frequency><Timestamp dt:dt="r8">4756341081</Timestamp><Current dt:dt="r8">0</Current><DateUtc dt:dt="string">2015-08-21T14:07:57Z</DateUtc></FrequencyChange></FrequencyChanges></Clock>\n	1 ver1_main_procedure-38-1	99.939	1.0.0.880	2	łm	461902658	prawa	1	2.0.10.182	08-21-2015	2015-08-21 14:07:57	16:07:57	mezczyzna	2.0.10.92	2																														TrainingProc1		TrainingList	1	1	1						1																																																					TrainProc											TrainingList1											target_left.png							1	1	1	d								25	450	
1 ver1_main_procedure	38	1	21	<?xml version="1.0"?>\n<Clock xmlns:dt="urn:schemas-microsoft-com:datatypes"><Description dt:dt="string">E-Prime Primary Realtime Clock</Description><StartTime><Timestamp dt:dt="int">0</Timestamp><DateUtc dt:dt="string">2015-08-21T14:07:57Z</DateUtc></StartTime><FrequencyChanges><FrequencyChange><Frequency dt:dt="r8">2612285</Frequency><Timestamp dt:dt="r8">4756341081</Timestamp><Current dt:dt="r8">0</Current><DateUtc dt:dt="string">2015-08-21T14:07:57Z</DateUtc></FrequencyChange></FrequencyChanges></Clock>\n	1 ver1_main_procedure-38-1	99.939	1.0.0.880	2	łm	461902658	prawa	1	2.0.10.182	08-21-2015	2015-08-21 14:07:57	16:07:57	mezczyzna	2.0.10.92	2																														TrainingProc1		TrainingList	1	1	1						2																																																					TrainProc											TrainingList1											target_left.png							1	1	2	d								25	300	
1 ver1_main_procedure	38	1	21	<?xml version="1.0"?>\n<Clock xmlns:dt="urn:schemas-microsoft-com:datatypes"><Description dt:dt="string">E-Prime Primary Realtime Clock</Description><StartTime><Timestamp dt:dt="int">0</Timestamp><DateUtc dt:dt="string">2015-08-21T14:07:57Z</DateUtc></StartTime><FrequencyChanges><FrequencyChange><Frequency dt:dt="r8">2612285</Frequency><Timestamp dt:dt="r8">4756341081</Timestamp><Current dt:dt="r8">0</Current><DateUtc dt:dt="string">2015-08-21T14:07:57Z</DateUtc></FrequencyChange></FrequencyChanges></Clock>\n	1 ver1_main_procedure-38-1	99.939	1.0.0.880	2	łm	461902658	prawa	1	2.0.10.182	08-21-2015	2015-08-21 14:07:57	16:07:57	mezczyzna	2.0.10.92	2																														TrainingProc1		TrainingList	1	1	1						3																																																					TrainProc											TrainingList1											target_right.png							2	1	3	l								25	450	
1 ver1_main_procedure	38	1	21	<?xml version="1.0"?>\n<Clock xmlns:dt="urn:schemas-microsoft-com:datatypes"><Description dt:dt="string">E-Prime Primary Realtime Clock</Description><StartTime><Timestamp dt:dt="int">0</Timestamp><DateUtc dt:dt="string">2015-08-21T14:07:57Z</DateUtc></StartTime><FrequencyChanges><FrequencyChange><Frequency dt:dt="r8">2612285</Frequency><Timestamp dt:dt="r8">4756341081</Timestamp><Current dt:dt="r8">0</Current><DateUtc dt:dt="string">2015-08-21T14:07:57Z</DateUtc></FrequencyChange></FrequencyChanges></Clock>\n	1 ver1_main_procedure-38-1	99.939	1.0.0.880	2	łm	461902658	prawa	1	2.0.10.182	08-21-2015	2015-08-21 14:07:57	16:07:57	mezczyzna	2.0.10.92	2																														TrainingProc1		TrainingList	1	1	1						4																																																					TrainProc											TrainingList1											target_left.png							1	1	4	d								75	300	
1 ver1_main_procedure	38	1	21	<?xml version="1.0"?>\n<Clock xmlns:dt="urn:schemas-microsoft-com:datatypes"><Description dt:dt="string">E-Prime Primary Realtime Clock</Description><StartTime><Timestamp dt:dt="int">0</Timestamp><DateUtc dt:dt="string">2015-08-21T14:07:57Z</DateUtc></StartTime><FrequencyChanges><FrequencyChange><Frequency dt:dt="r8">2612285</Frequency><Timestamp dt:dt="r8">4756341081</Timestamp><Current dt:dt="r8">0</Current><DateUtc dt:dt="string">2015-08-21T14:07:57Z</DateUtc></FrequencyChange></FrequencyChanges></Clock>\n	1 ver1_main_procedure-38-1	99.939	1.0.0.880	2	łm	461902658	prawa	1	2.0.10.182	08-21-2015	2015-08-21 14:07:57	16:07:57	mezczyzna	2.0.10.92	2																														TrainingProc1		TrainingList	1	1	1						5																																																					TrainProc											TrainingList1											target_both.png							3	1	5	dl								25	450	
1 ver1_main_procedure	38	1	21	<?xml version="1.0"?>\n<Clock xmlns:dt="urn:schemas-microsoft-com:datatypes"><Description dt:dt="string">E-Prime Primary Realtime Clock</Description><StartTime><Timestamp dt:dt="int">0</Timestamp><DateUtc dt:dt="string">2015-08-21T14:07:57Z</DateUtc></StartTime><FrequencyChanges><FrequencyChange><Frequency dt:dt="r8">2612285</Frequency><Timestamp dt:dt="r8">4756341081</Timestamp><Current dt:dt="r8">0</Current><DateUtc dt:dt="string">2015-08-21T14:07:57Z</DateUtc></FrequencyChange></FrequencyChanges></Clock>\n	1 ver1_main_procedure-38-1	99.939	1.0.0.880	2	łm	461902658	prawa	1	2.0.10.182	08-21-2015	2015-08-21 14:07:57	16:07:57	mezczyzna	2.0.10.92	2																														TrainingProc1		TrainingList	1	1	1						6																																																					TrainProc											TrainingList1											target_both.png							3	1	6	dl								75	450	
1 ver1_main_procedure	38	1	21	<?xml version="1.0"?>\n<Clock xmlns:dt="urn:schemas-microsoft-com:datatypes"><Description dt:dt="string">E-Prime Primary Realtime Clock</Description><StartTime><Timestamp dt:dt="int">0</Timestamp><DateUtc dt:dt="string">2015-08-21T14:07:57Z</DateUtc></StartTime><FrequencyChanges><FrequencyChange><Frequency dt:dt="r8">2612285</Frequency><Timestamp dt:dt="r8">4756341081</Timestamp><Current dt:dt="r8">0</Current><DateUtc dt:dt="string">2015-08-21T14:07:57Z</DateUtc></FrequencyChange></FrequencyChanges></Clock>\n	1 ver1_main_procedure-38-1	99.939	1.0.0.880	2	łm	461902658	prawa	1	2.0.10.182	08-21-2015	2015-08-21 14:07:57	16:07:57	mezczyzna	2.0.10.92	2																														TrainingProc1		TrainingList	1	1	1						7																																																					TrainProc											TrainingList1											target_right.png							2	1	7	l								25	450	
1 ver1_main_procedure	38	1	21	<?xml version="1.0"?>\n<Clock xmlns:dt="urn:schemas-microsoft-com:datatypes"><Description dt:dt="string">E-Prime Primary Realtime Clock</Description><StartTime><Timestamp dt:dt="int">0</Timestamp><DateUtc dt:dt="string">2015-08-21T14:07:57Z</DateUtc></StartTime><FrequencyChanges><FrequencyChange><Frequency dt:dt="r8">2612285</Frequency><Timestamp dt:dt="r8">4756341081</Timestamp><Current dt:dt="r8">0</Current><DateUtc dt:dt="string">2015-08-21T14:07:57Z</DateUtc></FrequencyChange></FrequencyChanges></Clock>\n	1 ver1_main_procedure-38-1	99.939	1.0.0.880	2	łm	461902658	prawa	1	2.0.10.182	08-21-2015	2015-08-21 14:07:57	16:07:57	mezczyzna	2.0.10.92	2																														TrainingProc1		TrainingList	1	1	1						8																																																					TrainProc											TrainingList1											target_both.png							3	1	8	dl								25	450	
1 ver1_main_procedure	38	1	21	<?xml version="1.0"?>\n<Clock xmlns:dt="urn:schemas-microsoft-com:datatypes"><Description dt:dt="string">E-Prime Primary Realtime Clock</Description><StartTime><Timestamp dt:dt="int">0</Timestamp><DateUtc dt:dt="string">2015-08-21T14:07:57Z</DateUtc></StartTime><FrequencyChanges><FrequencyChange><Frequency dt:dt="r8">2612285</Frequency><Timestamp dt:dt="r8">4756341081</Timestamp><Current dt:dt="r8">0</Current><DateUtc dt:dt="string">2015-08-21T14:07:57Z</DateUtc></FrequencyChange></FrequencyChanges></Clock>\n	1 ver1_main_procedure-38-1	99.939	1.0.0.880	2	łm	461902658	prawa	1	2.0.10.182	08-21-2015	2015-08-21 14:07:57	16:07:57	mezczyzna	2.0.10.92	2																														TrainingProc1		TrainingList	1	1	1						9																																																					TrainProc											TrainingList1											target_right.png							2	1	9	l								25	300	
1 ver1_main_procedure	38	1	21	<?xml version="1.0"?>\n<Clock xmlns:dt="urn:schemas-microsoft-com:datatypes"><Description dt:dt="string">E-Prime Primary Realtime Clock</Description><StartTime><Timestamp dt:dt="int">0</Timestamp><DateUtc dt:dt="string">2015-08-21T14:07:57Z</DateUtc></StartTime><FrequencyChanges><FrequencyChange><Frequency dt:dt="r8">2612285</Frequency><Timestamp dt:dt="r8">4756341081</Timestamp><Current dt:dt="r8">0</Current><DateUtc dt:dt="string">2015-08-21T14:07:57Z</DateUtc></FrequencyChange></FrequencyChanges></Clock>\n	1 ver1_main_procedure-38-1	99.939	1.0.0.880	2	łm	461902658	prawa	1	2.0.10.182	08-21-2015	2015-08-21 14:07:57	16:07:57	mezczyzna	2.0.10.92	3	6	1	1																							d	{SPACE}		no	BlockProc2		BlockList									1	Free	dl	color_red.png		-1	10	174397	460																								25	prime_left.png	0	174016	0	0	13	1	174017	1	174017	1	174016	20	0	-1	172517	174016	174015	0		TrialProc1	left	0		0	21	174337	-174337		0	0	TrialList2	target_both.png	0	dl	-1	3	174066	271	d	320	174386															7	1	1	comp			450
1 ver1_main_procedure	38	1	21	<?xml version="1.0"?>\n<Clock xmlns:dt="urn:schemas-microsoft-com:datatypes"><Description dt:dt="string">E-Prime Primary Realtime Clock</Description><StartTime><Timestamp dt:dt="int">0</Timestamp><DateUtc dt:dt="string">2015-08-21T14:07:57Z</DateUtc></StartTime><FrequencyChanges><FrequencyChange><Frequency dt:dt="r8">2612285</Frequency><Timestamp dt:dt="r8">4756341081</Timestamp><Current dt:dt="r8">0</Current><DateUtc dt:dt="string">2015-08-21T14:07:57Z</DateUtc></FrequencyChange></FrequencyChanges></Clock>\n	1 ver1_main_procedure-38-1	99.939	1.0.0.880	2	łm	461902658	prawa	1	2.0.10.182	08-21-2015	2015-08-21 14:07:57	16:07:57	mezczyzna	2.0.10.92	3	6	1	1																							d	{SPACE}		no	BlockProc2		BlockList									2	Free	dl	color_green.png		-1	6	177208	461																								75	prime_right.png	0	176668	0	0	13	0	176668	0	176668	1	176668	20	0	-1	175169	176668	176667	0		TrialProc1	right	0		0	10	176978	-176978		0	0	TrialList2	target_both.png	0	dl	-1	3	176718	260	d	484	177202															10	1	2	comp			450
1 ver1_main_procedure	38	1	21	<?xml version="1.0"?>\n<Clock xmlns:dt="urn:schemas-microsoft-com:datatypes"><Description dt:dt="string">E-Prime Primary Realtime Clock</Description><StartTime><Timestamp dt:dt="int">0</Timestamp><DateUtc dt:dt="string">2015-08-21T14:07:57Z</DateUtc></StartTime><FrequencyChanges><FrequencyChange><Frequency dt:dt="r8">2612285</Frequency><Timestamp dt:dt="r8">4756341081</Timestamp><Current dt:dt="r8">0</Current><DateUtc dt:dt="string">2015-08-21T14:07:57Z</DateUtc></FrequencyChange></FrequencyChanges></Clock>\n	1 ver1_main_procedure-38-1	99.939	1.0.0.880	2	łm	461902658	prawa	1	2.0.10.182	08-21-2015	2015-08-21 14:07:57	16:07:57	mezczyzna	2.0.10.92	3	6	1	1																							d	{SPACE}		no	BlockProc2		BlockList									3	Free	dl	color_red.png		-1	7	180050	160																								75	prime_left.png	0	179480	0	0	13	0	179480	0	179480	1	179480	20	0	-1	177980	179480	179479	0		TrialProc1	right	0		0	10	179790	-179790		0	0	TrialList2	target_both.png	0	dl	-1	3	179530	260	d	512	180042															12	1	3	incomp			150
1 ver1_main_procedure	38	1	21	<?xml version="1.0"?>\n<Clock xmlns:dt="urn:schemas-microsoft-com:datatypes"><Description dt:dt="string">E-Prime Primary Realtime Clock</Description><StartTime><Timestamp dt:dt="int">0</Timestamp><DateUtc dt:dt="string">2015-08-21T14:07:57Z</DateUtc></StartTime><FrequencyChanges><FrequencyChange><Frequency dt:dt="r8">2612285</Frequency><Timestamp dt:dt="r8">4756341081</Timestamp><Current dt:dt="r8">0</Current><DateUtc dt:dt="string">2015-08-21T14:07:57Z</DateUtc></FrequencyChange></FrequencyChanges></Clock>\n	1 ver1_main_procedure-38-1	99.939	1.0.0.880	2	łm	461902658	prawa	1	2.0.10.182	08-21-2015	2015-08-21 14:07:57	16:07:57	mezczyzna	2.0.10.92	3	6	1	1																							d	{SPACE}		no	BlockProc2		BlockList									4	Free	dl	color_green.png		-1	12	182511	311																								25	prime_right.png	0	182021	0	0	13	0	182021	0	182021	1	182021	20	0	-1	180522	182021	182020	0		TrialProc1	right	0		1	10	182331	-182331		0	0	TrialList2	target_both.png	0	dl	-1	3	182071	260	d	427	182498															10	1	4	comp			300
1 ver1_main_procedure	38	1	21	<?xml version="1.0"?>\n<Clock xmlns:dt="urn:schemas-microsoft-com:datatypes"><Description dt:dt="string">E-Prime Primary Realtime Clock</Description><StartTime><Timestamp dt:dt="int">0</Timestamp><DateUtc dt:dt="string">2015-08-21T14:07:57Z</DateUtc></StartTime><FrequencyChanges><FrequencyChange><Frequency dt:dt="r8">2612285</Frequency><Timestamp dt:dt="r8">4756341081</Timestamp><Current dt:dt="r8">0</Current><DateUtc dt:dt="string">2015-08-21T14:07:57Z</DateUtc></FrequencyChange></FrequencyChanges></Clock>\n	1 ver1_main_procedure-38-1	99.939	1.0.0.880	2	łm	461902658	prawa	1	2.0.10.182	08-21-2015	2015-08-21 14:07:57	16:07:57	mezczyzna	2.0.10.92	3	6	1	1																							d	{SPACE}		no	BlockProc2		BlockList									5	Free	dl	color_green.png		-1	12	185183	460																								75	prime_right.png	0	184633	0	0	13	0	184633	0	184633	1	184633	20	0	-1	183133	184633	184632	0		TrialProc1	right	0		0	10	184943	-184943		0	0	TrialList2	target_both.png	0	dl	-1	3	184683	260	d	487	185170															10	1	5	comp			450
1 ver1_main_procedure	38	1	21	<?xml version="1.0"?>\n<Clock xmlns:dt="urn:schemas-microsoft-com:datatypes"><Description dt:dt="string">E-Prime Primary Realtime Clock</Description><StartTime><Timestamp dt:dt="int">0</Timestamp><DateUtc dt:dt="string">2015-08-21T14:07:57Z</DateUtc></StartTime><FrequencyChanges><FrequencyChange><Frequency dt:dt="r8">2612285</Frequency><Timestamp dt:dt="r8">4756341081</Timestamp><Current dt:dt="r8">0</Current><DateUtc dt:dt="string">2015-08-21T14:07:57Z</DateUtc></FrequencyChange></FrequencyChanges></Clock>\n	1 ver1_main_procedure-38-1	99.939	1.0.0.880	2	łm	461902658	prawa	1	2.0.10.182	08-21-2015	2015-08-21 14:07:57	16:07:57	mezczyzna	2.0.10.92	3	6	1	1																							d	{SPACE}		no	BlockProc2		BlockList									6	Cued	d	color_blue.png		-1	6	187905	460																			1					25	prime_left.png	1	187455	0	0	13	1	187455	1	187455	0	187454	20	0	-1	185955	187454	187454	0	prime_left.png	TrialProc1	left	0		0	11	187765	-187765		0	0	TrialList2	target_left.png	1	d	-1	3	187504	261	d	394	187898															2	1	6	neut			450
1 ver1_main_procedure	38	1	21	<?xml version="1.0"?>\n<Clock xmlns:dt="urn:schemas-microsoft-com:datatypes"><Description dt:dt="string">E-Prime Primary Realtime Clock</Description><StartTime><Timestamp dt:dt="int">0</Timestamp><DateUtc dt:dt="string">2015-08-21T14:07:57Z</DateUtc></StartTime><FrequencyChanges><FrequencyChange><Frequency dt:dt="r8">2612285</Frequency><Timestamp dt:dt="r8">4756341081</Timestamp><Current dt:dt="r8">0</Current><DateUtc dt:dt="string">2015-08-21T14:07:57Z</DateUtc></FrequencyChange></FrequencyChanges></Clock>\n	1 ver1_main_procedure-38-1	99.939	1.0.0.880	2	łm	461902658	prawa	1	2.0.10.182	08-21-2015	2015-08-21 14:07:57	16:07:57	mezczyzna	2.0.10.92	3	6	1	1																							d	{SPACE}		no	BlockProc2		BlockList									7	Free	dl	color_blue.png		-1	13	190736	311																			2					75	prime_right.png	0	190176	0	0	13	0	190176	0	190176	1	190176	20	0	-1	188677	190176	190175	0	prime_right.png	TrialProc1	right	0		0	10	190486	-190486		0	0	TrialList2	target_both.png	0	dl	-1	3	190226	260	d	496	190722															11	1	7	neut			300
1 ver1_main_procedure	38	1	21	<?xml version="1.0"?>\n<Clock xmlns:dt="urn:schemas-microsoft-com:datatypes"><Description dt:dt="string">E-Prime Primary Realtime Clock</Description><StartTime><Timestamp dt:dt="int">0</Timestamp><DateUtc dt:dt="string">2015-08-21T14:07:57Z</DateUtc></StartTime><FrequencyChanges><FrequencyChange><Frequency dt:dt="r8">2612285</Frequency><Timestamp dt:dt="r8">4756341081</Timestamp><Current dt:dt="r8">0</Current><DateUtc dt:dt="string">2015-08-21T14:07:57Z</DateUtc></FrequencyChange></FrequencyChanges></Clock>\n	1 ver1_main_procedure-38-1	99.939	1.0.0.880	2	łm	461902658	prawa	1	2.0.10.182	08-21-2015	2015-08-21 14:07:57	16:07:57	mezczyzna	2.0.10.92	3	6	1	1																							d	{SPACE}		no	BlockProc2		BlockList									8	Free	dl	color_blue.png		-1	9	193348	310																			1					75	prime_left.png	0	192858	0	0	13	0	192858	0	192858	1	192858	20	0	-1	191358	192858	192857	0	prime_left.png	TrialProc1	left	0		0	10	193168	-193168		0	0	TrialList2	target_both.png	0	dl	-1	3	192908	260	d	430	193338															8	1	8	neut			300
1 ver1_main_procedure	38	1	21	<?xml version="1.0"?>\n<Clock xmlns:dt="urn:schemas-microsoft-com:datatypes"><Description dt:dt="string">E-Prime Primary Realtime Clock</Description><StartTime><Timestamp dt:dt="int">0</Timestamp><DateUtc dt:dt="string">2015-08-21T14:07:57Z</DateUtc></StartTime><FrequencyChanges><FrequencyChange><Frequency dt:dt="r8">2612285</Frequency><Timestamp dt:dt="r8">4756341081</Timestamp><Current dt:dt="r8">0</Current><DateUtc dt:dt="string">2015-08-21T14:07:57Z</DateUtc></FrequencyChange></FrequencyChanges></Clock>\n	1 ver1_main_procedure-38-1	99.939	1.0.0.880	2	łm	461902658	prawa	1	2.0.10.182	08-21-2015	2015-08-21 14:07:57	16:07:57	mezczyzna	2.0.10.92	3	6	1	1																							d	{SPACE}		no	BlockProc2		BlockList									9	Cued	d	color_green.png		-1	15	196010	460																								75	prime_right.png	0	195469	0	0	13	0	195469	0	195469	1	195469	20	0	-1	193970	195469	195468	0		TrialProc1	left	0		0	11	195780	-195780		0	0	TrialList2	target_left.png	1	d	-1	3	195519	261	d	475	195994															3	1	9	incomp			450
1 ver1_main_procedure	38	1	21	<?xml version="1.0"?>\n<Clock xmlns:dt="urn:schemas-microsoft-com:datatypes"><Description dt:dt="string">E-Prime Primary Realtime Clock</Description><StartTime><Timestamp dt:dt="int">0</Timestamp><DateUtc dt:dt="string">2015-08-21T14:07:57Z</DateUtc></StartTime><FrequencyChanges><FrequencyChange><Frequency dt:dt="r8">2612285</Frequency><Timestamp dt:dt="r8">4756341081</Timestamp><Current dt:dt="r8">0</Current><DateUtc dt:dt="string">2015-08-21T14:07:57Z</DateUtc></FrequencyChange></FrequencyChanges></Clock>\n	1 ver1_main_procedure-38-1	99.939	1.0.0.880	2	łm	461902658	prawa	1	2.0.10.182	08-21-2015	2015-08-21 14:07:57	16:07:57	mezczyzna	2.0.10.92	3	6	1	1																							d	{SPACE}		no	BlockProc2		BlockList									10	Free	dl	color_blue.png		-1	10	198741	310																			2					75	prime_right.png	0	198281	0	0	13	0	198281	0	198281	1	198281	20	0	-1	196782	198281	198280	0	prime_right.png	TrialProc1	right	0		0	10	198591	-198591		0	0	TrialList2	target_both.png	0	dl	-1	3	198331	260	d	399	198730															11	1	10	neut			300
1 ver1_main_procedure	38	1	21	<?xml version="1.0"?>\n<Clock xmlns:dt="urn:schemas-microsoft-com:datatypes"><Description dt:dt="string">E-Prime Primary Realtime Clock</Description><StartTime><Timestamp dt:dt="int">0</Timestamp><DateUtc dt:dt="string">2015-08-21T14:07:57Z</DateUtc></StartTime><FrequencyChanges><FrequencyChange><Frequency dt:dt="r8">2612285</Frequency><Timestamp dt:dt="r8">4756341081</Timestamp><Current dt:dt="r8">0</Current><DateUtc dt:dt="string">2015-08-21T14:07:57Z</DateUtc></FrequencyChange></FrequencyChanges></Clock>\n	1 ver1_main_procedure-38-1	99.939	1.0.0.880	2	łm	461902658	prawa	1	2.0.10.182	08-21-2015	2015-08-21 14:07:57	16:07:57	mezczyzna	2.0.10.92	3	6	1	1																							d	{SPACE}		no	BlockProc2		BlockList									11	Free	dl	color_green.png		-1	12	201383	160																								25	prime_right.png	1	200863	0	0	13	1	200863	1	200863	0	200862	20	0	-1	199363	200862	200862	0		TrialProc1	right	0		0	10	201173	-201173		0	0	TrialList2	target_both.png	0	dl	-1	4	200913	260	d	457	201370															10	1	11	comp			150
1 ver1_main_procedure	38	1	21	<?xml version="1.0"?>\n<Clock xmlns:dt="urn:schemas-microsoft-com:datatypes"><Description dt:dt="string">E-Prime Primary Realtime Clock</Description><StartTime><Timestamp dt:dt="int">0</Timestamp><DateUtc dt:dt="string">2015-08-21T14:07:57Z</DateUtc></StartTime><FrequencyChanges><FrequencyChange><Frequency dt:dt="r8">2612285</Frequency><Timestamp dt:dt="r8">4756341081</Timestamp><Current dt:dt="r8">0</Current><DateUtc dt:dt="string">2015-08-21T14:07:57Z</DateUtc></FrequencyChange></FrequencyChanges></Clock>\n	1 ver1_main_procedure-38-1	99.939	1.0.0.880	2	łm	461902658	prawa	1	2.0.10.182	08-21-2015	2015-08-21 14:07:57	16:07:57	mezczyzna	2.0.10.92	3	6	1	1																							d	{SPACE}		no	BlockProc2		BlockList									12	Free	dl	color_red.png		-1	13	203864	310																								75	prime_left.png	0	203354	0	0	13	0	203354	0	203354	1	203354	20	0	-1	201855	203354	203353	0		TrialProc1	left	0		0	10	203664	-203664		0	0	TrialList2	target_both.png	0	dl	-1	3	203404	260	d	447	203851															7	1	12	comp			300
1 ver1_main_procedure	38	1	21	<?xml version="1.0"?>\n<Clock xmlns:dt="urn:schemas-microsoft-com:datatypes"><Description dt:dt="string">E-Prime Primary Realtime Clock</Description><StartTime><Timestamp dt:dt="int">0</Timestamp><DateUtc dt:dt="string">2015-08-21T14:07:57Z</DateUtc></StartTime><FrequencyChanges><FrequencyChange><Frequency dt:dt="r8">2612285</Frequency><Timestamp dt:dt="r8">4756341081</Timestamp><Current dt:dt="r8">0</Current><DateUtc dt:dt="string">2015-08-21T14:07:57Z</DateUtc></FrequencyChange></FrequencyChanges></Clock>\n	1 ver1_main_procedure-38-1	99.939	1.0.0.880	2	łm	461902658	prawa	1	2.0.10.182	08-21-2015	2015-08-21 14:07:57	16:07:57	mezczyzna	2.0.10.92	3	6	1	1																							d	{SPACE}		no	BlockProc2		BlockList									13	Free	dl	color_red.png		-1	9	206516	460																								75	prime_left.png	0	205986	0	0	13	0	205986	0	205986	1	205986	20	0	-1	204486	205986	205985	0		TrialProc1	right	0		0	10	206296	-206296		0	0	TrialList2	target_both.png	0	dl	-1	3	206036	260	d	471	206507															12	1	13	incomp			450
1 ver1_main_procedure	38	1	21	<?xml version="1.0"?>\n<Clock xmlns:dt="urn:schemas-microsoft-com:datatypes"><Description dt:dt="string">E-Prime Primary Realtime Clock</Description><StartTime><Timestamp dt:dt="int">0</Timestamp><DateUtc dt:dt="string">2015-08-21T14:07:57Z</DateUtc></StartTime><FrequencyChanges><FrequencyChange><Frequency dt:dt="r8">2612285</Frequency><Timestamp dt:dt="r8">4756341081</Timestamp><Current dt:dt="r8">0</Current><DateUtc dt:dt="string">2015-08-21T14:07:57Z</DateUtc></FrequencyChange></FrequencyChanges></Clock>\n	1 ver1_main_procedure-38-1	99.939	1.0.0.880	2	łm	461902658	prawa	1	2.0.10.182	08-21-2015	2015-08-21 14:07:57	16:07:57	mezczyzna	2.0.10.92	3	6	1	1																							d	{SPACE}		no	BlockProc2		BlockList									14	Free	dl	color_blue.png		-1	15	209418	310																			1					25	prime_left.png	0	208787	0	0	13	1	208788	1	208788	1	208787	20	0	-1	207288	208787	208786	0	prime_left.png	TrialProc1	left	0		1	10	209097	-209097		0	0	TrialList2	target_both.png	0	dl	-1	3	208837	260	d	566	209403															8	1	14	neut			300
1 ver1_main_procedure	38	1	21	<?xml version="1.0"?>\n<Clock xmlns:dt="urn:schemas-microsoft-com:datatypes"><Description dt:dt="string">E-Prime Primary Realtime Clock</Description><StartTime><Timestamp dt:dt="int">0</Timestamp><DateUtc dt:dt="string">2015-08-21T14:07:57Z</DateUtc></StartTime><FrequencyChanges><FrequencyChange><Frequency dt:dt="r8">2612285</Frequency><Timestamp dt:dt="r8">4756341081</Timestamp><Current dt:dt="r8">0</Current><DateUtc dt:dt="string">2015-08-21T14:07:57Z</DateUtc></FrequencyChange></FrequencyChanges></Clock>\n	1 ver1_main_procedure-38-1	99.939	1.0.0.880	2	łm	461902658	prawa	1	2.0.10.182	08-21-2015	2015-08-21 14:07:57	16:07:57	mezczyzna	2.0.10.92	3	6	1	1																							d	{SPACE}		no	BlockProc2		BlockList									15	Free	dl	color_red.png		-1	10	211989	310																								75	prime_left.png	0	211539	0	0	13	0	211539	0	211539	1	211539	20	0	-1	210040	211539	211538	0		TrialProc1	left	0		0	10	211849	-211849		0	0	TrialList2	target_both.png	0	dl	-1	3	211589	260	d	390	211979															7	1	15	comp			300
1 ver1_main_procedure	38	1	21	<?xml version="1.0"?>\n<Clock xmlns:dt="urn:schemas-microsoft-com:datatypes"><Description dt:dt="string">E-Prime Primary Realtime Clock</Description><StartTime><Timestamp dt:dt="int">0</Timestamp><DateUtc dt:dt="string">2015-08-21T14:07:57Z</DateUtc></StartTime><FrequencyChanges><FrequencyChange><Frequency dt:dt="r8">2612285</Frequency><Timestamp dt:dt="r8">4756341081</Timestamp><Current dt:dt="r8">0</Current><DateUtc dt:dt="string">2015-08-21T14:07:57Z</DateUtc></FrequencyChange></FrequencyChanges></Clock>\n	1 ver1_main_procedure-38-1	99.939	1.0.0.880	2	łm	461902658	prawa	1	2.0.10.182	08-21-2015	2015-08-21 14:07:57	16:07:57	mezczyzna	2.0.10.92	3	6	1	1																							d	{SPACE}		no	BlockProc2		BlockList									16	Free	dl	color_red.png		-1	14	214561	460																								75	prime_left.png	1	214111	0	0	13	1	214111	1	214111	0	214110	20	0	-1	212611	214110	214110	0		TrialProc1	right	0		0	10	214421	-214421		0	0	TrialList2	target_both.png	0	dl	-1	4	214161	260	d	386	214547															12	1	16	incomp			450
1 ver1_main_procedure	38	1	21	<?xml version="1.0"?>\n<Clock xmlns:dt="urn:schemas-microsoft-com:datatypes"><Description dt:dt="string">E-Prime Primary Realtime Clock</Description><StartTime><Timestamp dt:dt="int">0</Timestamp><DateUtc dt:dt="string">2015-08-21T14:07:57Z</DateUtc></StartTime><FrequencyChanges><FrequencyChange><Frequency dt:dt="r8">2612285</Frequency><Timestamp dt:dt="r8">4756341081</Timestamp><Current dt:dt="r8">0</Current><DateUtc dt:dt="string">2015-08-21T14:07:57Z</DateUtc></FrequencyChange></FrequencyChanges></Clock>\n	1 ver1_main_procedure-38-1	99.939	1.0.0.880	2	łm	461902658	prawa	1	2.0.10.182	08-21-2015	2015-08-21 14:07:57	16:07:57	mezczyzna	2.0.10.92	3	6	1	1																							d	{SPACE}		no	BlockProc2		BlockList									17	Free	dl	color_red.png		-1	8	217252	160																								25	prime_left.png	0	216832	0	0	13	0	216832	0	216832	1	216832	20	0	-1	215333	216832	216831	0		TrialProc1	right	0		0	10	217142	-217142		0	0	TrialList2	target_both.png	0	dl	-1	3	216882	260	d	361	217243															12	1	17	incomp			150
1 ver1_main_procedure	38	1	21	<?xml version="1.0"?>\n<Clock xmlns:dt="urn:schemas-microsoft-com:datatypes"><Description dt:dt="string">E-Prime Primary Realtime Clock</Description><StartTime><Timestamp dt:dt="int">0</Timestamp><DateUtc dt:dt="string">2015-08-21T14:07:57Z</DateUtc></StartTime><FrequencyChanges><FrequencyChange><Frequency dt:dt="r8">2612285</Frequency><Timestamp dt:dt="r8">4756341081</Timestamp><Current dt:dt="r8">0</Current><DateUtc dt:dt="string">2015-08-21T14:07:57Z</DateUtc></FrequencyChange></FrequencyChanges></Clock>\n	1 ver1_main_procedure-38-1	99.939	1.0.0.880	2	łm	461902658	prawa	1	2.0.10.182	08-21-2015	2015-08-21 14:07:57	16:07:57	mezczyzna	2.0.10.92	3	6	1	1																							d	{SPACE}		no	BlockProc2		BlockList									18	Free	dl	color_red.png		-1	10	219654	460																								75	prime_left.png	0	219224	0	0	13	0	219224	0	219224	1	219224	20	0	-1	217724	219224	219223	0		TrialProc1	left	0		0	10	219534	-219534		0	0	TrialList2	target_both.png	0	dl	-1	3	219274	260	d	369	219643															7	1	18	comp			450
1 ver1_main_procedure	38	1	21	<?xml version="1.0"?>\n<Clock xmlns:dt="urn:schemas-microsoft-com:datatypes"><Description dt:dt="string">E-Prime Primary Realtime Clock</Description><StartTime><Timestamp dt:dt="int">0</Timestamp><DateUtc dt:dt="string">2015-08-21T14:07:57Z</DateUtc></StartTime><FrequencyChanges><FrequencyChange><Frequency dt:dt="r8">2612285</Frequency><Timestamp dt:dt="r8">4756341081</Timestamp><Current dt:dt="r8">0</Current><DateUtc dt:dt="string">2015-08-21T14:07:57Z</DateUtc></FrequencyChange></FrequencyChanges></Clock>\n	1 ver1_main_procedure-38-1	99.939	1.0.0.880	2	łm	461902658	prawa	1	2.0.10.182	08-21-2015	2015-08-21 14:07:57	16:07:57	mezczyzna	2.0.10.92	3	6	1	1																							d	{SPACE}		no	BlockProc2		BlockList									19	Cued	d	color_red.png		-1	10	222486	460																								25	prime_left.png	0	221925	0	0	13	0	221925	0	221925	1	221925	20	0	-1	220426	221925	221924	0		TrialProc1	left	0		0	10	222235	-222235		0	0	TrialList2	target_left.png	1	d	-1	3	221975	260	d	500	222475															1	1	19	comp			450
1 ver1_main_procedure	38	1	21	<?xml version="1.0"?>\n<Clock xmlns:dt="urn:schemas-microsoft-com:datatypes"><Description dt:dt="string">E-Prime Primary Realtime Clock</Description><StartTime><Timestamp dt:dt="int">0</Timestamp><DateUtc dt:dt="string">2015-08-21T14:07:57Z</DateUtc></StartTime><FrequencyChanges><FrequencyChange><Frequency dt:dt="r8">2612285</Frequency><Timestamp dt:dt="r8">4756341081</Timestamp><Current dt:dt="r8">0</Current><DateUtc dt:dt="string">2015-08-21T14:07:57Z</DateUtc></FrequencyChange></FrequencyChanges></Clock>\n	1 ver1_main_procedure-38-1	99.939	1.0.0.880	2	łm	461902658	prawa	1	2.0.10.182	08-21-2015	2015-08-21 14:07:57	16:07:57	mezczyzna	2.0.10.92	3	6	1	1																							d	{SPACE}		no	BlockProc2		BlockList									20	Cued	l	color_purple.png		-1	7	225227	310																								25	prime_left.png	0	224757	0	0	13	0	224757	0	224757	1	224757	20	0	-1	223258	224757	224756	0		TrialProc1	right	0		0	10	225067	-225067		0	0	TrialList2	target_right.png	1	l	-1	3	224807	260	l	412	225219															6	1	20	incomp			300
1 ver1_main_procedure	38	1	21	<?xml version="1.0"?>\n<Clock xmlns:dt="urn:schemas-microsoft-com:datatypes"><Description dt:dt="string">E-Prime Primary Realtime Clock</Description><StartTime><Timestamp dt:dt="int">0</Timestamp><DateUtc dt:dt="string">2015-08-21T14:07:57Z</DateUtc></StartTime><FrequencyChanges><FrequencyChange><Frequency dt:dt="r8">2612285</Frequency><Timestamp dt:dt="r8">4756341081</Timestamp><Current dt:dt="r8">0</Current><DateUtc dt:dt="string">2015-08-21T14:07:57Z</DateUtc></FrequencyChange></FrequencyChanges></Clock>\n	1 ver1_main_procedure-38-1	99.939	1.0.0.880	2	łm	461902658	prawa	1	2.0.10.182	08-21-2015	2015-08-21 14:07:57	16:07:57	mezczyzna	2.0.10.92	3	6	1	1																							d	{SPACE}		no	BlockProc2		BlockList									21	Free	dl	color_green.png		-1	5	227929	310																								25	prime_right.png	1	227349	0	0	13	1	227349	1	227349	0	227348	20	0	-1	225849	227348	227348	0		TrialProc1	right	0		0	11	227659	-227659		0	0	TrialList2	target_both.png	0	dl	-1	3	227398	261	d	525	227923															10	1	21	comp			300
1 ver1_main_procedure	38	1	21	<?xml version="1.0"?>\n<Clock xmlns:dt="urn:schemas-microsoft-com:datatypes"><Description dt:dt="string">E-Prime Primary Realtime Clock</Description><StartTime><Timestamp dt:dt="int">0</Timestamp><DateUtc dt:dt="string">2015-08-21T14:07:57Z</DateUtc></StartTime><FrequencyChanges><FrequencyChange><Frequency dt:dt="r8">2612285</Frequency><Timestamp dt:dt="r8">4756341081</Timestamp><Current dt:dt="r8">0</Current><DateUtc dt:dt="string">2015-08-21T14:07:57Z</DateUtc></FrequencyChange></FrequencyChanges></Clock>\n	1 ver1_main_procedure-38-1	99.939	1.0.0.880	2	łm	461902658	prawa	1	2.0.10.182	08-21-2015	2015-08-21 14:07:57	16:07:57	mezczyzna	2.0.10.92	3	6	1	1																							d	{SPACE}		no	BlockProc2		BlockList									22	Cued	l	color_yellow.png		-1	14	230730	161																								25	prime_right.png	0	230050	0	0	13	0	230050	0	230050	1	230050	20	0	-1	228551	230050	230049	0		TrialProc1	right	0		1	10	230360	-230360		0	0	TrialList2	target_right.png	1	l	-1	3	230100	260	l	615	230715															4	1	22	comp			150
1 ver1_main_procedure	38	1	21	<?xml version="1.0"?>\n<Clock xmlns:dt="urn:schemas-microsoft-com:datatypes"><Description dt:dt="string">E-Prime Primary Realtime Clock</Description><StartTime><Timestamp dt:dt="int">0</Timestamp><DateUtc dt:dt="string">2015-08-21T14:07:57Z</DateUtc></StartTime><FrequencyChanges><FrequencyChange><Frequency dt:dt="r8">2612285</Frequency><Timestamp dt:dt="r8">4756341081</Timestamp><Current dt:dt="r8">0</Current><DateUtc dt:dt="string">2015-08-21T14:07:57Z</DateUtc></FrequencyChange></FrequencyChanges></Clock>\n	1 ver1_main_procedure-38-1	99.939	1.0.0.880	2	łm	461902658	prawa	1	2.0.10.182	08-21-2015	2015-08-21 14:07:57	16:07:57	mezczyzna	2.0.10.92	3	6	1	1																							d	{SPACE}		no	BlockProc2		BlockList									23	Free	dl	color_blue.png		-1	14	233482	310																			2					25	prime_right.png	0	232702	0	0	13	0	232702	0	232702	1	232702	20	0	-1	231202	232702	232701	0	prime_right.png	TrialProc1	left	0		0	10	233012	-233012		0	0	TrialList2	target_both.png	0	dl	-1	3	232752	260	d	715	233467															8	1	23	neut			300
1 ver1_main_procedure	38	1	21	<?xml version="1.0"?>\n<Clock xmlns:dt="urn:schemas-microsoft-com:datatypes"><Description dt:dt="string">E-Prime Primary Realtime Clock</Description><StartTime><Timestamp dt:dt="int">0</Timestamp><DateUtc dt:dt="string">2015-08-21T14:07:57Z</DateUtc></StartTime><FrequencyChanges><FrequencyChange><Frequency dt:dt="r8">2612285</Frequency><Timestamp dt:dt="r8">4756341081</Timestamp><Current dt:dt="r8">0</Current><DateUtc dt:dt="string">2015-08-21T14:07:57Z</DateUtc></FrequencyChange></FrequencyChanges></Clock>\n	1 ver1_main_procedure-38-1	99.939	1.0.0.880	2	łm	461902658	prawa	1	2.0.10.182	08-21-2015	2015-08-21 14:07:57	16:07:57	mezczyzna	2.0.10.92	3	6	1	1																							d	{SPACE}		no	BlockProc2		BlockList									24	Free	dl	color_yellow.png		-1	12	236384	460																								25	prime_right.png	0	235603	0	0	13	1	235604	1	235604	1	235603	20	0	-1	234104	235603	235602	0		TrialProc1	right	0		0	11	235914	-235914		0	0	TrialList2	target_both.png	0	dl	-1	3	235653	261	l	718	236371															10	1	24	comp			450
1 ver1_main_procedure	38	1	21	<?xml version="1.0"?>\n<Clock xmlns:dt="urn:schemas-microsoft-com:datatypes"><Description dt:dt="string">E-Prime Primary Realtime Clock</Description><StartTime><Timestamp dt:dt="int">0</Timestamp><DateUtc dt:dt="string">2015-08-21T14:07:57Z</DateUtc></StartTime><FrequencyChanges><FrequencyChange><Frequency dt:dt="r8">2612285</Frequency><Timestamp dt:dt="r8">4756341081</Timestamp><Current dt:dt="r8">0</Current><DateUtc dt:dt="string">2015-08-21T14:07:57Z</DateUtc></FrequencyChange></FrequencyChanges></Clock>\n	1 ver1_main_procedure-38-1	99.939	1.0.0.880	2	łm	461902658	prawa	1	2.0.10.182	08-21-2015	2015-08-21 14:07:57	16:07:57	mezczyzna	2.0.10.92	3	6	1	1																							d	{SPACE}		no	BlockProc2		BlockList									25	Cued	d	color_red.png		-1	12	239256	160																								75	prime_left.png	0	238655	0	0	13	0	238655	0	238655	1	238655	20	0	-1	237156	238655	238654	0		TrialProc1	left	0		1	10	238965	-238965		0	0	TrialList2	target_left.png	1	d	-1	3	238705	260	d	538	239243															1	1	25	comp			150
1 ver1_main_procedure	38	1	21	<?xml version="1.0"?>\n<Clock xmlns:dt="urn:schemas-microsoft-com:datatypes"><Description dt:dt="string">E-Prime Primary Realtime Clock</Description><StartTime><Timestamp dt:dt="int">0</Timestamp><DateUtc dt:dt="string">2015-08-21T14:07:57Z</DateUtc></StartTime><FrequencyChanges><FrequencyChange><Frequency dt:dt="r8">2612285</Frequency><Timestamp dt:dt="r8">4756341081</Timestamp><Current dt:dt="r8">0</Current><DateUtc dt:dt="string">2015-08-21T14:07:57Z</DateUtc></FrequencyChange></FrequencyChanges></Clock>\n	1 ver1_main_procedure-38-1	99.939	1.0.0.880	2	łm	461902658	prawa	1	2.0.10.182	08-21-2015	2015-08-21 14:07:57	16:07:57	mezczyzna	2.0.10.92	3	6	1	1																							d	{SPACE}		no	BlockProc2		BlockList									26	Free	dl	color_red.png		-1	13	242057	160																								75	prime_left.png	0	241227	0	0	13	0	241227	0	241227	1	241227	20	0	-1	239728	241227	241226	0		TrialProc1	left	0		0	10	241537	-241537		0	0	TrialList2	target_both.png	0	dl	-1	3	241277	260	d	767	242044															7	1	26	comp			150
1 ver1_main_procedure	38	1	21	<?xml version="1.0"?>\n<Clock xmlns:dt="urn:schemas-microsoft-com:datatypes"><Description dt:dt="string">E-Prime Primary Realtime Clock</Description><StartTime><Timestamp dt:dt="int">0</Timestamp><DateUtc dt:dt="string">2015-08-21T14:07:57Z</DateUtc></StartTime><FrequencyChanges><FrequencyChange><Frequency dt:dt="r8">2612285</Frequency><Timestamp dt:dt="r8">4756341081</Timestamp><Current dt:dt="r8">0</Current><DateUtc dt:dt="string">2015-08-21T14:07:57Z</DateUtc></FrequencyChange></FrequencyChanges></Clock>\n	1 ver1_main_procedure-38-1	99.939	1.0.0.880	2	łm	461902658	prawa	1	2.0.10.182	08-21-2015	2015-08-21 14:07:57	16:07:57	mezczyzna	2.0.10.92	3	6	1	1																							d	{SPACE}		no	BlockProc2		BlockList									27	Free	dl	color_red.png		-1	9	244629	460																								75	prime_left.png	1	244029	0	0	13	1	244029	1	244029	0	244028	20	0	-1	242529	244028	244028	0		TrialProc1	left	0		0	11	244339	-244339		0	0	TrialList2	target_both.png	0	dl	-1	3	244078	261	d	542	244620															7	1	27	comp			450
1 ver1_main_procedure	38	1	21	<?xml version="1.0"?>\n<Clock xmlns:dt="urn:schemas-microsoft-com:datatypes"><Description dt:dt="string">E-Prime Primary Realtime Clock</Description><StartTime><Timestamp dt:dt="int">0</Timestamp><DateUtc dt:dt="string">2015-08-21T14:07:57Z</DateUtc></StartTime><FrequencyChanges><FrequencyChange><Frequency dt:dt="r8">2612285</Frequency><Timestamp dt:dt="r8">4756341081</Timestamp><Current dt:dt="r8">0</Current><DateUtc dt:dt="string">2015-08-21T14:07:57Z</DateUtc></FrequencyChange></FrequencyChanges></Clock>\n	1 ver1_main_procedure-38-1	99.939	1.0.0.880	2	łm	461902658	prawa	1	2.0.10.182	08-21-2015	2015-08-21 14:07:57	16:07:57	mezczyzna	2.0.10.92	3	6	1	1																							d	{SPACE}		no	BlockProc2		BlockList									28	Free	dl	color_blue.png		-1	7	247451	310																			1					25	prime_left.png	0	246900	0	0	13	0	246900	0	246900	1	246900	20	0	-1	245401	246900	246899	0	prime_left.png	TrialProc1	left	0		1	10	247210	-247210		0	0	TrialList2	target_both.png	0	dl	-1	3	246950	260	d	494	247444															8	1	28	neut			300
1 ver1_main_procedure	38	1	21	<?xml version="1.0"?>\n<Clock xmlns:dt="urn:schemas-microsoft-com:datatypes"><Description dt:dt="string">E-Prime Primary Realtime Clock</Description><StartTime><Timestamp dt:dt="int">0</Timestamp><DateUtc dt:dt="string">2015-08-21T14:07:57Z</DateUtc></StartTime><FrequencyChanges><FrequencyChange><Frequency dt:dt="r8">2612285</Frequency><Timestamp dt:dt="r8">4756341081</Timestamp><Current dt:dt="r8">0</Current><DateUtc dt:dt="string">2015-08-21T14:07:57Z</DateUtc></FrequencyChange></FrequencyChanges></Clock>\n	1 ver1_main_procedure-38-1	99.939	1.0.0.880	2	łm	461902658	prawa	1	2.0.10.182	08-21-2015	2015-08-21 14:07:57	16:07:57	mezczyzna	2.0.10.92	3	6	1	1																							d	{SPACE}		no	BlockProc2		BlockList									29	Free	dl	color_blue.png		-1	12	250152	160																			2					75	prime_right.png	0	249572	0	0	13	0	249572	0	249572	1	249572	20	0	-1	248073	249572	249571	0	prime_right.png	TrialProc1	left	0		0	10	249882	-249882		0	0	TrialList2	target_both.png	0	dl	-1	3	249622	260	d	518	250140															8	1	29	neut			150
1 ver1_main_procedure	38	1	21	<?xml version="1.0"?>\n<Clock xmlns:dt="urn:schemas-microsoft-com:datatypes"><Description dt:dt="string">E-Prime Primary Realtime Clock</Description><StartTime><Timestamp dt:dt="int">0</Timestamp><DateUtc dt:dt="string">2015-08-21T14:07:57Z</DateUtc></StartTime><FrequencyChanges><FrequencyChange><Frequency dt:dt="r8">2612285</Frequency><Timestamp dt:dt="r8">4756341081</Timestamp><Current dt:dt="r8">0</Current><DateUtc dt:dt="string">2015-08-21T14:07:57Z</DateUtc></FrequencyChange></FrequencyChanges></Clock>\n	1 ver1_main_procedure-38-1	99.939	1.0.0.880	2	łm	461902658	prawa	1	2.0.10.182	08-21-2015	2015-08-21 14:07:57	16:07:57	mezczyzna	2.0.10.92	3	6	1	1																							d	{SPACE}		no	BlockProc2		BlockList									30	Free	dl	color_green.png		-1	5	252674	460																								75	prime_right.png	0	252123	0	0	13	1	252124	1	252124	1	252123	20	0	-1	250624	252123	252122	0		TrialProc1	left	0		0	11	252434	-252434		0	0	TrialList2	target_both.png	0	dl	-1	3	252173	261	d	495	252668															9	1	30	incomp			450
1 ver1_main_procedure	38	1	21	<?xml version="1.0"?>\n<Clock xmlns:dt="urn:schemas-microsoft-com:datatypes"><Description dt:dt="string">E-Prime Primary Realtime Clock</Description><StartTime><Timestamp dt:dt="int">0</Timestamp><DateUtc dt:dt="string">2015-08-21T14:07:57Z</DateUtc></StartTime><FrequencyChanges><FrequencyChange><Frequency dt:dt="r8">2612285</Frequency><Timestamp dt:dt="r8">4756341081</Timestamp><Current dt:dt="r8">0</Current><DateUtc dt:dt="string">2015-08-21T14:07:57Z</DateUtc></FrequencyChange></FrequencyChanges></Clock>\n	1 ver1_main_procedure-38-1	99.939	1.0.0.880	2	łm	461902658	prawa	1	2.0.10.182	08-21-2015	2015-08-21 14:07:57	16:07:57	mezczyzna	2.0.10.92	3	6	1	1																							d	{SPACE}		no	BlockProc2		BlockList									31	Free	dl	color_blue.png		-1	4	255465	461																			1					75	prime_left.png	0	254945	0	0	13	0	254945	0	254945	1	254945	20	0	-1	253446	254945	254944	0	prime_left.png	TrialProc1	left	0		0	10	255255	-255255		0	0	TrialList2	target_both.png	0	dl	-1	3	254995	260	d	465	255460															8	1	31	neut			450
1 ver1_main_procedure	38	1	21	<?xml version="1.0"?>\n<Clock xmlns:dt="urn:schemas-microsoft-com:datatypes"><Description dt:dt="string">E-Prime Primary Realtime Clock</Description><StartTime><Timestamp dt:dt="int">0</Timestamp><DateUtc dt:dt="string">2015-08-21T14:07:57Z</DateUtc></StartTime><FrequencyChanges><FrequencyChange><Frequency dt:dt="r8">2612285</Frequency><Timestamp dt:dt="r8">4756341081</Timestamp><Current dt:dt="r8">0</Current><DateUtc dt:dt="string">2015-08-21T14:07:57Z</DateUtc></FrequencyChange></FrequencyChanges></Clock>\n	1 ver1_main_procedure-38-1	99.939	1.0.0.880	2	łm	461902658	prawa	1	2.0.10.182	08-21-2015	2015-08-21 14:07:57	16:07:57	mezczyzna	2.0.10.92	3	6	1	1																							d	{SPACE}		no	BlockProc2		BlockList									32	Free	dl	color_blue.png		-1	12	258337	310																			2					25	prime_right.png	0	257737	0	0	13	0	257737	0	257737	1	257737	20	0	-1	256237	257737	257736	0	prime_right.png	TrialProc1	right	0		0	10	258047	-258047		0	0	TrialList2	target_both.png	0	dl	-1	3	257787	260	d	537	258324															11	1	32	neut			300
1 ver1_main_procedure	38	1	21	<?xml version="1.0"?>\n<Clock xmlns:dt="urn:schemas-microsoft-com:datatypes"><Description dt:dt="string">E-Prime Primary Realtime Clock</Description><StartTime><Timestamp dt:dt="int">0</Timestamp><DateUtc dt:dt="string">2015-08-21T14:07:57Z</DateUtc></StartTime><FrequencyChanges><FrequencyChange><Frequency dt:dt="r8">2612285</Frequency><Timestamp dt:dt="r8">4756341081</Timestamp><Current dt:dt="r8">0</Current><DateUtc dt:dt="string">2015-08-21T14:07:57Z</DateUtc></FrequencyChange></FrequencyChanges></Clock>\n	1 ver1_main_procedure-38-1	99.939	1.0.0.880	2	łm	461902658	prawa	1	2.0.10.182	08-21-2015	2015-08-21 14:07:57	16:07:57	mezczyzna	2.0.10.92	3	6	1	1																							d	{SPACE}		no	BlockProc2		BlockList									33	Cued	l	color_orange.png		-1	6	261019	310																			1					25	prime_left.png	1	260459	0	0	13	1	260459	1	260459	1	260458	20	0	-1	258959	260458	260457	0	prime_left.png	TrialProc1	right	0		0	11	260769	-260769		0	0	TrialList2	target_right.png	1	l	-1	3	260508	261	l	504	261012															5	1	33	neut			300
1 ver1_main_procedure	38	1	21	<?xml version="1.0"?>\n<Clock xmlns:dt="urn:schemas-microsoft-com:datatypes"><Description dt:dt="string">E-Prime Primary Realtime Clock</Description><StartTime><Timestamp dt:dt="int">0</Timestamp><DateUtc dt:dt="string">2015-08-21T14:07:57Z</DateUtc></StartTime><FrequencyChanges><FrequencyChange><Frequency dt:dt="r8">2612285</Frequency><Timestamp dt:dt="r8">4756341081</Timestamp><Current dt:dt="r8">0</Current><DateUtc dt:dt="string">2015-08-21T14:07:57Z</DateUtc></FrequencyChange></FrequencyChanges></Clock>\n	1 ver1_main_procedure-38-1	99.939	1.0.0.880	2	łm	461902658	prawa	1	2.0.10.182	08-21-2015	2015-08-21 14:07:57	16:07:57	mezczyzna	2.0.10.92	3	6	1	1																							d	{SPACE}		no	BlockProc2		BlockList									34	Free	dl	color_blue.png		-1	11	263720	160																			2					25	prime_right.png	0	263140	0	0	13	0	263140	0	263140	1	263140	20	0	-1	261641	263140	263139	0	prime_right.png	TrialProc1	right	0		0	10	263450	-263450		0	0	TrialList2	target_both.png	0	dl	-1	3	263190	260	d	518	263708															11	1	34	neut			150
1 ver1_main_procedure	38	1	21	<?xml version="1.0"?>\n<Clock xmlns:dt="urn:schemas-microsoft-com:datatypes"><Description dt:dt="string">E-Prime Primary Realtime Clock</Description><StartTime><Timestamp dt:dt="int">0</Timestamp><DateUtc dt:dt="string">2015-08-21T14:07:57Z</DateUtc></StartTime><FrequencyChanges><FrequencyChange><Frequency dt:dt="r8">2612285</Frequency><Timestamp dt:dt="r8">4756341081</Timestamp><Current dt:dt="r8">0</Current><DateUtc dt:dt="string">2015-08-21T14:07:57Z</DateUtc></FrequencyChange></FrequencyChanges></Clock>\n	1 ver1_main_procedure-38-1	99.939	1.0.0.880	2	łm	461902658	prawa	1	2.0.10.182	08-21-2015	2015-08-21 14:07:57	16:07:57	mezczyzna	2.0.10.92	3	6	1	1																							d	{SPACE}		no	BlockProc2		BlockList									35	Free	dl	color_green.png		-1	11	266152	460																								75	prime_right.png	0	265692	0	0	13	0	265692	0	265692	1	265692	20	0	-1	264192	265692	265691	0		TrialProc1	right	0		0	10	266002	-266002		0	0	TrialList2	target_both.png	0	dl	-1	3	265742	260	d	398	266140															10	1	35	comp			450
1 ver1_main_procedure	38	1	21	<?xml version="1.0"?>\n<Clock xmlns:dt="urn:schemas-microsoft-com:datatypes"><Description dt:dt="string">E-Prime Primary Realtime Clock</Description><StartTime><Timestamp dt:dt="int">0</Timestamp><DateUtc dt:dt="string">2015-08-21T14:07:57Z</DateUtc></StartTime><FrequencyChanges><FrequencyChange><Frequency dt:dt="r8">2612285</Frequency><Timestamp dt:dt="r8">4756341081</Timestamp><Current dt:dt="r8">0</Current><DateUtc dt:dt="string">2015-08-21T14:07:57Z</DateUtc></FrequencyChange></FrequencyChanges></Clock>\n	1 ver1_main_procedure-38-1	99.939	1.0.0.880	2	łm	461902658	prawa	1	2.0.10.182	08-21-2015	2015-08-21 14:07:57	16:07:57	mezczyzna	2.0.10.92	3	6	1	1																							d	{SPACE}		no	BlockProc2		BlockList									36	Free	dl	color_red.png		-1	8	268893	161																								75	prime_left.png	0	268423	0	0	13	0	268423	0	268423	1	268423	20	0	-1	266924	268423	268422	0		TrialProc1	right	0		1	10	268733	-268733		0	0	TrialList2	target_both.png	0	dl	-1	3	268473	260	d	411	268884															12	1	36	incomp			150
1 ver1_main_procedure	38	1	21	<?xml version="1.0"?>\n<Clock xmlns:dt="urn:schemas-microsoft-com:datatypes"><Description dt:dt="string">E-Prime Primary Realtime Clock</Description><StartTime><Timestamp dt:dt="int">0</Timestamp><DateUtc dt:dt="string">2015-08-21T14:07:57Z</DateUtc></StartTime><FrequencyChanges><FrequencyChange><Frequency dt:dt="r8">2612285</Frequency><Timestamp dt:dt="r8">4756341081</Timestamp><Current dt:dt="r8">0</Current><DateUtc dt:dt="string">2015-08-21T14:07:57Z</DateUtc></FrequencyChange></FrequencyChanges></Clock>\n	1 ver1_main_procedure-38-1	99.939	1.0.0.880	2	łm	461902658	prawa	1	2.0.10.182	08-21-2015	2015-08-21 14:07:57	16:07:57	mezczyzna	2.0.10.92	3	6	1	1																							d	{SPACE}		no	BlockProc2		BlockList									37	Free	dl	color_red.png		-1	10	271335	460																								25	prime_left.png	0	270865	0	0	13	0	270865	0	270865	1	270865	20	0	-1	269365	270865	270864	0		TrialProc1	left	0		0	10	271175	-271175		0	0	TrialList2	target_both.png	0	dl	-1	3	270915	260	d	409	271324															7	1	37	comp			450
1 ver1_main_procedure	38	1	21	<?xml version="1.0"?>\n<Clock xmlns:dt="urn:schemas-microsoft-com:datatypes"><Description dt:dt="string">E-Prime Primary Realtime Clock</Description><StartTime><Timestamp dt:dt="int">0</Timestamp><DateUtc dt:dt="string">2015-08-21T14:07:57Z</DateUtc></StartTime><FrequencyChanges><FrequencyChange><Frequency dt:dt="r8">2612285</Frequency><Timestamp dt:dt="r8">4756341081</Timestamp><Current dt:dt="r8">0</Current><DateUtc dt:dt="string">2015-08-21T14:07:57Z</DateUtc></FrequencyChange></FrequencyChanges></Clock>\n	1 ver1_main_procedure-38-1	99.939	1.0.0.880	2	łm	461902658	prawa	1	2.0.10.182	08-21-2015	2015-08-21 14:07:57	16:07:57	mezczyzna	2.0.10.92	3	6	1	1																							d	{SPACE}		no	BlockProc2		BlockList									38	Free	dl	color_red.png		-1	14	274067	460																								75	prime_left.png	0	273606	0	0	13	0	273606	0	273606	1	273606	20	0	-1	272107	273606	273605	0		TrialProc1	right	0		1	10	273916	-273916		0	0	TrialList2	target_both.png	0	dl	-1	3	273656	260	d	396	274052															12	1	38	incomp			450
1 ver1_main_procedure	38	1	21	<?xml version="1.0"?>\n<Clock xmlns:dt="urn:schemas-microsoft-com:datatypes"><Description dt:dt="string">E-Prime Primary Realtime Clock</Description><StartTime><Timestamp dt:dt="int">0</Timestamp><DateUtc dt:dt="string">2015-08-21T14:07:57Z</DateUtc></StartTime><FrequencyChanges><FrequencyChange><Frequency dt:dt="r8">2612285</Frequency><Timestamp dt:dt="r8">4756341081</Timestamp><Current dt:dt="r8">0</Current><DateUtc dt:dt="string">2015-08-21T14:07:57Z</DateUtc></FrequencyChange></FrequencyChanges></Clock>\n	1 ver1_main_procedure-38-1	99.939	1.0.0.880	2	łm	461902658	prawa	1	2.0.10.182	08-21-2015	2015-08-21 14:07:57	16:07:57	mezczyzna	2.0.10.92	3	6	1	1																							d	{SPACE}		no	BlockProc2		BlockList									39	Free	dl	color_red.png		-1	5	276818	160																								25	prime_left.png	0	276338	0	0	13	0	276338	0	276338	1	276338	20	0	-1	274839	276338	276337	0		TrialProc1	left	0		0	10	276648	-276648		0	0	TrialList2	target_both.png	0	dl	-1	3	276388	260	d	425	276813															7	1	39	comp			150
1 ver1_main_procedure	38	1	21	<?xml version="1.0"?>\n<Clock xmlns:dt="urn:schemas-microsoft-com:datatypes"><Description dt:dt="string">E-Prime Primary Realtime Clock</Description><StartTime><Timestamp dt:dt="int">0</Timestamp><DateUtc dt:dt="string">2015-08-21T14:07:57Z</DateUtc></StartTime><FrequencyChanges><FrequencyChange><Frequency dt:dt="r8">2612285</Frequency><Timestamp dt:dt="r8">4756341081</Timestamp><Current dt:dt="r8">0</Current><DateUtc dt:dt="string">2015-08-21T14:07:57Z</DateUtc></FrequencyChange></FrequencyChanges></Clock>\n	1 ver1_main_procedure-38-1	99.939	1.0.0.880	2	łm	461902658	prawa	1	2.0.10.182	08-21-2015	2015-08-21 14:07:57	16:07:57	mezczyzna	2.0.10.92	3	6	1	1																							d	{SPACE}		no	BlockProc2		BlockList									40	Free	dl	color_red.png		-1	13	279210	160																								75	prime_left.png	0	278789	0	0	13	1	278790	1	278790	1	278789	20	0	-1	277290	278789	278788	0		TrialProc1	right	0		0	11	279100	-279100		0	0	TrialList2	target_both.png	0	dl	-1	3	278839	261	d	358	279197															12	1	40	incomp			150
1 ver1_main_procedure	38	1	21	<?xml version="1.0"?>\n<Clock xmlns:dt="urn:schemas-microsoft-com:datatypes"><Description dt:dt="string">E-Prime Primary Realtime Clock</Description><StartTime><Timestamp dt:dt="int">0</Timestamp><DateUtc dt:dt="string">2015-08-21T14:07:57Z</DateUtc></StartTime><FrequencyChanges><FrequencyChange><Frequency dt:dt="r8">2612285</Frequency><Timestamp dt:dt="r8">4756341081</Timestamp><Current dt:dt="r8">0</Current><DateUtc dt:dt="string">2015-08-21T14:07:57Z</DateUtc></FrequencyChange></FrequencyChanges></Clock>\n	1 ver1_main_procedure-38-1	99.939	1.0.0.880	2	łm	461902658	prawa	1	2.0.10.182	08-21-2015	2015-08-21 14:07:57	16:07:57	mezczyzna	2.0.10.92	3	6	1	1																							d	{SPACE}		no	BlockProc2		BlockList									41	Free	dl	color_green.png		-1	10	281591	310																								75	prime_right.png	0	281181	0	0	13	0	281181	0	281181	1	281181	20	0	-1	279682	281181	281180	0		TrialProc1	left	0		0	10	281491	-281491		0	0	TrialList2	target_both.png	0	dl	-1	3	281231	260	d	350	281581															9	1	41	incomp			300
1 ver1_main_procedure	38	1	21	<?xml version="1.0"?>\n<Clock xmlns:dt="urn:schemas-microsoft-com:datatypes"><Description dt:dt="string">E-Prime Primary Realtime Clock</Description><StartTime><Timestamp dt:dt="int">0</Timestamp><DateUtc dt:dt="string">2015-08-21T14:07:57Z</DateUtc></StartTime><FrequencyChanges><FrequencyChange><Frequency dt:dt="r8">2612285</Frequency><Timestamp dt:dt="r8">4756341081</Timestamp><Current dt:dt="r8">0</Current><DateUtc dt:dt="string">2015-08-21T14:07:57Z</DateUtc></FrequencyChange></FrequencyChanges></Clock>\n	1 ver1_main_procedure-38-1	99.939	1.0.0.880	2	łm	461902658	prawa	1	2.0.10.182	08-21-2015	2015-08-21 14:07:57	16:07:57	mezczyzna	2.0.10.92	3	6	1	1																							d	{SPACE}		no	BlockProc2		BlockList									42	Free	dl	color_blue.png		-1	16	284013	460																			1					25	prime_left.png	0	283712	0	0	13	0	283713	0	283712	1	283712	20	0	-1	282213	283712	283711	0	prime_left.png	TrialProc1	right	0		0	0	0	0		0	0	TrialList2	target_both.png	0	dl	-999999	3	283762	0	d	235	283997															11	1	42	neut			450
1 ver1_main_procedure	38	1	21	<?xml version="1.0"?>\n<Clock xmlns:dt="urn:schemas-microsoft-com:datatypes"><Description dt:dt="string">E-Prime Primary Realtime Clock</Description><StartTime><Timestamp dt:dt="int">0</Timestamp><DateUtc dt:dt="string">2015-08-21T14:07:57Z</DateUtc></StartTime><FrequencyChanges><FrequencyChange><Frequency dt:dt="r8">2612285</Frequency><Timestamp dt:dt="r8">4756341081</Timestamp><Current dt:dt="r8">0</Current><DateUtc dt:dt="string">2015-08-21T14:07:57Z</DateUtc></FrequencyChange></FrequencyChanges></Clock>\n	1 ver1_main_procedure-38-1	99.939	1.0.0.880	2	łm	461902658	prawa	1	2.0.10.182	08-21-2015	2015-08-21 14:07:57	16:07:57	mezczyzna	2.0.10.92	3	6	1	1																							d	{SPACE}		no	BlockProc2		BlockList									43	Cued	l	color_orange.png		-1	15	286844	461																			2					25	prime_right.png	0	286284	0	0	13	0	286284	0	286284	1	286284	20	0	-1	284785	286284	286283	0	prime_right.png	TrialProc1	right	0		0	10	286594	-286594		0	0	TrialList2	target_right.png	1	l	-1	3	286334	260	l	495	286829															5	1	43	neut			450
1 ver1_main_procedure	38	1	21	<?xml version="1.0"?>\n<Clock xmlns:dt="urn:schemas-microsoft-com:datatypes"><Description dt:dt="string">E-Prime Primary Realtime Clock</Description><StartTime><Timestamp dt:dt="int">0</Timestamp><DateUtc dt:dt="string">2015-08-21T14:07:57Z</DateUtc></StartTime><FrequencyChanges><FrequencyChange><Frequency dt:dt="r8">2612285</Frequency><Timestamp dt:dt="r8">4756341081</Timestamp><Current dt:dt="r8">0</Current><DateUtc dt:dt="string">2015-08-21T14:07:57Z</DateUtc></FrequencyChange></FrequencyChanges></Clock>\n	1 ver1_main_procedure-38-1	99.939	1.0.0.880	2	łm	461902658	prawa	1	2.0.10.182	08-21-2015	2015-08-21 14:07:57	16:07:57	mezczyzna	2.0.10.92	3	6	1	1																							d	{SPACE}		no	BlockProc2		BlockList									44	Cued	l	color_yellow.png		-1	13	289626	460																								75	prime_right.png	0	289116	0	0	13	0	289116	0	289116	1	289116	20	0	-1	287616	289116	289115	0		TrialProc1	right	0		0	10	289426	-289426		0	0	TrialList2	target_right.png	1	l	-1	3	289166	260	l	447	289613															4	1	44	comp			450
1 ver1_main_procedure	38	1	21	<?xml version="1.0"?>\n<Clock xmlns:dt="urn:schemas-microsoft-com:datatypes"><Description dt:dt="string">E-Prime Primary Realtime Clock</Description><StartTime><Timestamp dt:dt="int">0</Timestamp><DateUtc dt:dt="string">2015-08-21T14:07:57Z</DateUtc></StartTime><FrequencyChanges><FrequencyChange><Frequency dt:dt="r8">2612285</Frequency><Timestamp dt:dt="r8">4756341081</Timestamp><Current dt:dt="r8">0</Current><DateUtc dt:dt="string">2015-08-21T14:07:57Z</DateUtc></FrequencyChange></FrequencyChanges></Clock>\n	1 ver1_main_procedure-38-1	99.939	1.0.0.880	2	łm	461902658	prawa	1	2.0.10.182	08-21-2015	2015-08-21 14:07:57	16:07:57	mezczyzna	2.0.10.92	3	6	1	1																							d	{SPACE}		no	BlockProc2		BlockList									45	Cued	d	color_green.png		-1	10	292368	310																								25	prime_right.png	0	291897	0	0	13	0	291897	0	291897	1	291897	20	0	-1	290398	291897	291896	0		TrialProc1	left	0		1	10	292207	-292207		0	0	TrialList2	target_left.png	1	d	-1	3	291947	260	d	410	292357															3	1	45	incomp			300
1 ver1_main_procedure	38	1	21	<?xml version="1.0"?>\n<Clock xmlns:dt="urn:schemas-microsoft-com:datatypes"><Description dt:dt="string">E-Prime Primary Realtime Clock</Description><StartTime><Timestamp dt:dt="int">0</Timestamp><DateUtc dt:dt="string">2015-08-21T14:07:57Z</DateUtc></StartTime><FrequencyChanges><FrequencyChange><Frequency dt:dt="r8">2612285</Frequency><Timestamp dt:dt="r8">4756341081</Timestamp><Current dt:dt="r8">0</Current><DateUtc dt:dt="string">2015-08-21T14:07:57Z</DateUtc></FrequencyChange></FrequencyChanges></Clock>\n	1 ver1_main_procedure-38-1	99.939	1.0.0.880	2	łm	461902658	prawa	1	2.0.10.182	08-21-2015	2015-08-21 14:07:57	16:07:57	mezczyzna	2.0.10.92	3	6	1	1																							d	{SPACE}		no	BlockProc2		BlockList									46	Free	dl	color_yellow.png		-1	13	295099	310																								25	prime_right.png	0	294489	0	0	13	0	294489	0	294489	1	294489	20	0	-1	292990	294489	294488	0		TrialProc1	left	0		0	10	294799	-294799		0	0	TrialList2	target_both.png	0	dl	-1	3	294539	260	l	546	295085															9	1	46	incomp			300
1 ver1_main_procedure	38	1	21	<?xml version="1.0"?>\n<Clock xmlns:dt="urn:schemas-microsoft-com:datatypes"><Description dt:dt="string">E-Prime Primary Realtime Clock</Description><StartTime><Timestamp dt:dt="int">0</Timestamp><DateUtc dt:dt="string">2015-08-21T14:07:57Z</DateUtc></StartTime><FrequencyChanges><FrequencyChange><Frequency dt:dt="r8">2612285</Frequency><Timestamp dt:dt="r8">4756341081</Timestamp><Current dt:dt="r8">0</Current><DateUtc dt:dt="string">2015-08-21T14:07:57Z</DateUtc></FrequencyChange></FrequencyChanges></Clock>\n	1 ver1_main_procedure-38-1	99.939	1.0.0.880	2	łm	461902658	prawa	1	2.0.10.182	08-21-2015	2015-08-21 14:07:57	16:07:57	mezczyzna	2.0.10.92	3	6	1	1																							d	{SPACE}		no	BlockProc2		BlockList									47	Free	dl	color_yellow.png		-1	9	297631	160																								25	prime_right.png	1	297221	0	0	13	1	297221	1	297221	0	297220	21	0	-1	295721	297220	297220	0		TrialProc1	left	0		0	10	297531	-297531		0	0	TrialList2	target_both.png	0	dl	-1	3	297271	260	l	350	297621															9	1	47	incomp			150
1 ver1_main_procedure	38	1	21	<?xml version="1.0"?>\n<Clock xmlns:dt="urn:schemas-microsoft-com:datatypes"><Description dt:dt="string">E-Prime Primary Realtime Clock</Description><StartTime><Timestamp dt:dt="int">0</Timestamp><DateUtc dt:dt="string">2015-08-21T14:07:57Z</DateUtc></StartTime><FrequencyChanges><FrequencyChange><Frequency dt:dt="r8">2612285</Frequency><Timestamp dt:dt="r8">4756341081</Timestamp><Current dt:dt="r8">0</Current><DateUtc dt:dt="string">2015-08-21T14:07:57Z</DateUtc></FrequencyChange></FrequencyChanges></Clock>\n	1 ver1_main_procedure-38-1	99.939	1.0.0.880	2	łm	461902658	prawa	1	2.0.10.182	08-21-2015	2015-08-21 14:07:57	16:07:57	mezczyzna	2.0.10.92	3	6	1	1																							d	{SPACE}		no	BlockProc2		BlockList									48	Cued	d	color_blue.png		-1	6	300052	460																			1					75	prime_left.png	0	299602	0	0	13	0	299602	0	299602	1	299602	20	0	-1	298103	299602	299601	0	prime_left.png	TrialProc1	left	0		0	10	299912	-299912		0	0	TrialList2	target_left.png	1	d	-1	3	299652	260	d	393	300045															2	1	48	neut			450
1 ver1_main_procedure	38	1	21	<?xml version="1.0"?>\n<Clock xmlns:dt="urn:schemas-microsoft-com:datatypes"><Description dt:dt="string">E-Prime Primary Realtime Clock</Description><StartTime><Timestamp dt:dt="int">0</Timestamp><DateUtc dt:dt="string">2015-08-21T14:07:57Z</DateUtc></StartTime><FrequencyChanges><FrequencyChange><Frequency dt:dt="r8">2612285</Frequency><Timestamp dt:dt="r8">4756341081</Timestamp><Current dt:dt="r8">0</Current><DateUtc dt:dt="string">2015-08-21T14:07:57Z</DateUtc></FrequencyChange></FrequencyChanges></Clock>\n	1 ver1_main_procedure-38-1	99.939	1.0.0.880	2	łm	461902658	prawa	1	2.0.10.182	08-21-2015	2015-08-21 14:07:57	16:07:57	mezczyzna	2.0.10.92	3	6	1	1																							d	{SPACE}		no	BlockProc2		BlockList									49	Cued	d	color_blue.png		-1	10	302824	460																			2					25	prime_right.png	0	302324	0	0	13	0	302324	0	302324	1	302324	20	0	-1	300824	302324	302323	0	prime_right.png	TrialProc1	left	0		0	10	302634	-302634		0	0	TrialList2	target_left.png	1	d	-1	3	302374	260	d	439	302813															2	1	49	neut			450
1 ver1_main_procedure	38	1	21	<?xml version="1.0"?>\n<Clock xmlns:dt="urn:schemas-microsoft-com:datatypes"><Description dt:dt="string">E-Prime Primary Realtime Clock</Description><StartTime><Timestamp dt:dt="int">0</Timestamp><DateUtc dt:dt="string">2015-08-21T14:07:57Z</DateUtc></StartTime><FrequencyChanges><FrequencyChange><Frequency dt:dt="r8">2612285</Frequency><Timestamp dt:dt="r8">4756341081</Timestamp><Current dt:dt="r8">0</Current><DateUtc dt:dt="string">2015-08-21T14:07:57Z</DateUtc></FrequencyChange></FrequencyChanges></Clock>\n	1 ver1_main_procedure-38-1	99.939	1.0.0.880	2	łm	461902658	prawa	1	2.0.10.182	08-21-2015	2015-08-21 14:07:57	16:07:57	mezczyzna	2.0.10.92	3	6	1	1																							d	{SPACE}		no	BlockProc2		BlockList									50	Free	dl	color_red.png		-1	6	305556	160																								75	prime_left.png	0	305095	0	0	13	0	305095	0	305095	1	305095	20	0	-1	303596	305095	305094	0		TrialProc1	right	0		1	10	305405	-305405		0	0	TrialList2	target_both.png	0	dl	-1	3	305145	260	d	404	305549															12	1	50	incomp			150
1 ver1_main_procedure	38	1	21	<?xml version="1.0"?>\n<Clock xmlns:dt="urn:schemas-microsoft-com:datatypes"><Description dt:dt="string">E-Prime Primary Realtime Clock</Description><StartTime><Timestamp dt:dt="int">0</Timestamp><DateUtc dt:dt="string">2015-08-21T14:07:57Z</DateUtc></StartTime><FrequencyChanges><FrequencyChange><Frequency dt:dt="r8">2612285</Frequency><Timestamp dt:dt="r8">4756341081</Timestamp><Current dt:dt="r8">0</Current><DateUtc dt:dt="string">2015-08-21T14:07:57Z</DateUtc></FrequencyChange></FrequencyChanges></Clock>\n	1 ver1_main_procedure-38-1	99.939	1.0.0.880	2	łm	461902658	prawa	1	2.0.10.182	08-21-2015	2015-08-21 14:07:57	16:07:57	mezczyzna	2.0.10.92	3	6	1	1																							d	{SPACE}		no	BlockProc2		BlockList									51	Cued	d	color_red.png		-1	11	307897	310																								25	prime_left.png	0	307527	0	0	13	0	307527	0	307527	1	307527	20	0	-1	306027	307527	307526	0		TrialProc1	left	0		0	10	307837	-307837		0	0	TrialList2	target_left.png	1	d	-1	3	307577	260	d	308	307885															1	1	51	comp			300
1 ver1_main_procedure	38	1	21	<?xml version="1.0"?>\n<Clock xmlns:dt="urn:schemas-microsoft-com:datatypes"><Description dt:dt="string">E-Prime Primary Realtime Clock</Description><StartTime><Timestamp dt:dt="int">0</Timestamp><DateUtc dt:dt="string">2015-08-21T14:07:57Z</DateUtc></StartTime><FrequencyChanges><FrequencyChange><Frequency dt:dt="r8">2612285</Frequency><Timestamp dt:dt="r8">4756341081</Timestamp><Current dt:dt="r8">0</Current><DateUtc dt:dt="string">2015-08-21T14:07:57Z</DateUtc></FrequencyChange></FrequencyChanges></Clock>\n	1 ver1_main_procedure-38-1	99.939	1.0.0.880	2	łm	461902658	prawa	1	2.0.10.182	08-21-2015	2015-08-21 14:07:57	16:07:57	mezczyzna	2.0.10.92	3	6	1	1																							d	{SPACE}		no	BlockProc2		BlockList									52	Free	dl	color_blue.png		-1	6	310428	311																			1					75	prime_left.png	0	310018	0	0	13	0	310018	0	310018	1	310018	20	0	-1	308519	310018	310017	0	prime_left.png	TrialProc1	right	0		1	10	310328	-310328		0	0	TrialList2	target_both.png	0	dl	-1	3	310068	260	d	353	310421															11	1	52	neut			300
1 ver1_main_procedure	38	1	21	<?xml version="1.0"?>\n<Clock xmlns:dt="urn:schemas-microsoft-com:datatypes"><Description dt:dt="string">E-Prime Primary Realtime Clock</Description><StartTime><Timestamp dt:dt="int">0</Timestamp><DateUtc dt:dt="string">2015-08-21T14:07:57Z</DateUtc></StartTime><FrequencyChanges><FrequencyChange><Frequency dt:dt="r8">2612285</Frequency><Timestamp dt:dt="r8">4756341081</Timestamp><Current dt:dt="r8">0</Current><DateUtc dt:dt="string">2015-08-21T14:07:57Z</DateUtc></FrequencyChange></FrequencyChanges></Clock>\n	1 ver1_main_procedure-38-1	99.939	1.0.0.880	2	łm	461902658	prawa	1	2.0.10.182	08-21-2015	2015-08-21 14:07:57	16:07:57	mezczyzna	2.0.10.92	3	6	1	1																							d	{SPACE}		no	BlockProc2		BlockList									53	Free	dl	color_blue.png		-1	14	312900	160																			2					25	prime_right.png	0	312550	0	0	13	0	312550	0	312550	1	312550	20	0	-1	311051	312550	312549	0	prime_right.png	TrialProc1	right	0		0	10	312860	-312860		0	0	TrialList2	target_both.png	0	dl	-1	3	312600	260	d	285	312885															11	1	53	neut			150
1 ver1_main_procedure	38	1	21	<?xml version="1.0"?>\n<Clock xmlns:dt="urn:schemas-microsoft-com:datatypes"><Description dt:dt="string">E-Prime Primary Realtime Clock</Description><StartTime><Timestamp dt:dt="int">0</Timestamp><DateUtc dt:dt="string">2015-08-21T14:07:57Z</DateUtc></StartTime><FrequencyChanges><FrequencyChange><Frequency dt:dt="r8">2612285</Frequency><Timestamp dt:dt="r8">4756341081</Timestamp><Current dt:dt="r8">0</Current><DateUtc dt:dt="string">2015-08-21T14:07:57Z</DateUtc></FrequencyChange></FrequencyChanges></Clock>\n	1 ver1_main_procedure-38-1	99.939	1.0.0.880	2	łm	461902658	prawa	1	2.0.10.182	08-21-2015	2015-08-21 14:07:57	16:07:57	mezczyzna	2.0.10.92	3	6	1	1																							d	{SPACE}		no	BlockProc2		BlockList									54	Free	dl	color_green.png		-1	11	315241	160																								25	prime_right.png	0	314871	0	0	13	0	314871	0	314871	1	314871	20	0	-1	313372	314871	314870	0		TrialProc1	right	0		0	10	315181	-315181		0	0	TrialList2	target_both.png	0	dl	-1	3	314921	260	d	309	315230															10	1	54	comp			150
1 ver1_main_procedure	38	1	21	<?xml version="1.0"?>\n<Clock xmlns:dt="urn:schemas-microsoft-com:datatypes"><Description dt:dt="string">E-Prime Primary Realtime Clock</Description><StartTime><Timestamp dt:dt="int">0</Timestamp><DateUtc dt:dt="string">2015-08-21T14:07:57Z</DateUtc></StartTime><FrequencyChanges><FrequencyChange><Frequency dt:dt="r8">2612285</Frequency><Timestamp dt:dt="r8">4756341081</Timestamp><Current dt:dt="r8">0</Current><DateUtc dt:dt="string">2015-08-21T14:07:57Z</DateUtc></FrequencyChange></FrequencyChanges></Clock>\n	1 ver1_main_procedure-38-1	99.939	1.0.0.880	2	łm	461902658	prawa	1	2.0.10.182	08-21-2015	2015-08-21 14:07:57	16:07:57	mezczyzna	2.0.10.92	3	6	1	1																							d	{SPACE}		no	BlockProc2		BlockList									55	Free	dl	color_green.png		-1	9	317583	160																								75	prime_right.png	0	317213	0	0	13	0	317213	0	317213	1	317213	20	0	-1	315713	317213	317212	0		TrialProc1	left	0		0	10	317523	-317523		0	0	TrialList2	target_both.png	0	dl	-1	3	317263	260	d	311	317574															9	1	55	incomp			150
1 ver1_main_procedure	38	1	21	<?xml version="1.0"?>\n<Clock xmlns:dt="urn:schemas-microsoft-com:datatypes"><Description dt:dt="string">E-Prime Primary Realtime Clock</Description><StartTime><Timestamp dt:dt="int">0</Timestamp><DateUtc dt:dt="string">2015-08-21T14:07:57Z</DateUtc></StartTime><FrequencyChanges><FrequencyChange><Frequency dt:dt="r8">2612285</Frequency><Timestamp dt:dt="r8">4756341081</Timestamp><Current dt:dt="r8">0</Current><DateUtc dt:dt="string">2015-08-21T14:07:57Z</DateUtc></FrequencyChange></FrequencyChanges></Clock>\n	1 ver1_main_procedure-38-1	99.939	1.0.0.880	2	łm	461902658	prawa	1	2.0.10.182	08-21-2015	2015-08-21 14:07:57	16:07:57	mezczyzna	2.0.10.92	3	6	1	1																							d	{SPACE}		no	BlockProc2		BlockList									56	Free	dl	color_green.png		-1	8	320054	160																								25	prime_right.png	0	319554	0	0	13	0	319554	0	319554	1	319554	20	0	-1	318055	319554	319553	0		TrialProc1	left	0		0	10	319864	-319864		0	0	TrialList2	target_both.png	0	dl	-1	3	319604	260	d	442	320046															9	1	56	incomp			150
1 ver1_main_procedure	38	1	21	<?xml version="1.0"?>\n<Clock xmlns:dt="urn:schemas-microsoft-com:datatypes"><Description dt:dt="string">E-Prime Primary Realtime Clock</Description><StartTime><Timestamp dt:dt="int">0</Timestamp><DateUtc dt:dt="string">2015-08-21T14:07:57Z</DateUtc></StartTime><FrequencyChanges><FrequencyChange><Frequency dt:dt="r8">2612285</Frequency><Timestamp dt:dt="r8">4756341081</Timestamp><Current dt:dt="r8">0</Current><DateUtc dt:dt="string">2015-08-21T14:07:57Z</DateUtc></FrequencyChange></FrequencyChanges></Clock>\n	1 ver1_main_procedure-38-1	99.939	1.0.0.880	2	łm	461902658	prawa	1	2.0.10.182	08-21-2015	2015-08-21 14:07:57	16:07:57	mezczyzna	2.0.10.92	3	6	1	1																							d	{SPACE}		no	BlockProc2		BlockList									57	Cued	l	color_purple.png		-1	12	322546	310																								25	prime_left.png	1	322026	0	0	13	1	322026	1	322026	0	322025	20	0	-1	320526	322025	322025	0		TrialProc1	right	0		0	11	322336	-322336		0	0	TrialList2	target_right.png	1	l	-1	3	322075	261	l	459	322534															6	1	57	incomp			300
1 ver1_main_procedure	38	1	21	<?xml version="1.0"?>\n<Clock xmlns:dt="urn:schemas-microsoft-com:datatypes"><Description dt:dt="string">E-Prime Primary Realtime Clock</Description><StartTime><Timestamp dt:dt="int">0</Timestamp><DateUtc dt:dt="string">2015-08-21T14:07:57Z</DateUtc></StartTime><FrequencyChanges><FrequencyChange><Frequency dt:dt="r8">2612285</Frequency><Timestamp dt:dt="r8">4756341081</Timestamp><Current dt:dt="r8">0</Current><DateUtc dt:dt="string">2015-08-21T14:07:57Z</DateUtc></FrequencyChange></FrequencyChanges></Clock>\n	1 ver1_main_procedure-38-1	99.939	1.0.0.880	2	łm	461902658	prawa	1	2.0.10.182	08-21-2015	2015-08-21 14:07:57	16:07:57	mezczyzna	2.0.10.92	3	6	1	1																							d	{SPACE}		no	BlockProc2		BlockList									58	Free	dl	color_red.png		-1	7	325037	461																								25	prime_left.png	0	324667	0	0	13	0	324667	0	324667	1	324667	20	0	-1	323168	324667	324666	0		TrialProc1	right	0		0	10	324977	-324977		0	0	TrialList2	target_both.png	0	dl	-1	3	324717	260	d	313	325030															12	1	58	incomp			450
1 ver1_main_procedure	38	1	21	<?xml version="1.0"?>\n<Clock xmlns:dt="urn:schemas-microsoft-com:datatypes"><Description dt:dt="string">E-Prime Primary Realtime Clock</Description><StartTime><Timestamp dt:dt="int">0</Timestamp><DateUtc dt:dt="string">2015-08-21T14:07:57Z</DateUtc></StartTime><FrequencyChanges><FrequencyChange><Frequency dt:dt="r8">2612285</Frequency><Timestamp dt:dt="r8">4756341081</Timestamp><Current dt:dt="r8">0</Current><DateUtc dt:dt="string">2015-08-21T14:07:57Z</DateUtc></FrequencyChange></FrequencyChanges></Clock>\n	1 ver1_main_procedure-38-1	99.939	1.0.0.880	2	łm	461902658	prawa	1	2.0.10.182	08-21-2015	2015-08-21 14:07:57	16:07:57	mezczyzna	2.0.10.92	3	6	1	1																							d	{SPACE}		no	BlockProc2		BlockList									59	Free	dl	color_blue.png		-1	6	327749	160																			1					25	prime_left.png	0	327309	0	0	13	0	327309	0	327309	1	327309	20	0	-1	325809	327309	327308	0	prime_left.png	TrialProc1	left	0		0	10	327619	-327619		0	0	TrialList2	target_both.png	0	dl	-1	3	327359	260	d	383	327742															8	1	59	neut			150
1 ver1_main_procedure	38	1	21	<?xml version="1.0"?>\n<Clock xmlns:dt="urn:schemas-microsoft-com:datatypes"><Description dt:dt="string">E-Prime Primary Realtime Clock</Description><StartTime><Timestamp dt:dt="int">0</Timestamp><DateUtc dt:dt="string">2015-08-21T14:07:57Z</DateUtc></StartTime><FrequencyChanges><FrequencyChange><Frequency dt:dt="r8">2612285</Frequency><Timestamp dt:dt="r8">4756341081</Timestamp><Current dt:dt="r8">0</Current><DateUtc dt:dt="string">2015-08-21T14:07:57Z</DateUtc></FrequencyChange></FrequencyChanges></Clock>\n	1 ver1_main_procedure-38-1	99.939	1.0.0.880	2	łm	461902658	prawa	1	2.0.10.182	08-21-2015	2015-08-21 14:07:57	16:07:57	mezczyzna	2.0.10.92	3	6	1	1																							d	{SPACE}		no	BlockProc2		BlockList									60	Free	dl	color_red.png		-1	6	330461	460																								75	prime_left.png	0	329720	0	0	13	0	329720	0	329720	1	329720	20	0	-1	328221	329720	329719	0		TrialProc1	left	0		1	10	330030	-330030		0	0	TrialList2	target_both.png	0	dl	-1	3	329770	260	d	684	330454															7	1	60	comp			450
1 ver1_main_procedure	38	1	21	<?xml version="1.0"?>\n<Clock xmlns:dt="urn:schemas-microsoft-com:datatypes"><Description dt:dt="string">E-Prime Primary Realtime Clock</Description><StartTime><Timestamp dt:dt="int">0</Timestamp><DateUtc dt:dt="string">2015-08-21T14:07:57Z</DateUtc></StartTime><FrequencyChanges><FrequencyChange><Frequency dt:dt="r8">2612285</Frequency><Timestamp dt:dt="r8">4756341081</Timestamp><Current dt:dt="r8">0</Current><DateUtc dt:dt="string">2015-08-21T14:07:57Z</DateUtc></FrequencyChange></FrequencyChanges></Clock>\n	1 ver1_main_procedure-38-1	99.939	1.0.0.880	2	łm	461902658	prawa	1	2.0.10.182	08-21-2015	2015-08-21 14:07:57	16:07:57	mezczyzna	2.0.10.92	3	6	1	1																							d	{SPACE}		no	BlockProc2		BlockList									61	Cued	d	color_green.png		-1	7	333222	460																								25	prime_right.png	0	332732	0	0	13	0	332732	0	332732	1	332732	20	0	-1	331233	332732	332731	0		TrialProc1	left	0		0	10	333042	-333042		0	0	TrialList2	target_left.png	1	d	-1	3	332782	260	d	432	333214															3	1	61	incomp			450
1 ver1_main_procedure	38	1	21	<?xml version="1.0"?>\n<Clock xmlns:dt="urn:schemas-microsoft-com:datatypes"><Description dt:dt="string">E-Prime Primary Realtime Clock</Description><StartTime><Timestamp dt:dt="int">0</Timestamp><DateUtc dt:dt="string">2015-08-21T14:07:57Z</DateUtc></StartTime><FrequencyChanges><FrequencyChange><Frequency dt:dt="r8">2612285</Frequency><Timestamp dt:dt="r8">4756341081</Timestamp><Current dt:dt="r8">0</Current><DateUtc dt:dt="string">2015-08-21T14:07:57Z</DateUtc></FrequencyChange></FrequencyChanges></Clock>\n	1 ver1_main_procedure-38-1	99.939	1.0.0.880	2	łm	461902658	prawa	1	2.0.10.182	08-21-2015	2015-08-21 14:07:57	16:07:57	mezczyzna	2.0.10.92	3	6	1	1																							d	{SPACE}		no	BlockProc2		BlockList									62	Cued	l	color_purple.png		-1	11	335914	460																								25	prime_left.png	0	335494	0	0	13	0	335494	0	335494	1	335494	20	0	-1	333994	335494	335493	0		TrialProc1	right	0		0	10	335804	-335804		0	0	TrialList2	target_right.png	1	l	-1	3	335544	260	l	358	335902															6	1	62	incomp			450
1 ver1_main_procedure	38	1	21	<?xml version="1.0"?>\n<Clock xmlns:dt="urn:schemas-microsoft-com:datatypes"><Description dt:dt="string">E-Prime Primary Realtime Clock</Description><StartTime><Timestamp dt:dt="int">0</Timestamp><DateUtc dt:dt="string">2015-08-21T14:07:57Z</DateUtc></StartTime><FrequencyChanges><FrequencyChange><Frequency dt:dt="r8">2612285</Frequency><Timestamp dt:dt="r8">4756341081</Timestamp><Current dt:dt="r8">0</Current><DateUtc dt:dt="string">2015-08-21T14:07:57Z</DateUtc></FrequencyChange></FrequencyChanges></Clock>\n	1 ver1_main_procedure-38-1	99.939	1.0.0.880	2	łm	461902658	prawa	1	2.0.10.182	08-21-2015	2015-08-21 14:07:57	16:07:57	mezczyzna	2.0.10.92	3	6	1	1																							d	{SPACE}		no	BlockProc2		BlockList									63	Cued	l	color_yellow.png		-1	10	338625	161																								25	prime_right.png	0	338185	0	0	13	0	338185	0	338185	1	338185	20	0	-1	336686	338185	338184	0		TrialProc1	right	0		0	10	338495	-338495		0	0	TrialList2	target_right.png	1	l	-1	3	338235	260	l	379	338614															4	1	63	comp			150
1 ver1_main_procedure	38	1	21	<?xml version="1.0"?>\n<Clock xmlns:dt="urn:schemas-microsoft-com:datatypes"><Description dt:dt="string">E-Prime Primary Realtime Clock</Description><StartTime><Timestamp dt:dt="int">0</Timestamp><DateUtc dt:dt="string">2015-08-21T14:07:57Z</DateUtc></StartTime><FrequencyChanges><FrequencyChange><Frequency dt:dt="r8">2612285</Frequency><Timestamp dt:dt="r8">4756341081</Timestamp><Current dt:dt="r8">0</Current><DateUtc dt:dt="string">2015-08-21T14:07:57Z</DateUtc></FrequencyChange></FrequencyChanges></Clock>\n	1 ver1_main_procedure-38-1	99.939	1.0.0.880	2	łm	461902658	prawa	1	2.0.10.182	08-21-2015	2015-08-21 14:07:57	16:07:57	mezczyzna	2.0.10.92	3	6	1	1																							d	{SPACE}		no	BlockProc2		BlockList									64	Cued	l	color_orange.png		-1	14	341157	460																			2					75	prime_right.png	0	340597	0	0	13	0	340597	0	340597	1	340597	20	0	-1	339097	340597	340596	0	prime_right.png	TrialProc1	right	0		0	10	340907	-340907		0	0	TrialList2	target_right.png	1	l	-1	3	340647	260	l	495	341142															5	1	64	neut			450
1 ver1_main_procedure	38	1	21	<?xml version="1.0"?>\n<Clock xmlns:dt="urn:schemas-microsoft-com:datatypes"><Description dt:dt="string">E-Prime Primary Realtime Clock</Description><StartTime><Timestamp dt:dt="int">0</Timestamp><DateUtc dt:dt="string">2015-08-21T14:07:57Z</DateUtc></StartTime><FrequencyChanges><FrequencyChange><Frequency dt:dt="r8">2612285</Frequency><Timestamp dt:dt="r8">4756341081</Timestamp><Current dt:dt="r8">0</Current><DateUtc dt:dt="string">2015-08-21T14:07:57Z</DateUtc></FrequencyChange></FrequencyChanges></Clock>\n	1 ver1_main_procedure-38-1	99.939	1.0.0.880	2	łm	461902658	prawa	1	2.0.10.182	08-21-2015	2015-08-21 14:07:57	16:07:57	mezczyzna	2.0.10.92	3	6	1	1																							d	{SPACE}		no	BlockProc2		BlockList									65	Free	dl	color_blue.png		-1	12	343939	460																			1					75	prime_left.png	0	343428	0	0	13	0	343429	0	343428	1	343428	20	0	-1	341929	343428	343427	0	prime_left.png	TrialProc1	right	0		0	11	343739	-343739		0	0	TrialList2	target_both.png	0	dl	-1	3	343478	261	d	448	343926															11	1	65	neut			450
1 ver1_main_procedure	38	1	21	<?xml version="1.0"?>\n<Clock xmlns:dt="urn:schemas-microsoft-com:datatypes"><Description dt:dt="string">E-Prime Primary Realtime Clock</Description><StartTime><Timestamp dt:dt="int">0</Timestamp><DateUtc dt:dt="string">2015-08-21T14:07:57Z</DateUtc></StartTime><FrequencyChanges><FrequencyChange><Frequency dt:dt="r8">2612285</Frequency><Timestamp dt:dt="r8">4756341081</Timestamp><Current dt:dt="r8">0</Current><DateUtc dt:dt="string">2015-08-21T14:07:57Z</DateUtc></FrequencyChange></FrequencyChanges></Clock>\n	1 ver1_main_procedure-38-1	99.939	1.0.0.880	2	łm	461902658	prawa	1	2.0.10.182	08-21-2015	2015-08-21 14:07:57	16:07:57	mezczyzna	2.0.10.92	3	6	1	1																							d	{SPACE}		no	BlockProc2		BlockList									66	Free	dl	color_blue.png		-1	13	346780	160																			2					25	prime_right.png	0	346210	0	0	13	0	346210	0	346210	1	346210	20	0	-1	344711	346210	346209	0	prime_right.png	TrialProc1	left	0		0	10	346520	-346520		0	0	TrialList2	target_both.png	0	dl	-1	3	346260	260	d	506	346766															8	1	66	neut			150
1 ver1_main_procedure	38	1	21	<?xml version="1.0"?>\n<Clock xmlns:dt="urn:schemas-microsoft-com:datatypes"><Description dt:dt="string">E-Prime Primary Realtime Clock</Description><StartTime><Timestamp dt:dt="int">0</Timestamp><DateUtc dt:dt="string">2015-08-21T14:07:57Z</DateUtc></StartTime><FrequencyChanges><FrequencyChange><Frequency dt:dt="r8">2612285</Frequency><Timestamp dt:dt="r8">4756341081</Timestamp><Current dt:dt="r8">0</Current><DateUtc dt:dt="string">2015-08-21T14:07:57Z</DateUtc></FrequencyChange></FrequencyChanges></Clock>\n	1 ver1_main_procedure-38-1	99.939	1.0.0.880	2	łm	461902658	prawa	1	2.0.10.182	08-21-2015	2015-08-21 14:07:57	16:07:57	mezczyzna	2.0.10.92	3	6	1	1																							d	{SPACE}		no	BlockProc2		BlockList									67	Free	dl	color_green.png		-1	13	349292	160																								75	prime_right.png	0	348752	0	0	13	0	348752	0	348752	1	348752	20	0	-1	347252	348752	348751	0		TrialProc1	left	0		0	10	349062	-349062		0	0	TrialList2	target_both.png	0	dl	-1	3	348802	260	d	476	349278															9	1	67	incomp			150
1 ver1_main_procedure	38	1	21	<?xml version="1.0"?>\n<Clock xmlns:dt="urn:schemas-microsoft-com:datatypes"><Description dt:dt="string">E-Prime Primary Realtime Clock</Description><StartTime><Timestamp dt:dt="int">0</Timestamp><DateUtc dt:dt="string">2015-08-21T14:07:57Z</DateUtc></StartTime><FrequencyChanges><FrequencyChange><Frequency dt:dt="r8">2612285</Frequency><Timestamp dt:dt="r8">4756341081</Timestamp><Current dt:dt="r8">0</Current><DateUtc dt:dt="string">2015-08-21T14:07:57Z</DateUtc></FrequencyChange></FrequencyChanges></Clock>\n	1 ver1_main_procedure-38-1	99.939	1.0.0.880	2	łm	461902658	prawa	1	2.0.10.182	08-21-2015	2015-08-21 14:07:57	16:07:57	mezczyzna	2.0.10.92	3	6	1	1																							d	{SPACE}		no	BlockProc2		BlockList									68	Free	dl	color_blue.png		-1	10	351793	461																			1					25	prime_left.png	0	351263	0	0	13	0	351263	0	351263	1	351263	20	0	-1	349764	351263	351262	0	prime_left.png	TrialProc1	right	0		0	10	351573	-351573		0	0	TrialList2	target_both.png	0	dl	-1	3	351313	260	d	470	351783															11	1	68	neut			450
1 ver1_main_procedure	38	1	21	<?xml version="1.0"?>\n<Clock xmlns:dt="urn:schemas-microsoft-com:datatypes"><Description dt:dt="string">E-Prime Primary Realtime Clock</Description><StartTime><Timestamp dt:dt="int">0</Timestamp><DateUtc dt:dt="string">2015-08-21T14:07:57Z</DateUtc></StartTime><FrequencyChanges><FrequencyChange><Frequency dt:dt="r8">2612285</Frequency><Timestamp dt:dt="r8">4756341081</Timestamp><Current dt:dt="r8">0</Current><DateUtc dt:dt="string">2015-08-21T14:07:57Z</DateUtc></FrequencyChange></FrequencyChanges></Clock>\n	1 ver1_main_procedure-38-1	99.939	1.0.0.880	2	łm	461902658	prawa	1	2.0.10.182	08-21-2015	2015-08-21 14:07:57	16:07:57	mezczyzna	2.0.10.92	3	6	1	1																							d	{SPACE}		no	BlockProc2		BlockList									69	Free	dl	color_blue.png		-1	10	354545	160																			2					25	prime_right.png	0	354065	0	0	13	0	354065	0	354065	1	354065	20	0	-1	352565	354065	354064	0	prime_right.png	TrialProc1	left	0		0	10	354375	-354375		0	0	TrialList2	target_both.png	0	dl	-1	3	354115	260	d	420	354535															8	1	69	neut			150
1 ver1_main_procedure	38	1	21	<?xml version="1.0"?>\n<Clock xmlns:dt="urn:schemas-microsoft-com:datatypes"><Description dt:dt="string">E-Prime Primary Realtime Clock</Description><StartTime><Timestamp dt:dt="int">0</Timestamp><DateUtc dt:dt="string">2015-08-21T14:07:57Z</DateUtc></StartTime><FrequencyChanges><FrequencyChange><Frequency dt:dt="r8">2612285</Frequency><Timestamp dt:dt="r8">4756341081</Timestamp><Current dt:dt="r8">0</Current><DateUtc dt:dt="string">2015-08-21T14:07:57Z</DateUtc></FrequencyChange></FrequencyChanges></Clock>\n	1 ver1_main_procedure-38-1	99.939	1.0.0.880	2	łm	461902658	prawa	1	2.0.10.182	08-21-2015	2015-08-21 14:07:57	16:07:57	mezczyzna	2.0.10.92	3	6	1	1																							d	{SPACE}		no	BlockProc2		BlockList									70	Free	dl	color_green.png		-1	8	357047	460																								75	prime_right.png	0	356516	0	0	13	0	356516	0	356516	1	356516	20	0	-1	355017	356516	356515	0		TrialProc1	left	0		1	10	356826	-356826		0	0	TrialList2	target_both.png	0	dl	-1	3	356566	260	d	473	357039															9	1	70	incomp			450
1 ver1_main_procedure	38	1	21	<?xml version="1.0"?>\n<Clock xmlns:dt="urn:schemas-microsoft-com:datatypes"><Description dt:dt="string">E-Prime Primary Realtime Clock</Description><StartTime><Timestamp dt:dt="int">0</Timestamp><DateUtc dt:dt="string">2015-08-21T14:07:57Z</DateUtc></StartTime><FrequencyChanges><FrequencyChange><Frequency dt:dt="r8">2612285</Frequency><Timestamp dt:dt="r8">4756341081</Timestamp><Current dt:dt="r8">0</Current><DateUtc dt:dt="string">2015-08-21T14:07:57Z</DateUtc></FrequencyChange></FrequencyChanges></Clock>\n	1 ver1_main_procedure-38-1	99.939	1.0.0.880	2	łm	461902658	prawa	1	2.0.10.182	08-21-2015	2015-08-21 14:07:57	16:07:57	mezczyzna	2.0.10.92	3	6	1	1																							d	{SPACE}		no	BlockProc2		BlockList									71	Free	dl	color_green.png		-1	13	359748	160																								75	prime_right.png	0	359318	0	0	13	0	359318	0	359318	1	359318	20	0	-1	357819	359318	359317	0		TrialProc1	left	0		0	10	359628	-359628		0	0	TrialList2	target_both.png	0	dl	-1	3	359368	260	d	367	359735															9	1	71	incomp			150
1 ver1_main_procedure	38	1	21	<?xml version="1.0"?>\n<Clock xmlns:dt="urn:schemas-microsoft-com:datatypes"><Description dt:dt="string">E-Prime Primary Realtime Clock</Description><StartTime><Timestamp dt:dt="int">0</Timestamp><DateUtc dt:dt="string">2015-08-21T14:07:57Z</DateUtc></StartTime><FrequencyChanges><FrequencyChange><Frequency dt:dt="r8">2612285</Frequency><Timestamp dt:dt="r8">4756341081</Timestamp><Current dt:dt="r8">0</Current><DateUtc dt:dt="string">2015-08-21T14:07:57Z</DateUtc></FrequencyChange></FrequencyChanges></Clock>\n	1 ver1_main_procedure-38-1	99.939	1.0.0.880	2	łm	461902658	prawa	1	2.0.10.182	08-21-2015	2015-08-21 14:07:57	16:07:57	mezczyzna	2.0.10.92	3	6	1	1																							d	{SPACE}		no	BlockProc2		BlockList									72	Free	dl	color_green.png		-1	12	362220	160																								25	prime_right.png	0	361719	0	0	13	0	361720	0	361719	1	361719	20	0	-1	360220	361719	361718	0		TrialProc1	right	0		0	11	362030	-362030		0	0	TrialList2	target_both.png	0	dl	-1	3	361769	261	d	438	362207															10	1	72	comp			150
1 ver1_main_procedure	38	1	21	<?xml version="1.0"?>\n<Clock xmlns:dt="urn:schemas-microsoft-com:datatypes"><Description dt:dt="string">E-Prime Primary Realtime Clock</Description><StartTime><Timestamp dt:dt="int">0</Timestamp><DateUtc dt:dt="string">2015-08-21T14:07:57Z</DateUtc></StartTime><FrequencyChanges><FrequencyChange><Frequency dt:dt="r8">2612285</Frequency><Timestamp dt:dt="r8">4756341081</Timestamp><Current dt:dt="r8">0</Current><DateUtc dt:dt="string">2015-08-21T14:07:57Z</DateUtc></FrequencyChange></FrequencyChanges></Clock>\n	1 ver1_main_procedure-38-1	99.939	1.0.0.880	2	łm	461902658	prawa	1	2.0.10.182	08-21-2015	2015-08-21 14:07:57	16:07:57	mezczyzna	2.0.10.92	3	6	1	1																							d	{SPACE}		no	BlockProc2		BlockList									73									3	6	1	4	5	2	color_purple.png	color_orange.png	color_blue.png	color_yellow.png	color_green.png	color_red.png	color_blue.png	color_red.png	color_purple.png	color_yellow.png	color_green.png	color_orange.png		1	1	1	39753																						DragProc											Ocena																															
1 ver1_main_procedure	38	1	21	<?xml version="1.0"?>\n<Clock xmlns:dt="urn:schemas-microsoft-com:datatypes"><Description dt:dt="string">E-Prime Primary Realtime Clock</Description><StartTime><Timestamp dt:dt="int">0</Timestamp><DateUtc dt:dt="string">2015-08-21T14:07:57Z</DateUtc></StartTime><FrequencyChanges><FrequencyChange><Frequency dt:dt="r8">2612285</Frequency><Timestamp dt:dt="r8">4756341081</Timestamp><Current dt:dt="r8">0</Current><DateUtc dt:dt="string">2015-08-21T14:07:57Z</DateUtc></FrequencyChange></FrequencyChanges></Clock>\n	1 ver1_main_procedure-38-1	99.939	1.0.0.880	2	łm	461902658	prawa	1	2.0.10.182	08-21-2015	2015-08-21 14:07:57	16:07:57	mezczyzna	2.0.10.92	3	6	1	1																							d	{SPACE}		no	BlockProc2		BlockList									74				Liczby muszą być przypisane w sposób rosnący.											color_purple.png	color_orange.png	color_blue.png	color_yellow.png	color_green.png	color_red.png								2	1	2																							EnterProc											Ocena												10	11	15	30	40	70														
1 ver1_main_procedure	38	1	21	<?xml version="1.0"?>\n<Clock xmlns:dt="urn:schemas-microsoft-com:datatypes"><Description dt:dt="string">E-Prime Primary Realtime Clock</Description><StartTime><Timestamp dt:dt="int">0</Timestamp><DateUtc dt:dt="string">2015-08-21T14:07:57Z</DateUtc></StartTime><FrequencyChanges><FrequencyChange><Frequency dt:dt="r8">2612285</Frequency><Timestamp dt:dt="r8">4756341081</Timestamp><Current dt:dt="r8">0</Current><DateUtc dt:dt="string">2015-08-21T14:07:57Z</DateUtc></FrequencyChange></FrequencyChanges></Clock>\n	1 ver1_main_procedure-38-1	99.939	1.0.0.880	2	łm	461902658	prawa	1	2.0.10.182	08-21-2015	2015-08-21 14:07:57	16:07:57	mezczyzna	2.0.10.92	4	5	1	2																							d	{SPACE}		no	BlockProc2		BlockList									1	Free	dl	color_yellow.png		-1	5	524257	460																			1					25	prime_left.png	0	523867	0	0	13	0	523867	0	523867	1	523867	20	0	-1	522368	523867	523866	0	prime_left.png	TrialProc1	left	0		0	10	524177	-524177		0	0	TrialList2	target_both.png	0	dl	-1	3	523917	260	d	334	524251															8	2	73	neut			450
1 ver1_main_procedure	38	1	21	<?xml version="1.0"?>\n<Clock xmlns:dt="urn:schemas-microsoft-com:datatypes"><Description dt:dt="string">E-Prime Primary Realtime Clock</Description><StartTime><Timestamp dt:dt="int">0</Timestamp><DateUtc dt:dt="string">2015-08-21T14:07:57Z</DateUtc></StartTime><FrequencyChanges><FrequencyChange><Frequency dt:dt="r8">2612285</Frequency><Timestamp dt:dt="r8">4756341081</Timestamp><Current dt:dt="r8">0</Current><DateUtc dt:dt="string">2015-08-21T14:07:57Z</DateUtc></FrequencyChange></FrequencyChanges></Clock>\n	1 ver1_main_procedure-38-1	99.939	1.0.0.880	2	łm	461902658	prawa	1	2.0.10.182	08-21-2015	2015-08-21 14:07:57	16:07:57	mezczyzna	2.0.10.92	4	5	1	2																							d	{SPACE}		no	BlockProc2		BlockList									2	Cued	l	color_orange.png		-1	9	527149	460																								75	prime_left.png	0	526529	0	0	13	0	526529	0	526529	1	526529	20	0	-1	525029	526529	526528	0		TrialProc1	right	0		0	10	526839	-526839		0	0	TrialList2	target_right.png	1	l	-1	3	526579	260	l	560	527139															6	2	74	incomp			450
1 ver1_main_procedure	38	1	21	<?xml version="1.0"?>\n<Clock xmlns:dt="urn:schemas-microsoft-com:datatypes"><Description dt:dt="string">E-Prime Primary Realtime Clock</Description><StartTime><Timestamp dt:dt="int">0</Timestamp><DateUtc dt:dt="string">2015-08-21T14:07:57Z</DateUtc></StartTime><FrequencyChanges><FrequencyChange><Frequency dt:dt="r8">2612285</Frequency><Timestamp dt:dt="r8">4756341081</Timestamp><Current dt:dt="r8">0</Current><DateUtc dt:dt="string">2015-08-21T14:07:57Z</DateUtc></FrequencyChange></FrequencyChanges></Clock>\n	1 ver1_main_procedure-38-1	99.939	1.0.0.880	2	łm	461902658	prawa	1	2.0.10.182	08-21-2015	2015-08-21 14:07:57	16:07:57	mezczyzna	2.0.10.92	4	5	1	2																							d	{SPACE}		no	BlockProc2		BlockList									3	Free	dl	color_red.png		-1	11	529991	310																								75	prime_right.png	0	529420	0	0	13	0	529420	0	529420	1	529420	20	0	-1	527921	529420	529419	0		TrialProc1	right	0		0	11	529731	-529731		0	0	TrialList2	target_both.png	0	dl	-1	3	529470	261	d	509	529979															10	2	75	comp			300
1 ver1_main_procedure	38	1	21	<?xml version="1.0"?>\n<Clock xmlns:dt="urn:schemas-microsoft-com:datatypes"><Description dt:dt="string">E-Prime Primary Realtime Clock</Description><StartTime><Timestamp dt:dt="int">0</Timestamp><DateUtc dt:dt="string">2015-08-21T14:07:57Z</DateUtc></StartTime><FrequencyChanges><FrequencyChange><Frequency dt:dt="r8">2612285</Frequency><Timestamp dt:dt="r8">4756341081</Timestamp><Current dt:dt="r8">0</Current><DateUtc dt:dt="string">2015-08-21T14:07:57Z</DateUtc></FrequencyChange></FrequencyChanges></Clock>\n	1 ver1_main_procedure-38-1	99.939	1.0.0.880	2	łm	461902658	prawa	1	2.0.10.182	08-21-2015	2015-08-21 14:07:57	16:07:57	mezczyzna	2.0.10.92	4	5	1	2																							d	{SPACE}		no	BlockProc2		BlockList									4	Free	dl	color_blue.png		-1	14	532722	461																								75	prime_left.png	0	532112	0	0	13	0	532112	0	532112	1	532112	20	0	-1	530613	532112	532111	0		TrialProc1	left	0		0	10	532422	-532422		0	0	TrialList2	target_both.png	0	dl	-1	3	532162	260	d	546	532708															7	2	76	comp			450
1 ver1_main_procedure	38	1	21	<?xml version="1.0"?>\n<Clock xmlns:dt="urn:schemas-microsoft-com:datatypes"><Description dt:dt="string">E-Prime Primary Realtime Clock</Description><StartTime><Timestamp dt:dt="int">0</Timestamp><DateUtc dt:dt="string">2015-08-21T14:07:57Z</DateUtc></StartTime><FrequencyChanges><FrequencyChange><Frequency dt:dt="r8">2612285</Frequency><Timestamp dt:dt="r8">4756341081</Timestamp><Current dt:dt="r8">0</Current><DateUtc dt:dt="string">2015-08-21T14:07:57Z</DateUtc></FrequencyChange></FrequencyChanges></Clock>\n	1 ver1_main_procedure-38-1	99.939	1.0.0.880	2	łm	461902658	prawa	1	2.0.10.182	08-21-2015	2015-08-21 14:07:57	16:07:57	mezczyzna	2.0.10.92	4	5	1	2																							d	{SPACE}		no	BlockProc2		BlockList									5	Free	dl	color_blue.png		-1	12	535584	460																								25	prime_left.png	0	534994	0	0	13	0	534994	0	534994	1	534994	20	0	-1	533494	534994	534993	0		TrialProc1	left	0		0	10	535304	-535304		0	0	TrialList2	target_both.png	0	dl	-1	3	535044	260	d	528	535572															7	2	77	comp			450
1 ver1_main_procedure	38	1	21	<?xml version="1.0"?>\n<Clock xmlns:dt="urn:schemas-microsoft-com:datatypes"><Description dt:dt="string">E-Prime Primary Realtime Clock</Description><StartTime><Timestamp dt:dt="int">0</Timestamp><DateUtc dt:dt="string">2015-08-21T14:07:57Z</DateUtc></StartTime><FrequencyChanges><FrequencyChange><Frequency dt:dt="r8">2612285</Frequency><Timestamp dt:dt="r8">4756341081</Timestamp><Current dt:dt="r8">0</Current><DateUtc dt:dt="string">2015-08-21T14:07:57Z</DateUtc></FrequencyChange></FrequencyChanges></Clock>\n	1 ver1_main_procedure-38-1	99.939	1.0.0.880	2	łm	461902658	prawa	1	2.0.10.182	08-21-2015	2015-08-21 14:07:57	16:07:57	mezczyzna	2.0.10.92	4	5	1	2																							d	{SPACE}		no	BlockProc2		BlockList									6	Cued	d	color_blue.png		-1	10	538326	160																								75	prime_left.png	0	537855	0	0	13	1	537856	1	537856	1	537855	21	0	-1	536356	537855	537854	0		TrialProc1	left	0		0	11	538166	-538166		0	0	TrialList2	target_left.png	1	d	-1	2	537905	261	d	411	538316															1	2	78	comp			150
1 ver1_main_procedure	38	1	21	<?xml version="1.0"?>\n<Clock xmlns:dt="urn:schemas-microsoft-com:datatypes"><Description dt:dt="string">E-Prime Primary Realtime Clock</Description><StartTime><Timestamp dt:dt="int">0</Timestamp><DateUtc dt:dt="string">2015-08-21T14:07:57Z</DateUtc></StartTime><FrequencyChanges><FrequencyChange><Frequency dt:dt="r8">2612285</Frequency><Timestamp dt:dt="r8">4756341081</Timestamp><Current dt:dt="r8">0</Current><DateUtc dt:dt="string">2015-08-21T14:07:57Z</DateUtc></FrequencyChange></FrequencyChanges></Clock>\n	1 ver1_main_procedure-38-1	99.939	1.0.0.880	2	łm	461902658	prawa	1	2.0.10.182	08-21-2015	2015-08-21 14:07:57	16:07:57	mezczyzna	2.0.10.92	4	5	1	2																							d	{SPACE}		no	BlockProc2		BlockList									7	Free	dl	color_blue.png		-1	7	540947	461																								25	prime_left.png	0	540297	0	0	13	0	540297	0	540297	1	540297	20	0	-1	538798	540297	540296	0		TrialProc1	right	0		0	10	540607	-540607		0	0	TrialList2	target_both.png	0	dl	-1	3	540347	260	d	593	540940															12	2	79	incomp			450
1 ver1_main_procedure	38	1	21	<?xml version="1.0"?>\n<Clock xmlns:dt="urn:schemas-microsoft-com:datatypes"><Description dt:dt="string">E-Prime Primary Realtime Clock</Description><StartTime><Timestamp dt:dt="int">0</Timestamp><DateUtc dt:dt="string">2015-08-21T14:07:57Z</DateUtc></StartTime><FrequencyChanges><FrequencyChange><Frequency dt:dt="r8">2612285</Frequency><Timestamp dt:dt="r8">4756341081</Timestamp><Current dt:dt="r8">0</Current><DateUtc dt:dt="string">2015-08-21T14:07:57Z</DateUtc></FrequencyChange></FrequencyChanges></Clock>\n	1 ver1_main_procedure-38-1	99.939	1.0.0.880	2	łm	461902658	prawa	1	2.0.10.182	08-21-2015	2015-08-21 14:07:57	16:07:57	mezczyzna	2.0.10.92	4	5	1	2																							d	{SPACE}		no	BlockProc2		BlockList									8	Cued	d	color_red.png		-1	9	543669	160																								25	prime_right.png	0	543219	0	0	13	0	543219	0	543219	1	543219	20	0	-1	541719	543219	543218	0		TrialProc1	left	0		0	10	543529	-543529		0	0	TrialList2	target_left.png	1	d	-1	3	543269	260	d	391	543660															3	2	80	incomp			150
1 ver1_main_procedure	38	1	21	<?xml version="1.0"?>\n<Clock xmlns:dt="urn:schemas-microsoft-com:datatypes"><Description dt:dt="string">E-Prime Primary Realtime Clock</Description><StartTime><Timestamp dt:dt="int">0</Timestamp><DateUtc dt:dt="string">2015-08-21T14:07:57Z</DateUtc></StartTime><FrequencyChanges><FrequencyChange><Frequency dt:dt="r8">2612285</Frequency><Timestamp dt:dt="r8">4756341081</Timestamp><Current dt:dt="r8">0</Current><DateUtc dt:dt="string">2015-08-21T14:07:57Z</DateUtc></FrequencyChange></FrequencyChanges></Clock>\n	1 ver1_main_procedure-38-1	99.939	1.0.0.880	2	łm	461902658	prawa	1	2.0.10.182	08-21-2015	2015-08-21 14:07:57	16:07:57	mezczyzna	2.0.10.92	4	5	1	2																							d	{SPACE}		no	BlockProc2		BlockList									9	Free	dl	color_yellow.png		-1	7	546140	311																			2					25	prime_right.png	0	545640	0	0	13	0	545640	0	545640	1	545640	20	0	-1	544141	545640	545639	0	prime_right.png	TrialProc1	right	0		0	10	545950	-545950		0	0	TrialList2	target_both.png	0	dl	-1	3	545690	260	d	442	546132															11	2	81	neut			300
