ExperimentName	Subject	Session	Age	Clock.Information	DataFile.Basename	Display.RefreshRate	ExperimentVersion	Group	Name	RandomSeed	Recznosc	ResearcherID	RuntimeVersion	SessionDate	SessionStartDateTimeUtc	SessionTime	Sex	StudioVersion	Block	BlockList	BlockList.Cycle	BlockList.Sample	BlockNumber	GoodBye.RESP	GoodBye2.RESP	GoodByeList	GoodByeList.Cycle	GoodByeList.Sample	InstrList	InstrList.Cycle	InstrList.Sample	Instructions3.RESP	Instructions4.RESP	Instructions5.RESP	kobieta_S1	kobieta_S2	kobieta_S3	kobieta_S4	kobieta_S5	mezczyzna_S1	mezczyzna_S2	mezczyzna_S3	mezczyzna_S4	mezczyzna_S5	NextBlock.RESP	NextBlock0.RESP	planowanie	PracticeMode	Procedure[Block]	proszenie	Running[Block]	TrainingList	TrainingList.Cycle	TrainingList.Sample	WordList	WordList1	wykonanie	zauwazenie	zrozumienie	Trial	ChoiceType	CorrectRespon	Effect	ErrorText	Fixation2.DurationError	Fixation2.OnsetDelay	Fixation2.OnsetTime	Fixation2.OnsetToOnsetTime	GoalRespInd1	GoalRespInd2	GoalRespInd3	GoalRespInd4	GoalRespInd5	GoalRespInd6	GoalRespName1	GoalRespName2	GoalRespName3	GoalRespName4	GoalRespName5	GoalRespName6	kol1	kol2	kol3	kol4	kol5	kol6	NeutralPrimeList1	Ocena	Ocena.Cycle	Ocena.Sample	OverallRT	Posit	Prime	Prime.ActionDelay	Prime.ActionTime	Prime.CustomOffsetTime	Prime.CustomOnsetTime	Prime.Duration	Prime.DurationError	Prime.FinishTime	Prime.OffsetDelay	Prime.OffsetTime	Prime.OnsetDelay	Prime.OnsetTime	Prime.OnsetToOnsetTime	Prime.PendingInputMasks	Prime.PreRelease	Prime.StartTime	Prime.TargetOffsetTime	Prime.TargetOnsetTime	Prime.TimingMode	PrimeChoice	Procedure[Trial]	Resp	RespWin.ACC	RespWin.CRESP	RespWin.DurationError	RespWin.OnsetDelay	RespWin.OnsetTime	RespWin.OnsetToOnsetTime	RespWin.RESP	RespWin.RT	RespWin.RTTime	Running[Trial]	Target	TargetSlide.ACC	TargetSlide.CRESP	TargetSlide.DurationError	TargetSlide.OnsetDelay	TargetSlide.OnsetTime	TargetSlide.OnsetToOnsetTime	TargetSlide.RESP	TargetSlide.RT	TargetSlide.RTTime	TargetTraining	TBox1	TBox2	TBox3	TBox4	TBox5	TBox6	TrainingList1	TrainingList1.Cycle	TrainingList1.Sample	TrCorrectResp	TrialList1	TrialList1.Cycle	TrialList1.Sample	TrialList2	TrialList2.Cycle	TrialList2.Sample	TrialType	TrPosit	TrWaitTime	WaitTime
1 ver1_main_procedure	4	1	19	<?xml version="1.0"?>\n<Clock xmlns:dt="urn:schemas-microsoft-com:datatypes"><Description dt:dt="string">E-Prime Primary Realtime Clock</Description><StartTime><Timestamp dt:dt="int">0</Timestamp><DateUtc dt:dt="string">2015-08-10T06:55:25Z</DateUtc></StartTime><FrequencyChanges><FrequencyChange><Frequency dt:dt="r8">2612324</Frequency><Timestamp dt:dt="r8">736092589</Timestamp><Current dt:dt="r8">0</Current><DateUtc dt:dt="string">2015-08-10T06:55:25Z</DateUtc></FrequencyChange></FrequencyChanges></Clock>\n	1 ver1_main_procedure-4-1	99.935	1.0.0.880	2	mo	736601032	lewa	1	2.0.10.182	08-10-2015	2015-08-10 06:55:25	08:55:25	mezczyzna	2.0.10.92	1										1	1	1	{SPACE}	{SPACE}	d	poproszona	planowała	zrozumiałaś	wykonała		poproszony	planował	zrozumiałeś	wykonał				planował		InstrProc	poproszony	InstrList				1		wykonał		zrozumiałeś																																																																																																
1 ver1_main_procedure	4	1	19	<?xml version="1.0"?>\n<Clock xmlns:dt="urn:schemas-microsoft-com:datatypes"><Description dt:dt="string">E-Prime Primary Realtime Clock</Description><StartTime><Timestamp dt:dt="int">0</Timestamp><DateUtc dt:dt="string">2015-08-10T06:55:25Z</DateUtc></StartTime><FrequencyChanges><FrequencyChange><Frequency dt:dt="r8">2612324</Frequency><Timestamp dt:dt="r8">736092589</Timestamp><Current dt:dt="r8">0</Current><DateUtc dt:dt="string">2015-08-10T06:55:25Z</DateUtc></FrequencyChange></FrequencyChanges></Clock>\n	1 ver1_main_procedure-4-1	99.935	1.0.0.880	2	mo	736601032	lewa	1	2.0.10.182	08-10-2015	2015-08-10 06:55:25	08:55:25	mezczyzna	2.0.10.92	2																														TrainingProc1		TrainingList	1	1	1						1																																																					TrainProc											TrainingList1											target_right.png							2	1	1	l								75	450	
1 ver1_main_procedure	4	1	19	<?xml version="1.0"?>\n<Clock xmlns:dt="urn:schemas-microsoft-com:datatypes"><Description dt:dt="string">E-Prime Primary Realtime Clock</Description><StartTime><Timestamp dt:dt="int">0</Timestamp><DateUtc dt:dt="string">2015-08-10T06:55:25Z</DateUtc></StartTime><FrequencyChanges><FrequencyChange><Frequency dt:dt="r8">2612324</Frequency><Timestamp dt:dt="r8">736092589</Timestamp><Current dt:dt="r8">0</Current><DateUtc dt:dt="string">2015-08-10T06:55:25Z</DateUtc></FrequencyChange></FrequencyChanges></Clock>\n	1 ver1_main_procedure-4-1	99.935	1.0.0.880	2	mo	736601032	lewa	1	2.0.10.182	08-10-2015	2015-08-10 06:55:25	08:55:25	mezczyzna	2.0.10.92	2																														TrainingProc1		TrainingList	1	1	1						2																																																					TrainProc											TrainingList1											target_right.png							2	1	2	l								75	300	
1 ver1_main_procedure	4	1	19	<?xml version="1.0"?>\n<Clock xmlns:dt="urn:schemas-microsoft-com:datatypes"><Description dt:dt="string">E-Prime Primary Realtime Clock</Description><StartTime><Timestamp dt:dt="int">0</Timestamp><DateUtc dt:dt="string">2015-08-10T06:55:25Z</DateUtc></StartTime><FrequencyChanges><FrequencyChange><Frequency dt:dt="r8">2612324</Frequency><Timestamp dt:dt="r8">736092589</Timestamp><Current dt:dt="r8">0</Current><DateUtc dt:dt="string">2015-08-10T06:55:25Z</DateUtc></FrequencyChange></FrequencyChanges></Clock>\n	1 ver1_main_procedure-4-1	99.935	1.0.0.880	2	mo	736601032	lewa	1	2.0.10.182	08-10-2015	2015-08-10 06:55:25	08:55:25	mezczyzna	2.0.10.92	2																														TrainingProc1		TrainingList	1	1	1						3																																																					TrainProc											TrainingList1											target_left.png							1	1	3	d								75	300	
1 ver1_main_procedure	4	1	19	<?xml version="1.0"?>\n<Clock xmlns:dt="urn:schemas-microsoft-com:datatypes"><Description dt:dt="string">E-Prime Primary Realtime Clock</Description><StartTime><Timestamp dt:dt="int">0</Timestamp><DateUtc dt:dt="string">2015-08-10T06:55:25Z</DateUtc></StartTime><FrequencyChanges><FrequencyChange><Frequency dt:dt="r8">2612324</Frequency><Timestamp dt:dt="r8">736092589</Timestamp><Current dt:dt="r8">0</Current><DateUtc dt:dt="string">2015-08-10T06:55:25Z</DateUtc></FrequencyChange></FrequencyChanges></Clock>\n	1 ver1_main_procedure-4-1	99.935	1.0.0.880	2	mo	736601032	lewa	1	2.0.10.182	08-10-2015	2015-08-10 06:55:25	08:55:25	mezczyzna	2.0.10.92	2																														TrainingProc1		TrainingList	1	1	1						4																																																					TrainProc											TrainingList1											target_both.png							3	1	4	dl								75	150	
1 ver1_main_procedure	4	1	19	<?xml version="1.0"?>\n<Clock xmlns:dt="urn:schemas-microsoft-com:datatypes"><Description dt:dt="string">E-Prime Primary Realtime Clock</Description><StartTime><Timestamp dt:dt="int">0</Timestamp><DateUtc dt:dt="string">2015-08-10T06:55:25Z</DateUtc></StartTime><FrequencyChanges><FrequencyChange><Frequency dt:dt="r8">2612324</Frequency><Timestamp dt:dt="r8">736092589</Timestamp><Current dt:dt="r8">0</Current><DateUtc dt:dt="string">2015-08-10T06:55:25Z</DateUtc></FrequencyChange></FrequencyChanges></Clock>\n	1 ver1_main_procedure-4-1	99.935	1.0.0.880	2	mo	736601032	lewa	1	2.0.10.182	08-10-2015	2015-08-10 06:55:25	08:55:25	mezczyzna	2.0.10.92	2																														TrainingProc1		TrainingList	1	1	1						5																																																					TrainProc											TrainingList1											target_both.png							3	1	5	dl								75	450	
1 ver1_main_procedure	4	1	19	<?xml version="1.0"?>\n<Clock xmlns:dt="urn:schemas-microsoft-com:datatypes"><Description dt:dt="string">E-Prime Primary Realtime Clock</Description><StartTime><Timestamp dt:dt="int">0</Timestamp><DateUtc dt:dt="string">2015-08-10T06:55:25Z</DateUtc></StartTime><FrequencyChanges><FrequencyChange><Frequency dt:dt="r8">2612324</Frequency><Timestamp dt:dt="r8">736092589</Timestamp><Current dt:dt="r8">0</Current><DateUtc dt:dt="string">2015-08-10T06:55:25Z</DateUtc></FrequencyChange></FrequencyChanges></Clock>\n	1 ver1_main_procedure-4-1	99.935	1.0.0.880	2	mo	736601032	lewa	1	2.0.10.182	08-10-2015	2015-08-10 06:55:25	08:55:25	mezczyzna	2.0.10.92	2																														TrainingProc1		TrainingList	1	1	1						6																																																					TrainProc											TrainingList1											target_left.png							1	1	6	d								75	300	
1 ver1_main_procedure	4	1	19	<?xml version="1.0"?>\n<Clock xmlns:dt="urn:schemas-microsoft-com:datatypes"><Description dt:dt="string">E-Prime Primary Realtime Clock</Description><StartTime><Timestamp dt:dt="int">0</Timestamp><DateUtc dt:dt="string">2015-08-10T06:55:25Z</DateUtc></StartTime><FrequencyChanges><FrequencyChange><Frequency dt:dt="r8">2612324</Frequency><Timestamp dt:dt="r8">736092589</Timestamp><Current dt:dt="r8">0</Current><DateUtc dt:dt="string">2015-08-10T06:55:25Z</DateUtc></FrequencyChange></FrequencyChanges></Clock>\n	1 ver1_main_procedure-4-1	99.935	1.0.0.880	2	mo	736601032	lewa	1	2.0.10.182	08-10-2015	2015-08-10 06:55:25	08:55:25	mezczyzna	2.0.10.92	2																														TrainingProc1		TrainingList	1	1	1						7																																																					TrainProc											TrainingList1											target_left.png							1	1	7	d								75	150	
1 ver1_main_procedure	4	1	19	<?xml version="1.0"?>\n<Clock xmlns:dt="urn:schemas-microsoft-com:datatypes"><Description dt:dt="string">E-Prime Primary Realtime Clock</Description><StartTime><Timestamp dt:dt="int">0</Timestamp><DateUtc dt:dt="string">2015-08-10T06:55:25Z</DateUtc></StartTime><FrequencyChanges><FrequencyChange><Frequency dt:dt="r8">2612324</Frequency><Timestamp dt:dt="r8">736092589</Timestamp><Current dt:dt="r8">0</Current><DateUtc dt:dt="string">2015-08-10T06:55:25Z</DateUtc></FrequencyChange></FrequencyChanges></Clock>\n	1 ver1_main_procedure-4-1	99.935	1.0.0.880	2	mo	736601032	lewa	1	2.0.10.182	08-10-2015	2015-08-10 06:55:25	08:55:25	mezczyzna	2.0.10.92	2																														TrainingProc1		TrainingList	1	1	1						8																																																					TrainProc											TrainingList1											target_right.png							2	1	8	l								75	150	
1 ver1_main_procedure	4	1	19	<?xml version="1.0"?>\n<Clock xmlns:dt="urn:schemas-microsoft-com:datatypes"><Description dt:dt="string">E-Prime Primary Realtime Clock</Description><StartTime><Timestamp dt:dt="int">0</Timestamp><DateUtc dt:dt="string">2015-08-10T06:55:25Z</DateUtc></StartTime><FrequencyChanges><FrequencyChange><Frequency dt:dt="r8">2612324</Frequency><Timestamp dt:dt="r8">736092589</Timestamp><Current dt:dt="r8">0</Current><DateUtc dt:dt="string">2015-08-10T06:55:25Z</DateUtc></FrequencyChange></FrequencyChanges></Clock>\n	1 ver1_main_procedure-4-1	99.935	1.0.0.880	2	mo	736601032	lewa	1	2.0.10.182	08-10-2015	2015-08-10 06:55:25	08:55:25	mezczyzna	2.0.10.92	2																														TrainingProc1		TrainingList	1	1	1						9																																																					TrainProc											TrainingList1											target_both.png							3	1	9	dl								25	450	
1 ver1_main_procedure	4	1	19	<?xml version="1.0"?>\n<Clock xmlns:dt="urn:schemas-microsoft-com:datatypes"><Description dt:dt="string">E-Prime Primary Realtime Clock</Description><StartTime><Timestamp dt:dt="int">0</Timestamp><DateUtc dt:dt="string">2015-08-10T06:55:25Z</DateUtc></StartTime><FrequencyChanges><FrequencyChange><Frequency dt:dt="r8">2612324</Frequency><Timestamp dt:dt="r8">736092589</Timestamp><Current dt:dt="r8">0</Current><DateUtc dt:dt="string">2015-08-10T06:55:25Z</DateUtc></FrequencyChange></FrequencyChanges></Clock>\n	1 ver1_main_procedure-4-1	99.935	1.0.0.880	2	mo	736601032	lewa	1	2.0.10.182	08-10-2015	2015-08-10 06:55:25	08:55:25	mezczyzna	2.0.10.92	3	2	1	1																							d	{SPACE}		no	BlockProc1		BlockList									1	Free	dl	color_yellow.png		-1	13	423582	461																								25	prime_right.png	0	422592	0	0	13	0	422592	0	422592	1	422592	20	0	-1	421093	422592	422591	0		TrialProc1	right	0		0	20	422912	-422912		0	0	TrialList1	target_both.png	0	dl	-1	3	422642	270	d	926	423568												10	1	1				comp			450
1 ver1_main_procedure	4	1	19	<?xml version="1.0"?>\n<Clock xmlns:dt="urn:schemas-microsoft-com:datatypes"><Description dt:dt="string">E-Prime Primary Realtime Clock</Description><StartTime><Timestamp dt:dt="int">0</Timestamp><DateUtc dt:dt="string">2015-08-10T06:55:25Z</DateUtc></StartTime><FrequencyChanges><FrequencyChange><Frequency dt:dt="r8">2612324</Frequency><Timestamp dt:dt="r8">736092589</Timestamp><Current dt:dt="r8">0</Current><DateUtc dt:dt="string">2015-08-10T06:55:25Z</DateUtc></FrequencyChange></FrequencyChanges></Clock>\n	1 ver1_main_procedure-4-1	99.935	1.0.0.880	2	mo	736601032	lewa	1	2.0.10.182	08-10-2015	2015-08-10 06:55:25	08:55:25	mezczyzna	2.0.10.92	3	2	1	1																							d	{SPACE}		no	BlockProc1		BlockList									2	Cued	d	color_blue.png		-1	6	426414	170																								75	prime_left.png	0	425854	0	0	13	0	425854	0	425854	1	425854	20	0	-1	424354	425854	425853	0		TrialProc1	left	0		0	10	426164	-426164		0	0	TrialList1	target_left.png	1	d	-1	3	425904	260	d	504	426408												1	1	2				comp			150
1 ver1_main_procedure	4	1	19	<?xml version="1.0"?>\n<Clock xmlns:dt="urn:schemas-microsoft-com:datatypes"><Description dt:dt="string">E-Prime Primary Realtime Clock</Description><StartTime><Timestamp dt:dt="int">0</Timestamp><DateUtc dt:dt="string">2015-08-10T06:55:25Z</DateUtc></StartTime><FrequencyChanges><FrequencyChange><Frequency dt:dt="r8">2612324</Frequency><Timestamp dt:dt="r8">736092589</Timestamp><Current dt:dt="r8">0</Current><DateUtc dt:dt="string">2015-08-10T06:55:25Z</DateUtc></FrequencyChange></FrequencyChanges></Clock>\n	1 ver1_main_procedure-4-1	99.935	1.0.0.880	2	mo	736601032	lewa	1	2.0.10.182	08-10-2015	2015-08-10 06:55:25	08:55:25	mezczyzna	2.0.10.92	3	2	1	1																							d	{SPACE}		no	BlockProc1		BlockList									3	Cued	d	color_yellow.png		-1	11	429036	310																								25	prime_right.png	0	428395	0	0	13	0	428395	0	428395	1	428395	20	0	-1	426896	428395	428394	0		TrialProc1	left	0		1	10	428705	-428705		0	0	TrialList1	target_left.png	1	d	-1	3	428445	260	d	579	429024												3	1	3				incomp			300
1 ver1_main_procedure	4	1	19	<?xml version="1.0"?>\n<Clock xmlns:dt="urn:schemas-microsoft-com:datatypes"><Description dt:dt="string">E-Prime Primary Realtime Clock</Description><StartTime><Timestamp dt:dt="int">0</Timestamp><DateUtc dt:dt="string">2015-08-10T06:55:25Z</DateUtc></StartTime><FrequencyChanges><FrequencyChange><Frequency dt:dt="r8">2612324</Frequency><Timestamp dt:dt="r8">736092589</Timestamp><Current dt:dt="r8">0</Current><DateUtc dt:dt="string">2015-08-10T06:55:25Z</DateUtc></FrequencyChange></FrequencyChanges></Clock>\n	1 ver1_main_procedure-4-1	99.935	1.0.0.880	2	mo	736601032	lewa	1	2.0.10.182	08-10-2015	2015-08-10 06:55:25	08:55:25	mezczyzna	2.0.10.92	3	2	1	1																							d	{SPACE}		no	BlockProc1		BlockList									4	Cued	d	color_yellow.png		-1	8	431777	460																								75	prime_right.png	0	431157	0	0	13	0	431157	0	431157	1	431157	20	0	-1	429658	431157	431156	0		TrialProc1	left	0		0	10	431467	-431467		0	0	TrialList1	target_left.png	1	d	-1	3	431207	260	d	561	431768												3	1	4				incomp			450
1 ver1_main_procedure	4	1	19	<?xml version="1.0"?>\n<Clock xmlns:dt="urn:schemas-microsoft-com:datatypes"><Description dt:dt="string">E-Prime Primary Realtime Clock</Description><StartTime><Timestamp dt:dt="int">0</Timestamp><DateUtc dt:dt="string">2015-08-10T06:55:25Z</DateUtc></StartTime><FrequencyChanges><FrequencyChange><Frequency dt:dt="r8">2612324</Frequency><Timestamp dt:dt="r8">736092589</Timestamp><Current dt:dt="r8">0</Current><DateUtc dt:dt="string">2015-08-10T06:55:25Z</DateUtc></FrequencyChange></FrequencyChanges></Clock>\n	1 ver1_main_procedure-4-1	99.935	1.0.0.880	2	mo	736601032	lewa	1	2.0.10.182	08-10-2015	2015-08-10 06:55:25	08:55:25	mezczyzna	2.0.10.92	3	2	1	1																							d	{SPACE}		no	BlockProc1		BlockList									5	Cued	d	color_yellow.png		-1	6	434879	460																								25	prime_right.png	1	434049	0	0	13	1	434049	1	434049	0	434048	21	0	-1	432549	434048	434048	0		TrialProc1	left	0		0	10	434359	-434359		0	0	TrialList1	target_left.png	1	d	-1	3	434099	260	d	773	434872												3	1	5				incomp			450
1 ver1_main_procedure	4	1	19	<?xml version="1.0"?>\n<Clock xmlns:dt="urn:schemas-microsoft-com:datatypes"><Description dt:dt="string">E-Prime Primary Realtime Clock</Description><StartTime><Timestamp dt:dt="int">0</Timestamp><DateUtc dt:dt="string">2015-08-10T06:55:25Z</DateUtc></StartTime><FrequencyChanges><FrequencyChange><Frequency dt:dt="r8">2612324</Frequency><Timestamp dt:dt="r8">736092589</Timestamp><Current dt:dt="r8">0</Current><DateUtc dt:dt="string">2015-08-10T06:55:25Z</DateUtc></FrequencyChange></FrequencyChanges></Clock>\n	1 ver1_main_procedure-4-1	99.935	1.0.0.880	2	mo	736601032	lewa	1	2.0.10.182	08-10-2015	2015-08-10 06:55:25	08:55:25	mezczyzna	2.0.10.92	3	2	1	1																							d	{SPACE}		no	BlockProc1		BlockList									6	Free	dl	color_red.png		-1	12	438181	480																			2					75	prime_right.png	0	437150	0	0	13	0	437151	0	437150	1	437150	20	0	-1	435651	437150	437149	0	prime_right.png	TrialProc1	right	0		0	11	437461	-437461		0	0	TrialList1	target_both.png	0	dl	-1	3	437200	261	l	968	438168												11	1	6				neut			450
1 ver1_main_procedure	4	1	19	<?xml version="1.0"?>\n<Clock xmlns:dt="urn:schemas-microsoft-com:datatypes"><Description dt:dt="string">E-Prime Primary Realtime Clock</Description><StartTime><Timestamp dt:dt="int">0</Timestamp><DateUtc dt:dt="string">2015-08-10T06:55:25Z</DateUtc></StartTime><FrequencyChanges><FrequencyChange><Frequency dt:dt="r8">2612324</Frequency><Timestamp dt:dt="r8">736092589</Timestamp><Current dt:dt="r8">0</Current><DateUtc dt:dt="string">2015-08-10T06:55:25Z</DateUtc></FrequencyChange></FrequencyChanges></Clock>\n	1 ver1_main_procedure-4-1	99.935	1.0.0.880	2	mo	736601032	lewa	1	2.0.10.182	08-10-2015	2015-08-10 06:55:25	08:55:25	mezczyzna	2.0.10.92	3	2	1	1																							d	{SPACE}		no	BlockProc1		BlockList									7	Cued	d	color_green.png		-1	6	441063	170																			1					75	prime_left.png	0	440472	0	0	13	0	440472	0	440472	1	440472	20	0	-1	438973	440472	440471	0	prime_left.png	TrialProc1	left	0		1	10	440782	-440782		0	0	TrialList1	target_left.png	1	d	-1	3	440522	260	d	534	441056												2	1	7				neut			150
1 ver1_main_procedure	4	1	19	<?xml version="1.0"?>\n<Clock xmlns:dt="urn:schemas-microsoft-com:datatypes"><Description dt:dt="string">E-Prime Primary Realtime Clock</Description><StartTime><Timestamp dt:dt="int">0</Timestamp><DateUtc dt:dt="string">2015-08-10T06:55:25Z</DateUtc></StartTime><FrequencyChanges><FrequencyChange><Frequency dt:dt="r8">2612324</Frequency><Timestamp dt:dt="r8">736092589</Timestamp><Current dt:dt="r8">0</Current><DateUtc dt:dt="string">2015-08-10T06:55:25Z</DateUtc></FrequencyChange></FrequencyChanges></Clock>\n	1 ver1_main_procedure-4-1	99.935	1.0.0.880	2	mo	736601032	lewa	1	2.0.10.182	08-10-2015	2015-08-10 06:55:25	08:55:25	mezczyzna	2.0.10.92	3	2	1	1																							d	{SPACE}		no	BlockProc1		BlockList									8	Cued	l	color_red.png		-1	7	443664	310																			2					25	prime_right.png	0	443044	0	0	13	0	443044	0	443044	1	443044	20	0	-1	441545	443044	443043	0	prime_right.png	TrialProc1	right	0		0	10	443354	-443354		0	0	TrialList1	target_right.png	1	l	-1	3	443094	260	l	562	443656												5	1	8				neut			300
1 ver1_main_procedure	4	1	19	<?xml version="1.0"?>\n<Clock xmlns:dt="urn:schemas-microsoft-com:datatypes"><Description dt:dt="string">E-Prime Primary Realtime Clock</Description><StartTime><Timestamp dt:dt="int">0</Timestamp><DateUtc dt:dt="string">2015-08-10T06:55:25Z</DateUtc></StartTime><FrequencyChanges><FrequencyChange><Frequency dt:dt="r8">2612324</Frequency><Timestamp dt:dt="r8">736092589</Timestamp><Current dt:dt="r8">0</Current><DateUtc dt:dt="string">2015-08-10T06:55:25Z</DateUtc></FrequencyChange></FrequencyChanges></Clock>\n	1 ver1_main_procedure-4-1	99.935	1.0.0.880	2	mo	736601032	lewa	1	2.0.10.182	08-10-2015	2015-08-10 06:55:25	08:55:25	mezczyzna	2.0.10.92	3	2	1	1																							d	{SPACE}		no	BlockProc1		BlockList									9	Free	dl	color_purple.png		-1	11	446676	170																								25	prime_left.png	0	445785	0	0	13	1	445786	1	445786	0	445785	20	0	-1	444286	445785	445785	0		TrialProc1	right	0		0	11	446096	-446096		0	0	TrialList1	target_both.png	0	dl	-1	3	445835	261	l	829	446664												12	1	9				incomp			150
1 ver1_main_procedure	4	1	19	<?xml version="1.0"?>\n<Clock xmlns:dt="urn:schemas-microsoft-com:datatypes"><Description dt:dt="string">E-Prime Primary Realtime Clock</Description><StartTime><Timestamp dt:dt="int">0</Timestamp><DateUtc dt:dt="string">2015-08-10T06:55:25Z</DateUtc></StartTime><FrequencyChanges><FrequencyChange><Frequency dt:dt="r8">2612324</Frequency><Timestamp dt:dt="r8">736092589</Timestamp><Current dt:dt="r8">0</Current><DateUtc dt:dt="string">2015-08-10T06:55:25Z</DateUtc></FrequencyChange></FrequencyChanges></Clock>\n	1 ver1_main_procedure-4-1	99.935	1.0.0.880	2	mo	736601032	lewa	1	2.0.10.182	08-10-2015	2015-08-10 06:55:25	08:55:25	mezczyzna	2.0.10.92	3	2	1	1																							d	{SPACE}		no	BlockProc1		BlockList									10	Cued	d	color_green.png		-1	8	449217	461																			1					75	prime_left.png	0	448657	0	0	13	0	448657	0	448657	1	448657	20	0	-1	447158	448657	448656	0	prime_left.png	TrialProc1	left	0		1	10	448967	-448967		0	0	TrialList1	target_left.png	1	d	-1	3	448707	260	d	501	449208												2	1	10				neut			450
1 ver1_main_procedure	4	1	19	<?xml version="1.0"?>\n<Clock xmlns:dt="urn:schemas-microsoft-com:datatypes"><Description dt:dt="string">E-Prime Primary Realtime Clock</Description><StartTime><Timestamp dt:dt="int">0</Timestamp><DateUtc dt:dt="string">2015-08-10T06:55:25Z</DateUtc></StartTime><FrequencyChanges><FrequencyChange><Frequency dt:dt="r8">2612324</Frequency><Timestamp dt:dt="r8">736092589</Timestamp><Current dt:dt="r8">0</Current><DateUtc dt:dt="string">2015-08-10T06:55:25Z</DateUtc></FrequencyChange></FrequencyChanges></Clock>\n	1 ver1_main_procedure-4-1	99.935	1.0.0.880	2	mo	736601032	lewa	1	2.0.10.182	08-10-2015	2015-08-10 06:55:25	08:55:25	mezczyzna	2.0.10.92	3	2	1	1																							d	{SPACE}		no	BlockProc1		BlockList									11	Cued	l	color_orange.png		-1	6	452119	310																								25	prime_right.png	0	451489	0	0	13	0	451489	0	451489	1	451489	20	0	-1	449989	451489	451488	0		TrialProc1	right	0		0	10	451799	-451799		0	0	TrialList1	target_right.png	1	l	-1	3	451539	260	l	573	452112												4	1	11				comp			300
1 ver1_main_procedure	4	1	19	<?xml version="1.0"?>\n<Clock xmlns:dt="urn:schemas-microsoft-com:datatypes"><Description dt:dt="string">E-Prime Primary Realtime Clock</Description><StartTime><Timestamp dt:dt="int">0</Timestamp><DateUtc dt:dt="string">2015-08-10T06:55:25Z</DateUtc></StartTime><FrequencyChanges><FrequencyChange><Frequency dt:dt="r8">2612324</Frequency><Timestamp dt:dt="r8">736092589</Timestamp><Current dt:dt="r8">0</Current><DateUtc dt:dt="string">2015-08-10T06:55:25Z</DateUtc></FrequencyChange></FrequencyChanges></Clock>\n	1 ver1_main_procedure-4-1	99.935	1.0.0.880	2	mo	736601032	lewa	1	2.0.10.182	08-10-2015	2015-08-10 06:55:25	08:55:25	mezczyzna	2.0.10.92	3	2	1	1																							d	{SPACE}		no	BlockProc1		BlockList									12	Cued	d	color_blue.png		-1	8	454841	460																								75	prime_left.png	0	454240	0	0	13	1	454241	1	454241	1	454240	20	0	-1	452741	454240	454239	0		TrialProc1	left	0		0	11	454551	-454551		0	0	TrialList1	target_left.png	1	d	-1	3	454290	261	d	542	454832												1	1	12				comp			450
1 ver1_main_procedure	4	1	19	<?xml version="1.0"?>\n<Clock xmlns:dt="urn:schemas-microsoft-com:datatypes"><Description dt:dt="string">E-Prime Primary Realtime Clock</Description><StartTime><Timestamp dt:dt="int">0</Timestamp><DateUtc dt:dt="string">2015-08-10T06:55:25Z</DateUtc></StartTime><FrequencyChanges><FrequencyChange><Frequency dt:dt="r8">2612324</Frequency><Timestamp dt:dt="r8">736092589</Timestamp><Current dt:dt="r8">0</Current><DateUtc dt:dt="string">2015-08-10T06:55:25Z</DateUtc></FrequencyChange></FrequencyChanges></Clock>\n	1 ver1_main_procedure-4-1	99.935	1.0.0.880	2	mo	736601032	lewa	1	2.0.10.182	08-10-2015	2015-08-10 06:55:25	08:55:25	mezczyzna	2.0.10.92	3	2	1	1																							d	{SPACE}		no	BlockProc1		BlockList									13	Cued	d	color_blue.png		-1	9	457802	461																								25	prime_left.png	0	457112	0	0	13	0	457112	0	457112	1	457112	20	0	-1	455613	457112	457111	0		TrialProc1	left	0		0	10	457422	-457422		0	0	TrialList1	target_left.png	1	d	-1	3	457162	260	d	630	457792												1	1	13				comp			450
1 ver1_main_procedure	4	1	19	<?xml version="1.0"?>\n<Clock xmlns:dt="urn:schemas-microsoft-com:datatypes"><Description dt:dt="string">E-Prime Primary Realtime Clock</Description><StartTime><Timestamp dt:dt="int">0</Timestamp><DateUtc dt:dt="string">2015-08-10T06:55:25Z</DateUtc></StartTime><FrequencyChanges><FrequencyChange><Frequency dt:dt="r8">2612324</Frequency><Timestamp dt:dt="r8">736092589</Timestamp><Current dt:dt="r8">0</Current><DateUtc dt:dt="string">2015-08-10T06:55:25Z</DateUtc></FrequencyChange></FrequencyChanges></Clock>\n	1 ver1_main_procedure-4-1	99.935	1.0.0.880	2	mo	736601032	lewa	1	2.0.10.182	08-10-2015	2015-08-10 06:55:25	08:55:25	mezczyzna	2.0.10.92	3	2	1	1																							d	{SPACE}		no	BlockProc1		BlockList									14	Cued	d	color_green.png		-1	5	460614	160																			2					25	prime_right.png	0	460074	0	0	13	0	460074	0	460074	1	460074	20	0	-1	458575	460074	460073	0	prime_right.png	TrialProc1	left	0		0	10	460384	-460384		0	0	TrialList1	target_left.png	1	d	-1	3	460124	260	d	484	460608												2	1	14				neut			150
1 ver1_main_procedure	4	1	19	<?xml version="1.0"?>\n<Clock xmlns:dt="urn:schemas-microsoft-com:datatypes"><Description dt:dt="string">E-Prime Primary Realtime Clock</Description><StartTime><Timestamp dt:dt="int">0</Timestamp><DateUtc dt:dt="string">2015-08-10T06:55:25Z</DateUtc></StartTime><FrequencyChanges><FrequencyChange><Frequency dt:dt="r8">2612324</Frequency><Timestamp dt:dt="r8">736092589</Timestamp><Current dt:dt="r8">0</Current><DateUtc dt:dt="string">2015-08-10T06:55:25Z</DateUtc></FrequencyChange></FrequencyChanges></Clock>\n	1 ver1_main_procedure-4-1	99.935	1.0.0.880	2	mo	736601032	lewa	1	2.0.10.182	08-10-2015	2015-08-10 06:55:25	08:55:25	mezczyzna	2.0.10.92	3	2	1	1																							d	{SPACE}		no	BlockProc1		BlockList									15	Cued	d	color_blue.png		-1	13	463166	460																								75	prime_left.png	0	462585	0	0	13	0	462585	0	462585	1	462585	20	0	-1	461086	462585	462584	0		TrialProc1	left	0		1	10	462895	-462895		0	0	TrialList1	target_left.png	1	d	-1	3	462635	260	d	517	463152												1	1	15				comp			450
1 ver1_main_procedure	4	1	19	<?xml version="1.0"?>\n<Clock xmlns:dt="urn:schemas-microsoft-com:datatypes"><Description dt:dt="string">E-Prime Primary Realtime Clock</Description><StartTime><Timestamp dt:dt="int">0</Timestamp><DateUtc dt:dt="string">2015-08-10T06:55:25Z</DateUtc></StartTime><FrequencyChanges><FrequencyChange><Frequency dt:dt="r8">2612324</Frequency><Timestamp dt:dt="r8">736092589</Timestamp><Current dt:dt="r8">0</Current><DateUtc dt:dt="string">2015-08-10T06:55:25Z</DateUtc></FrequencyChange></FrequencyChanges></Clock>\n	1 ver1_main_procedure-4-1	99.935	1.0.0.880	2	mo	736601032	lewa	1	2.0.10.182	08-10-2015	2015-08-10 06:55:25	08:55:25	mezczyzna	2.0.10.92	3	2	1	1																							d	{SPACE}		no	BlockProc1		BlockList									16	Cued	l	color_red.png		-1	10	466067	311																			1					25	prime_left.png	0	465437	0	0	13	0	465437	0	465437	1	465437	20	0	-1	463938	465437	465436	0	prime_left.png	TrialProc1	right	0		0	10	465747	-465747		0	0	TrialList1	target_right.png	1	l	-1	3	465487	260	l	569	466056												5	1	16				neut			300
1 ver1_main_procedure	4	1	19	<?xml version="1.0"?>\n<Clock xmlns:dt="urn:schemas-microsoft-com:datatypes"><Description dt:dt="string">E-Prime Primary Realtime Clock</Description><StartTime><Timestamp dt:dt="int">0</Timestamp><DateUtc dt:dt="string">2015-08-10T06:55:25Z</DateUtc></StartTime><FrequencyChanges><FrequencyChange><Frequency dt:dt="r8">2612324</Frequency><Timestamp dt:dt="r8">736092589</Timestamp><Current dt:dt="r8">0</Current><DateUtc dt:dt="string">2015-08-10T06:55:25Z</DateUtc></FrequencyChange></FrequencyChanges></Clock>\n	1 ver1_main_procedure-4-1	99.935	1.0.0.880	2	mo	736601032	lewa	1	2.0.10.182	08-10-2015	2015-08-10 06:55:25	08:55:25	mezczyzna	2.0.10.92	3	2	1	1																							d	{SPACE}		no	BlockProc1		BlockList									17	Free	dl	color_blue.png		-1	8	469009	310																								25	prime_left.png	0	468189	0	0	13	0	468189	0	468189	1	468189	20	0	-1	466690	468189	468188	0		TrialProc1	left	0		0	10	468499	-468499		0	0	TrialList1	target_both.png	0	dl	-1	3	468239	260	d	761	469000												7	1	17				comp			300
1 ver1_main_procedure	4	1	19	<?xml version="1.0"?>\n<Clock xmlns:dt="urn:schemas-microsoft-com:datatypes"><Description dt:dt="string">E-Prime Primary Realtime Clock</Description><StartTime><Timestamp dt:dt="int">0</Timestamp><DateUtc dt:dt="string">2015-08-10T06:55:25Z</DateUtc></StartTime><FrequencyChanges><FrequencyChange><Frequency dt:dt="r8">2612324</Frequency><Timestamp dt:dt="r8">736092589</Timestamp><Current dt:dt="r8">0</Current><DateUtc dt:dt="string">2015-08-10T06:55:25Z</DateUtc></FrequencyChange></FrequencyChanges></Clock>\n	1 ver1_main_procedure-4-1	99.935	1.0.0.880	2	mo	736601032	lewa	1	2.0.10.182	08-10-2015	2015-08-10 06:55:25	08:55:25	mezczyzna	2.0.10.92	3	2	1	1																							d	{SPACE}		no	BlockProc1		BlockList									18	Cued	d	color_yellow.png		-1	8	471641	460																								75	prime_right.png	0	471130	0	0	13	0	471130	0	471130	1	471130	20	0	-1	469631	471130	471129	0		TrialProc1	left	0		1	10	471440	-471440		0	0	TrialList1	target_left.png	1	d	-1	3	471180	260	d	452	471632												3	1	18				incomp			450
1 ver1_main_procedure	4	1	19	<?xml version="1.0"?>\n<Clock xmlns:dt="urn:schemas-microsoft-com:datatypes"><Description dt:dt="string">E-Prime Primary Realtime Clock</Description><StartTime><Timestamp dt:dt="int">0</Timestamp><DateUtc dt:dt="string">2015-08-10T06:55:25Z</DateUtc></StartTime><FrequencyChanges><FrequencyChange><Frequency dt:dt="r8">2612324</Frequency><Timestamp dt:dt="r8">736092589</Timestamp><Current dt:dt="r8">0</Current><DateUtc dt:dt="string">2015-08-10T06:55:25Z</DateUtc></FrequencyChange></FrequencyChanges></Clock>\n	1 ver1_main_procedure-4-1	99.935	1.0.0.880	2	mo	736601032	lewa	1	2.0.10.182	08-10-2015	2015-08-10 06:55:25	08:55:25	mezczyzna	2.0.10.92	3	2	1	1																							d	{SPACE}		no	BlockProc1		BlockList									19	Cued	l	color_purple.png		-1	11	474412	460																								75	prime_left.png	0	473912	0	0	13	0	473912	0	473912	1	473912	20	0	-1	472413	473912	473911	0		TrialProc1	right	0		0	10	474222	-474222		0	0	TrialList1	target_right.png	1	l	-1	3	473962	260	l	438	474400												6	1	19				incomp			450
1 ver1_main_procedure	4	1	19	<?xml version="1.0"?>\n<Clock xmlns:dt="urn:schemas-microsoft-com:datatypes"><Description dt:dt="string">E-Prime Primary Realtime Clock</Description><StartTime><Timestamp dt:dt="int">0</Timestamp><DateUtc dt:dt="string">2015-08-10T06:55:25Z</DateUtc></StartTime><FrequencyChanges><FrequencyChange><Frequency dt:dt="r8">2612324</Frequency><Timestamp dt:dt="r8">736092589</Timestamp><Current dt:dt="r8">0</Current><DateUtc dt:dt="string">2015-08-10T06:55:25Z</DateUtc></FrequencyChange></FrequencyChanges></Clock>\n	1 ver1_main_procedure-4-1	99.935	1.0.0.880	2	mo	736601032	lewa	1	2.0.10.182	08-10-2015	2015-08-10 06:55:25	08:55:25	mezczyzna	2.0.10.92	3	2	1	1																							d	{SPACE}		no	BlockProc1		BlockList									20	Free	dl	color_yellow.png		-1	9	477754	310																								25	prime_right.png	0	476684	0	0	13	0	476684	0	476684	1	476684	20	0	-1	475184	476684	476683	0		TrialProc1	left	0		0	10	476994	-476994		0	0	TrialList1	target_both.png	0	dl	-1	3	476734	260	d	1011	477745												9	1	20				incomp			300
1 ver1_main_procedure	4	1	19	<?xml version="1.0"?>\n<Clock xmlns:dt="urn:schemas-microsoft-com:datatypes"><Description dt:dt="string">E-Prime Primary Realtime Clock</Description><StartTime><Timestamp dt:dt="int">0</Timestamp><DateUtc dt:dt="string">2015-08-10T06:55:25Z</DateUtc></StartTime><FrequencyChanges><FrequencyChange><Frequency dt:dt="r8">2612324</Frequency><Timestamp dt:dt="r8">736092589</Timestamp><Current dt:dt="r8">0</Current><DateUtc dt:dt="string">2015-08-10T06:55:25Z</DateUtc></FrequencyChange></FrequencyChanges></Clock>\n	1 ver1_main_procedure-4-1	99.935	1.0.0.880	2	mo	736601032	lewa	1	2.0.10.182	08-10-2015	2015-08-10 06:55:25	08:55:25	mezczyzna	2.0.10.92	3	2	1	1																							d	{SPACE}		no	BlockProc1		BlockList									21	Cued	l	color_purple.png		-1	7	480536	460																								75	prime_left.png	0	479875	0	0	13	1	479876	1	479876	0	479875	20	0	-1	478376	479875	479875	0		TrialProc1	right	0		0	11	480186	-480186		0	0	TrialList1	target_right.png	1	l	-1	3	479925	261	l	604	480529												6	1	21				incomp			450
1 ver1_main_procedure	4	1	19	<?xml version="1.0"?>\n<Clock xmlns:dt="urn:schemas-microsoft-com:datatypes"><Description dt:dt="string">E-Prime Primary Realtime Clock</Description><StartTime><Timestamp dt:dt="int">0</Timestamp><DateUtc dt:dt="string">2015-08-10T06:55:25Z</DateUtc></StartTime><FrequencyChanges><FrequencyChange><Frequency dt:dt="r8">2612324</Frequency><Timestamp dt:dt="r8">736092589</Timestamp><Current dt:dt="r8">0</Current><DateUtc dt:dt="string">2015-08-10T06:55:25Z</DateUtc></FrequencyChange></FrequencyChanges></Clock>\n	1 ver1_main_procedure-4-1	99.935	1.0.0.880	2	mo	736601032	lewa	1	2.0.10.182	08-10-2015	2015-08-10 06:55:25	08:55:25	mezczyzna	2.0.10.92	3	2	1	1																							d	{SPACE}		no	BlockProc1		BlockList									22	Free	dl	color_yellow.png		-1	9	483538	310																								25	prime_right.png	0	482807	0	0	13	0	482807	0	482807	1	482807	20	0	-1	481308	482807	482806	0		TrialProc1	left	0		0	10	483117	-483117		0	0	TrialList1	target_both.png	0	dl	-1	3	482857	260	d	672	483529												9	1	22				incomp			300
1 ver1_main_procedure	4	1	19	<?xml version="1.0"?>\n<Clock xmlns:dt="urn:schemas-microsoft-com:datatypes"><Description dt:dt="string">E-Prime Primary Realtime Clock</Description><StartTime><Timestamp dt:dt="int">0</Timestamp><DateUtc dt:dt="string">2015-08-10T06:55:25Z</DateUtc></StartTime><FrequencyChanges><FrequencyChange><Frequency dt:dt="r8">2612324</Frequency><Timestamp dt:dt="r8">736092589</Timestamp><Current dt:dt="r8">0</Current><DateUtc dt:dt="string">2015-08-10T06:55:25Z</DateUtc></FrequencyChange></FrequencyChanges></Clock>\n	1 ver1_main_procedure-4-1	99.935	1.0.0.880	2	mo	736601032	lewa	1	2.0.10.182	08-10-2015	2015-08-10 06:55:25	08:55:25	mezczyzna	2.0.10.92	3	2	1	1																							d	{SPACE}		no	BlockProc1		BlockList									23	Cued	d	color_green.png		-1	10	486259	310																			2					75	prime_right.png	0	485659	0	0	13	0	485659	0	485659	1	485659	20	0	-1	484160	485659	485658	0	prime_right.png	TrialProc1	left	0		0	10	485969	-485969		0	0	TrialList1	target_left.png	1	d	-1	3	485709	260	d	540	486249												2	1	23				neut			300
1 ver1_main_procedure	4	1	19	<?xml version="1.0"?>\n<Clock xmlns:dt="urn:schemas-microsoft-com:datatypes"><Description dt:dt="string">E-Prime Primary Realtime Clock</Description><StartTime><Timestamp dt:dt="int">0</Timestamp><DateUtc dt:dt="string">2015-08-10T06:55:25Z</DateUtc></StartTime><FrequencyChanges><FrequencyChange><Frequency dt:dt="r8">2612324</Frequency><Timestamp dt:dt="r8">736092589</Timestamp><Current dt:dt="r8">0</Current><DateUtc dt:dt="string">2015-08-10T06:55:25Z</DateUtc></FrequencyChange></FrequencyChanges></Clock>\n	1 ver1_main_procedure-4-1	99.935	1.0.0.880	2	mo	736601032	lewa	1	2.0.10.182	08-10-2015	2015-08-10 06:55:25	08:55:25	mezczyzna	2.0.10.92	3	2	1	1																							d	{SPACE}		no	BlockProc1		BlockList									24	Cued	l	color_purple.png		-1	12	488901	310																								75	prime_left.png	1	488381	0	0	13	1	488381	1	488381	0	488380	20	0	-1	486881	488380	488380	0		TrialProc1	right	0		0	11	488691	-488691		0	0	TrialList1	target_right.png	1	l	-1	3	488430	261	l	459	488889												6	1	24				incomp			300
1 ver1_main_procedure	4	1	19	<?xml version="1.0"?>\n<Clock xmlns:dt="urn:schemas-microsoft-com:datatypes"><Description dt:dt="string">E-Prime Primary Realtime Clock</Description><StartTime><Timestamp dt:dt="int">0</Timestamp><DateUtc dt:dt="string">2015-08-10T06:55:25Z</DateUtc></StartTime><FrequencyChanges><FrequencyChange><Frequency dt:dt="r8">2612324</Frequency><Timestamp dt:dt="r8">736092589</Timestamp><Current dt:dt="r8">0</Current><DateUtc dt:dt="string">2015-08-10T06:55:25Z</DateUtc></FrequencyChange></FrequencyChanges></Clock>\n	1 ver1_main_procedure-4-1	99.935	1.0.0.880	2	mo	736601032	lewa	1	2.0.10.182	08-10-2015	2015-08-10 06:55:25	08:55:25	mezczyzna	2.0.10.92	3	2	1	1																							d	{SPACE}		no	BlockProc1		BlockList									25	Cued	l	color_red.png		-1	13	491662	160																			1					25	prime_left.png	0	491022	0	0	13	0	491022	0	491022	1	491022	20	0	-1	489523	491022	491021	0	prime_left.png	TrialProc1	right	0		0	10	491332	-491332		0	0	TrialList1	target_right.png	1	l	-1	3	491072	260	l	577	491649												5	1	25				neut			150
1 ver1_main_procedure	4	1	19	<?xml version="1.0"?>\n<Clock xmlns:dt="urn:schemas-microsoft-com:datatypes"><Description dt:dt="string">E-Prime Primary Realtime Clock</Description><StartTime><Timestamp dt:dt="int">0</Timestamp><DateUtc dt:dt="string">2015-08-10T06:55:25Z</DateUtc></StartTime><FrequencyChanges><FrequencyChange><Frequency dt:dt="r8">2612324</Frequency><Timestamp dt:dt="r8">736092589</Timestamp><Current dt:dt="r8">0</Current><DateUtc dt:dt="string">2015-08-10T06:55:25Z</DateUtc></FrequencyChange></FrequencyChanges></Clock>\n	1 ver1_main_procedure-4-1	99.935	1.0.0.880	2	mo	736601032	lewa	1	2.0.10.182	08-10-2015	2015-08-10 06:55:25	08:55:25	mezczyzna	2.0.10.92	3	2	1	1																							d	{SPACE}		no	BlockProc1		BlockList									26	Free	dl	color_red.png		-1	9	494634	160																			2					25	prime_right.png	0	493634	0	0	13	0	493634	0	493634	1	493634	20	0	-1	492134	493634	493633	0	prime_right.png	TrialProc1	left	0		0	10	493944	-493944		0	0	TrialList1	target_both.png	0	dl	-1	3	493684	260	l	941	494625												8	1	26				neut			150
1 ver1_main_procedure	4	1	19	<?xml version="1.0"?>\n<Clock xmlns:dt="urn:schemas-microsoft-com:datatypes"><Description dt:dt="string">E-Prime Primary Realtime Clock</Description><StartTime><Timestamp dt:dt="int">0</Timestamp><DateUtc dt:dt="string">2015-08-10T06:55:25Z</DateUtc></StartTime><FrequencyChanges><FrequencyChange><Frequency dt:dt="r8">2612324</Frequency><Timestamp dt:dt="r8">736092589</Timestamp><Current dt:dt="r8">0</Current><DateUtc dt:dt="string">2015-08-10T06:55:25Z</DateUtc></FrequencyChange></FrequencyChanges></Clock>\n	1 ver1_main_procedure-4-1	99.935	1.0.0.880	2	mo	736601032	lewa	1	2.0.10.182	08-10-2015	2015-08-10 06:55:25	08:55:25	mezczyzna	2.0.10.92	3	2	1	1																							d	{SPACE}		no	BlockProc1		BlockList									27	Cued	l	color_orange.png		-1	7	497136	310																								75	prime_right.png	0	496605	0	0	13	0	496605	0	496605	1	496605	20	0	-1	495106	496605	496604	0		TrialProc1	right	0		1	10	496915	-496915		0	0	TrialList1	target_right.png	1	l	-1	3	496655	260	l	474	497129												4	1	27				comp			300
1 ver1_main_procedure	4	1	19	<?xml version="1.0"?>\n<Clock xmlns:dt="urn:schemas-microsoft-com:datatypes"><Description dt:dt="string">E-Prime Primary Realtime Clock</Description><StartTime><Timestamp dt:dt="int">0</Timestamp><DateUtc dt:dt="string">2015-08-10T06:55:25Z</DateUtc></StartTime><FrequencyChanges><FrequencyChange><Frequency dt:dt="r8">2612324</Frequency><Timestamp dt:dt="r8">736092589</Timestamp><Current dt:dt="r8">0</Current><DateUtc dt:dt="string">2015-08-10T06:55:25Z</DateUtc></FrequencyChange></FrequencyChanges></Clock>\n	1 ver1_main_procedure-4-1	99.935	1.0.0.880	2	mo	736601032	lewa	1	2.0.10.182	08-10-2015	2015-08-10 06:55:25	08:55:25	mezczyzna	2.0.10.92	3	2	1	1																							d	{SPACE}		no	BlockProc1		BlockList									28	Free	dl	color_orange.png		-1	14	500247	461																								75	prime_right.png	0	499257	0	0	13	0	499257	0	499257	1	499257	20	0	-1	497758	499257	499256	0		TrialProc1	right	0		0	10	499567	-499567		0	0	TrialList1	target_both.png	0	dl	-1	3	499307	260	l	926	500233												10	1	28				comp			450
1 ver1_main_procedure	4	1	19	<?xml version="1.0"?>\n<Clock xmlns:dt="urn:schemas-microsoft-com:datatypes"><Description dt:dt="string">E-Prime Primary Realtime Clock</Description><StartTime><Timestamp dt:dt="int">0</Timestamp><DateUtc dt:dt="string">2015-08-10T06:55:25Z</DateUtc></StartTime><FrequencyChanges><FrequencyChange><Frequency dt:dt="r8">2612324</Frequency><Timestamp dt:dt="r8">736092589</Timestamp><Current dt:dt="r8">0</Current><DateUtc dt:dt="string">2015-08-10T06:55:25Z</DateUtc></FrequencyChange></FrequencyChanges></Clock>\n	1 ver1_main_procedure-4-1	99.935	1.0.0.880	2	mo	736601032	lewa	1	2.0.10.182	08-10-2015	2015-08-10 06:55:25	08:55:25	mezczyzna	2.0.10.92	3	2	1	1																							d	{SPACE}		no	BlockProc1		BlockList									29	Cued	d	color_blue.png		-1	12	503029	310																								25	prime_left.png	0	502519	0	0	13	0	502519	0	502519	1	502519	20	0	-1	501019	502519	502518	0		TrialProc1	left	0		0	10	502829	-502829		0	0	TrialList1	target_left.png	1	d	-1	3	502569	260	d	448	503017												1	1	29				comp			300
1 ver1_main_procedure	4	1	19	<?xml version="1.0"?>\n<Clock xmlns:dt="urn:schemas-microsoft-com:datatypes"><Description dt:dt="string">E-Prime Primary Realtime Clock</Description><StartTime><Timestamp dt:dt="int">0</Timestamp><DateUtc dt:dt="string">2015-08-10T06:55:25Z</DateUtc></StartTime><FrequencyChanges><FrequencyChange><Frequency dt:dt="r8">2612324</Frequency><Timestamp dt:dt="r8">736092589</Timestamp><Current dt:dt="r8">0</Current><DateUtc dt:dt="string">2015-08-10T06:55:25Z</DateUtc></FrequencyChange></FrequencyChanges></Clock>\n	1 ver1_main_procedure-4-1	99.935	1.0.0.880	2	mo	736601032	lewa	1	2.0.10.182	08-10-2015	2015-08-10 06:55:25	08:55:25	mezczyzna	2.0.10.92	3	2	1	1																							d	{SPACE}		no	BlockProc1		BlockList									30	Cued	d	color_yellow.png		-1	9	505611	310																								75	prime_right.png	0	505150	0	0	13	1	505151	1	505151	1	505150	20	0	-1	503651	505150	505149	0		TrialProc1	left	0		1	10	505460	-505460		0	0	TrialList1	target_left.png	1	d	-1	3	505200	260	d	401	505601												3	1	30				incomp			300
1 ver1_main_procedure	4	1	19	<?xml version="1.0"?>\n<Clock xmlns:dt="urn:schemas-microsoft-com:datatypes"><Description dt:dt="string">E-Prime Primary Realtime Clock</Description><StartTime><Timestamp dt:dt="int">0</Timestamp><DateUtc dt:dt="string">2015-08-10T06:55:25Z</DateUtc></StartTime><FrequencyChanges><FrequencyChange><Frequency dt:dt="r8">2612324</Frequency><Timestamp dt:dt="r8">736092589</Timestamp><Current dt:dt="r8">0</Current><DateUtc dt:dt="string">2015-08-10T06:55:25Z</DateUtc></FrequencyChange></FrequencyChanges></Clock>\n	1 ver1_main_procedure-4-1	99.935	1.0.0.880	2	mo	736601032	lewa	1	2.0.10.182	08-10-2015	2015-08-10 06:55:25	08:55:25	mezczyzna	2.0.10.92	3	2	1	1																							d	{SPACE}		no	BlockProc1		BlockList									31	Cued	d	color_blue.png		-1	14	508192	160																								25	prime_left.png	0	507732	0	0	13	0	507732	0	507732	1	507732	20	0	-1	506233	507732	507731	0		TrialProc1	left	0		0	10	508042	-508042		0	0	TrialList1	target_left.png	1	d	-1	3	507782	260	d	395	508177												1	1	31				comp			150
1 ver1_main_procedure	4	1	19	<?xml version="1.0"?>\n<Clock xmlns:dt="urn:schemas-microsoft-com:datatypes"><Description dt:dt="string">E-Prime Primary Realtime Clock</Description><StartTime><Timestamp dt:dt="int">0</Timestamp><DateUtc dt:dt="string">2015-08-10T06:55:25Z</DateUtc></StartTime><FrequencyChanges><FrequencyChange><Frequency dt:dt="r8">2612324</Frequency><Timestamp dt:dt="r8">736092589</Timestamp><Current dt:dt="r8">0</Current><DateUtc dt:dt="string">2015-08-10T06:55:25Z</DateUtc></FrequencyChange></FrequencyChanges></Clock>\n	1 ver1_main_procedure-4-1	99.935	1.0.0.880	2	mo	736601032	lewa	1	2.0.10.182	08-10-2015	2015-08-10 06:55:25	08:55:25	mezczyzna	2.0.10.92	3	2	1	1																							d	{SPACE}		no	BlockProc1		BlockList									32	Cued	l	color_orange.png		-1	6	510624	160																								75	prime_right.png	0	510163	0	0	13	0	510164	0	510163	1	510163	20	0	-1	508664	510163	510162	0		TrialProc1	right	0		1	10	510473	-510473		0	0	TrialList1	target_right.png	1	l	-1	3	510213	260	l	404	510617												4	1	32				comp			150
1 ver1_main_procedure	4	1	19	<?xml version="1.0"?>\n<Clock xmlns:dt="urn:schemas-microsoft-com:datatypes"><Description dt:dt="string">E-Prime Primary Realtime Clock</Description><StartTime><Timestamp dt:dt="int">0</Timestamp><DateUtc dt:dt="string">2015-08-10T06:55:25Z</DateUtc></StartTime><FrequencyChanges><FrequencyChange><Frequency dt:dt="r8">2612324</Frequency><Timestamp dt:dt="r8">736092589</Timestamp><Current dt:dt="r8">0</Current><DateUtc dt:dt="string">2015-08-10T06:55:25Z</DateUtc></FrequencyChange></FrequencyChanges></Clock>\n	1 ver1_main_procedure-4-1	99.935	1.0.0.880	2	mo	736601032	lewa	1	2.0.10.182	08-10-2015	2015-08-10 06:55:25	08:55:25	mezczyzna	2.0.10.92	3	2	1	1																							d	{SPACE}		no	BlockProc1		BlockList									33	Cued	l	color_purple.png		-1	5	513135	310																								25	prime_left.png	0	512595	0	0	13	0	512595	0	512595	1	512595	20	0	-1	511096	512595	512594	0		TrialProc1	right	0		0	10	512905	-512905		0	0	TrialList1	target_right.png	1	l	-1	3	512645	260	l	484	513129												6	1	33				incomp			300
1 ver1_main_procedure	4	1	19	<?xml version="1.0"?>\n<Clock xmlns:dt="urn:schemas-microsoft-com:datatypes"><Description dt:dt="string">E-Prime Primary Realtime Clock</Description><StartTime><Timestamp dt:dt="int">0</Timestamp><DateUtc dt:dt="string">2015-08-10T06:55:25Z</DateUtc></StartTime><FrequencyChanges><FrequencyChange><Frequency dt:dt="r8">2612324</Frequency><Timestamp dt:dt="r8">736092589</Timestamp><Current dt:dt="r8">0</Current><DateUtc dt:dt="string">2015-08-10T06:55:25Z</DateUtc></FrequencyChange></FrequencyChanges></Clock>\n	1 ver1_main_procedure-4-1	99.935	1.0.0.880	2	mo	736601032	lewa	1	2.0.10.182	08-10-2015	2015-08-10 06:55:25	08:55:25	mezczyzna	2.0.10.92	3	2	1	1																							d	{SPACE}		no	BlockProc1		BlockList									34	Cued	d	color_yellow.png		-1	8	515666	161																								75	prime_right.png	0	515256	0	0	13	0	515256	0	515256	1	515256	20	0	-1	513757	515256	515255	0		TrialProc1	left	0		1	10	515566	-515566		0	0	TrialList1	target_left.png	1	d	-1	3	515306	260	d	351	515657												3	1	34				incomp			150
1 ver1_main_procedure	4	1	19	<?xml version="1.0"?>\n<Clock xmlns:dt="urn:schemas-microsoft-com:datatypes"><Description dt:dt="string">E-Prime Primary Realtime Clock</Description><StartTime><Timestamp dt:dt="int">0</Timestamp><DateUtc dt:dt="string">2015-08-10T06:55:25Z</DateUtc></StartTime><FrequencyChanges><FrequencyChange><Frequency dt:dt="r8">2612324</Frequency><Timestamp dt:dt="r8">736092589</Timestamp><Current dt:dt="r8">0</Current><DateUtc dt:dt="string">2015-08-10T06:55:25Z</DateUtc></FrequencyChange></FrequencyChanges></Clock>\n	1 ver1_main_procedure-4-1	99.935	1.0.0.880	2	mo	736601032	lewa	1	2.0.10.182	08-10-2015	2015-08-10 06:55:25	08:55:25	mezczyzna	2.0.10.92	3	2	1	1																							d	{SPACE}		no	BlockProc1		BlockList									35	Cued	d	color_blue.png		-1	14	518128	310																								75	prime_left.png	0	517638	0	0	13	0	517638	0	517638	1	517638	20	0	-1	516138	517638	517637	0		TrialProc1	left	0		0	10	517948	-517948		0	0	TrialList1	target_left.png	1	d	-1	3	517688	260	d	425	518113												1	1	35				comp			300
1 ver1_main_procedure	4	1	19	<?xml version="1.0"?>\n<Clock xmlns:dt="urn:schemas-microsoft-com:datatypes"><Description dt:dt="string">E-Prime Primary Realtime Clock</Description><StartTime><Timestamp dt:dt="int">0</Timestamp><DateUtc dt:dt="string">2015-08-10T06:55:25Z</DateUtc></StartTime><FrequencyChanges><FrequencyChange><Frequency dt:dt="r8">2612324</Frequency><Timestamp dt:dt="r8">736092589</Timestamp><Current dt:dt="r8">0</Current><DateUtc dt:dt="string">2015-08-10T06:55:25Z</DateUtc></FrequencyChange></FrequencyChanges></Clock>\n	1 ver1_main_procedure-4-1	99.935	1.0.0.880	2	mo	736601032	lewa	1	2.0.10.182	08-10-2015	2015-08-10 06:55:25	08:55:25	mezczyzna	2.0.10.92	3	2	1	1																							d	{SPACE}		no	BlockProc1		BlockList									36	Cued	l	color_purple.png		-1	14	520720	160																								75	prime_left.png	0	520249	0	0	13	0	520249	0	520249	1	520249	20	0	-1	518750	520249	520248	0		TrialProc1	right	0		0	10	520559	-520559		0	0	TrialList1	target_right.png	1	l	-1	3	520299	260	l	406	520705												6	1	36				incomp			150
1 ver1_main_procedure	4	1	19	<?xml version="1.0"?>\n<Clock xmlns:dt="urn:schemas-microsoft-com:datatypes"><Description dt:dt="string">E-Prime Primary Realtime Clock</Description><StartTime><Timestamp dt:dt="int">0</Timestamp><DateUtc dt:dt="string">2015-08-10T06:55:25Z</DateUtc></StartTime><FrequencyChanges><FrequencyChange><Frequency dt:dt="r8">2612324</Frequency><Timestamp dt:dt="r8">736092589</Timestamp><Current dt:dt="r8">0</Current><DateUtc dt:dt="string">2015-08-10T06:55:25Z</DateUtc></FrequencyChange></FrequencyChanges></Clock>\n	1 ver1_main_procedure-4-1	99.935	1.0.0.880	2	mo	736601032	lewa	1	2.0.10.182	08-10-2015	2015-08-10 06:55:25	08:55:25	mezczyzna	2.0.10.92	3	2	1	1																							d	{SPACE}		no	BlockProc1		BlockList									37	Cued	l	color_orange.png		-1	5	523191	460																								25	prime_right.png	0	522691	0	0	13	0	522691	0	522691	1	522691	20	0	-1	521191	522691	522690	0		TrialProc1	right	0		0	10	523001	-523001		0	0	TrialList1	target_right.png	1	l	-1	3	522741	260	l	444	523185												4	1	37				comp			450
1 ver1_main_procedure	4	1	19	<?xml version="1.0"?>\n<Clock xmlns:dt="urn:schemas-microsoft-com:datatypes"><Description dt:dt="string">E-Prime Primary Realtime Clock</Description><StartTime><Timestamp dt:dt="int">0</Timestamp><DateUtc dt:dt="string">2015-08-10T06:55:25Z</DateUtc></StartTime><FrequencyChanges><FrequencyChange><Frequency dt:dt="r8">2612324</Frequency><Timestamp dt:dt="r8">736092589</Timestamp><Current dt:dt="r8">0</Current><DateUtc dt:dt="string">2015-08-10T06:55:25Z</DateUtc></FrequencyChange></FrequencyChanges></Clock>\n	1 ver1_main_procedure-4-1	99.935	1.0.0.880	2	mo	736601032	lewa	1	2.0.10.182	08-10-2015	2015-08-10 06:55:25	08:55:25	mezczyzna	2.0.10.92	3	2	1	1																							d	{SPACE}		no	BlockProc1		BlockList									38	Free	dl	color_blue.png		-1	15	526433	160																								25	prime_left.png	0	525462	0	0	13	0	525462	0	525462	1	525462	20	0	-1	523963	525462	525461	0		TrialProc1	right	0		1	10	525772	-525772		0	0	TrialList1	target_both.png	0	dl	-1	3	525512	260	d	905	526417												12	1	38				incomp			150
1 ver1_main_procedure	4	1	19	<?xml version="1.0"?>\n<Clock xmlns:dt="urn:schemas-microsoft-com:datatypes"><Description dt:dt="string">E-Prime Primary Realtime Clock</Description><StartTime><Timestamp dt:dt="int">0</Timestamp><DateUtc dt:dt="string">2015-08-10T06:55:25Z</DateUtc></StartTime><FrequencyChanges><FrequencyChange><Frequency dt:dt="r8">2612324</Frequency><Timestamp dt:dt="r8">736092589</Timestamp><Current dt:dt="r8">0</Current><DateUtc dt:dt="string">2015-08-10T06:55:25Z</DateUtc></FrequencyChange></FrequencyChanges></Clock>\n	1 ver1_main_procedure-4-1	99.935	1.0.0.880	2	mo	736601032	lewa	1	2.0.10.182	08-10-2015	2015-08-10 06:55:25	08:55:25	mezczyzna	2.0.10.92	3	2	1	1																							d	{SPACE}		no	BlockProc1		BlockList									39	Cued	d	color_yellow.png		-1	10	528884	461																								25	prime_right.png	0	528404	0	0	13	0	528404	0	528404	1	528404	20	0	-1	526905	528404	528403	0		TrialProc1	left	0		0	10	528714	-528714		0	0	TrialList1	target_left.png	1	d	-1	3	528454	260	d	419	528873												3	1	39				incomp			450
1 ver1_main_procedure	4	1	19	<?xml version="1.0"?>\n<Clock xmlns:dt="urn:schemas-microsoft-com:datatypes"><Description dt:dt="string">E-Prime Primary Realtime Clock</Description><StartTime><Timestamp dt:dt="int">0</Timestamp><DateUtc dt:dt="string">2015-08-10T06:55:25Z</DateUtc></StartTime><FrequencyChanges><FrequencyChange><Frequency dt:dt="r8">2612324</Frequency><Timestamp dt:dt="r8">736092589</Timestamp><Current dt:dt="r8">0</Current><DateUtc dt:dt="string">2015-08-10T06:55:25Z</DateUtc></FrequencyChange></FrequencyChanges></Clock>\n	1 ver1_main_procedure-4-1	99.935	1.0.0.880	2	mo	736601032	lewa	1	2.0.10.182	08-10-2015	2015-08-10 06:55:25	08:55:25	mezczyzna	2.0.10.92	3	2	1	1																							d	{SPACE}		no	BlockProc1		BlockList									40	Cued	d	color_green.png		-1	14	531656	160																			1					75	prime_left.png	0	531156	0	0	13	0	531156	0	531156	1	531156	20	0	-1	529656	531156	531155	0	prime_left.png	TrialProc1	left	0		0	10	531466	-531466		0	0	TrialList1	target_left.png	1	d	-1	3	531206	260	d	435	531641												2	1	40				neut			150
1 ver1_main_procedure	4	1	19	<?xml version="1.0"?>\n<Clock xmlns:dt="urn:schemas-microsoft-com:datatypes"><Description dt:dt="string">E-Prime Primary Realtime Clock</Description><StartTime><Timestamp dt:dt="int">0</Timestamp><DateUtc dt:dt="string">2015-08-10T06:55:25Z</DateUtc></StartTime><FrequencyChanges><FrequencyChange><Frequency dt:dt="r8">2612324</Frequency><Timestamp dt:dt="r8">736092589</Timestamp><Current dt:dt="r8">0</Current><DateUtc dt:dt="string">2015-08-10T06:55:25Z</DateUtc></FrequencyChange></FrequencyChanges></Clock>\n	1 ver1_main_procedure-4-1	99.935	1.0.0.880	2	mo	736601032	lewa	1	2.0.10.182	08-10-2015	2015-08-10 06:55:25	08:55:25	mezczyzna	2.0.10.92	3	2	1	1																							d	{SPACE}		no	BlockProc1		BlockList									41	Cued	d	color_blue.png		-1	13	534167	461																								25	prime_left.png	0	533627	0	0	13	0	533627	0	533627	1	533627	20	0	-1	532128	533627	533626	0		TrialProc1	left	0		0	10	533937	-533937		0	0	TrialList1	target_left.png	1	d	-1	3	533677	260	d	476	534153												1	1	41				comp			450
1 ver1_main_procedure	4	1	19	<?xml version="1.0"?>\n<Clock xmlns:dt="urn:schemas-microsoft-com:datatypes"><Description dt:dt="string">E-Prime Primary Realtime Clock</Description><StartTime><Timestamp dt:dt="int">0</Timestamp><DateUtc dt:dt="string">2015-08-10T06:55:25Z</DateUtc></StartTime><FrequencyChanges><FrequencyChange><Frequency dt:dt="r8">2612324</Frequency><Timestamp dt:dt="r8">736092589</Timestamp><Current dt:dt="r8">0</Current><DateUtc dt:dt="string">2015-08-10T06:55:25Z</DateUtc></FrequencyChange></FrequencyChanges></Clock>\n	1 ver1_main_procedure-4-1	99.935	1.0.0.880	2	mo	736601032	lewa	1	2.0.10.182	08-10-2015	2015-08-10 06:55:25	08:55:25	mezczyzna	2.0.10.92	3	2	1	1																							d	{SPACE}		no	BlockProc1		BlockList									42	Cued	l	color_red.png		-1	11	536789	310																			2					25	prime_right.png	0	536439	0	0	13	0	536439	0	536439	1	536439	20	0	-1	534939	536439	536438	0	prime_right.png	TrialProc1	right	0		0	10	536749	-536749		0	0	TrialList1	target_right.png	1	l	-1	3	536489	260	l	288	536777												5	1	42				neut			300
1 ver1_main_procedure	4	1	19	<?xml version="1.0"?>\n<Clock xmlns:dt="urn:schemas-microsoft-com:datatypes"><Description dt:dt="string">E-Prime Primary Realtime Clock</Description><StartTime><Timestamp dt:dt="int">0</Timestamp><DateUtc dt:dt="string">2015-08-10T06:55:25Z</DateUtc></StartTime><FrequencyChanges><FrequencyChange><Frequency dt:dt="r8">2612324</Frequency><Timestamp dt:dt="r8">736092589</Timestamp><Current dt:dt="r8">0</Current><DateUtc dt:dt="string">2015-08-10T06:55:25Z</DateUtc></FrequencyChange></FrequencyChanges></Clock>\n	1 ver1_main_procedure-4-1	99.935	1.0.0.880	2	mo	736601032	lewa	1	2.0.10.182	08-10-2015	2015-08-10 06:55:25	08:55:25	mezczyzna	2.0.10.92	3	2	1	1																							d	{SPACE}		no	BlockProc1		BlockList									43	Free	dl	color_green.png		-1	14	539280	461																			1					25	prime_left.png	0	538910	0	0	13	0	538910	0	538910	1	538910	20	0	-1	537411	538910	538909	0	prime_left.png	TrialProc1	right	0		0	10	539220	-539220		0	0	TrialList1	target_both.png	0	dl	-1	3	538960	260	d	305	539265												11	1	43				neut			450
1 ver1_main_procedure	4	1	19	<?xml version="1.0"?>\n<Clock xmlns:dt="urn:schemas-microsoft-com:datatypes"><Description dt:dt="string">E-Prime Primary Realtime Clock</Description><StartTime><Timestamp dt:dt="int">0</Timestamp><DateUtc dt:dt="string">2015-08-10T06:55:25Z</DateUtc></StartTime><FrequencyChanges><FrequencyChange><Frequency dt:dt="r8">2612324</Frequency><Timestamp dt:dt="r8">736092589</Timestamp><Current dt:dt="r8">0</Current><DateUtc dt:dt="string">2015-08-10T06:55:25Z</DateUtc></FrequencyChange></FrequencyChanges></Clock>\n	1 ver1_main_procedure-4-1	99.935	1.0.0.880	2	mo	736601032	lewa	1	2.0.10.182	08-10-2015	2015-08-10 06:55:25	08:55:25	mezczyzna	2.0.10.92	3	2	1	1																							d	{SPACE}		no	BlockProc1		BlockList									44	Cued	d	color_green.png		-1	6	542072	460																			2					25	prime_right.png	0	541552	0	0	13	0	541552	0	541552	1	541552	20	0	-1	540052	541552	541551	0	prime_right.png	TrialProc1	left	0		0	10	541862	-541862		0	0	TrialList1	target_left.png	1	d	-1	3	541602	260	d	463	542065												2	1	44				neut			450
1 ver1_main_procedure	4	1	19	<?xml version="1.0"?>\n<Clock xmlns:dt="urn:schemas-microsoft-com:datatypes"><Description dt:dt="string">E-Prime Primary Realtime Clock</Description><StartTime><Timestamp dt:dt="int">0</Timestamp><DateUtc dt:dt="string">2015-08-10T06:55:25Z</DateUtc></StartTime><FrequencyChanges><FrequencyChange><Frequency dt:dt="r8">2612324</Frequency><Timestamp dt:dt="r8">736092589</Timestamp><Current dt:dt="r8">0</Current><DateUtc dt:dt="string">2015-08-10T06:55:25Z</DateUtc></FrequencyChange></FrequencyChanges></Clock>\n	1 ver1_main_procedure-4-1	99.935	1.0.0.880	2	mo	736601032	lewa	1	2.0.10.182	08-10-2015	2015-08-10 06:55:25	08:55:25	mezczyzna	2.0.10.92	3	2	1	1																							d	{SPACE}		no	BlockProc1		BlockList									45	Free	dl	color_blue.png		-1	14	545544	310																								25	prime_left.png	0	544343	0	0	13	1	544344	1	544344	1	544343	20	0	-1	542844	544343	544342	0		TrialProc1	right	0		0	11	544654	-544654		0	0	TrialList1	target_both.png	0	dl	-1	3	544393	261	d	1136	545529												12	1	45				incomp			300
1 ver1_main_procedure	4	1	19	<?xml version="1.0"?>\n<Clock xmlns:dt="urn:schemas-microsoft-com:datatypes"><Description dt:dt="string">E-Prime Primary Realtime Clock</Description><StartTime><Timestamp dt:dt="int">0</Timestamp><DateUtc dt:dt="string">2015-08-10T06:55:25Z</DateUtc></StartTime><FrequencyChanges><FrequencyChange><Frequency dt:dt="r8">2612324</Frequency><Timestamp dt:dt="r8">736092589</Timestamp><Current dt:dt="r8">0</Current><DateUtc dt:dt="string">2015-08-10T06:55:25Z</DateUtc></FrequencyChange></FrequencyChanges></Clock>\n	1 ver1_main_procedure-4-1	99.935	1.0.0.880	2	mo	736601032	lewa	1	2.0.10.182	08-10-2015	2015-08-10 06:55:25	08:55:25	mezczyzna	2.0.10.92	3	2	1	1																							d	{SPACE}		no	BlockProc1		BlockList									46	Cued	l	color_red.png		-1	8	548266	160																			1					25	prime_left.png	0	547665	0	0	13	0	547665	0	547665	1	547665	20	0	-1	546166	547665	547664	0	prime_left.png	TrialProc1	right	0		1	10	547975	-547975		0	0	TrialList1	target_right.png	1	l	-1	3	547715	260	l	542	548257												5	1	46				neut			150
1 ver1_main_procedure	4	1	19	<?xml version="1.0"?>\n<Clock xmlns:dt="urn:schemas-microsoft-com:datatypes"><Description dt:dt="string">E-Prime Primary Realtime Clock</Description><StartTime><Timestamp dt:dt="int">0</Timestamp><DateUtc dt:dt="string">2015-08-10T06:55:25Z</DateUtc></StartTime><FrequencyChanges><FrequencyChange><Frequency dt:dt="r8">2612324</Frequency><Timestamp dt:dt="r8">736092589</Timestamp><Current dt:dt="r8">0</Current><DateUtc dt:dt="string">2015-08-10T06:55:25Z</DateUtc></FrequencyChange></FrequencyChanges></Clock>\n	1 ver1_main_procedure-4-1	99.935	1.0.0.880	2	mo	736601032	lewa	1	2.0.10.182	08-10-2015	2015-08-10 06:55:25	08:55:25	mezczyzna	2.0.10.92	3	2	1	1																							d	{SPACE}		no	BlockProc1		BlockList									47	Free	dl	color_orange.png		-1	5	550927	460																								75	prime_right.png	0	550237	0	0	13	0	550237	0	550237	1	550237	20	0	-1	548738	550237	550236	0		TrialProc1	left	0		0	10	550547	-550547		0	0	TrialList1	target_both.png	0	dl	-1	3	550287	260	l	634	550921												9	1	47				incomp			450
1 ver1_main_procedure	4	1	19	<?xml version="1.0"?>\n<Clock xmlns:dt="urn:schemas-microsoft-com:datatypes"><Description dt:dt="string">E-Prime Primary Realtime Clock</Description><StartTime><Timestamp dt:dt="int">0</Timestamp><DateUtc dt:dt="string">2015-08-10T06:55:25Z</DateUtc></StartTime><FrequencyChanges><FrequencyChange><Frequency dt:dt="r8">2612324</Frequency><Timestamp dt:dt="r8">736092589</Timestamp><Current dt:dt="r8">0</Current><DateUtc dt:dt="string">2015-08-10T06:55:25Z</DateUtc></FrequencyChange></FrequencyChanges></Clock>\n	1 ver1_main_procedure-4-1	99.935	1.0.0.880	2	mo	736601032	lewa	1	2.0.10.182	08-10-2015	2015-08-10 06:55:25	08:55:25	mezczyzna	2.0.10.92	3	2	1	1																							d	{SPACE}		no	BlockProc1		BlockList									48	Cued	l	color_red.png		-1	15	553769	160																			2					75	prime_right.png	0	553199	0	0	13	0	553199	0	553199	1	553199	20	0	-1	551699	553199	553198	0	prime_right.png	TrialProc1	right	0		0	10	553509	-553509		0	0	TrialList1	target_right.png	1	l	-1	3	553249	260	l	504	553753												5	1	48				neut			150
1 ver1_main_procedure	4	1	19	<?xml version="1.0"?>\n<Clock xmlns:dt="urn:schemas-microsoft-com:datatypes"><Description dt:dt="string">E-Prime Primary Realtime Clock</Description><StartTime><Timestamp dt:dt="int">0</Timestamp><DateUtc dt:dt="string">2015-08-10T06:55:25Z</DateUtc></StartTime><FrequencyChanges><FrequencyChange><Frequency dt:dt="r8">2612324</Frequency><Timestamp dt:dt="r8">736092589</Timestamp><Current dt:dt="r8">0</Current><DateUtc dt:dt="string">2015-08-10T06:55:25Z</DateUtc></FrequencyChange></FrequencyChanges></Clock>\n	1 ver1_main_procedure-4-1	99.935	1.0.0.880	2	mo	736601032	lewa	1	2.0.10.182	08-10-2015	2015-08-10 06:55:25	08:55:25	mezczyzna	2.0.10.92	3	2	1	1																							d	{SPACE}		no	BlockProc1		BlockList									49	Free	dl	color_blue.png		-1	12	556270	311																								75	prime_left.png	0	555740	0	0	13	0	555740	0	555740	1	555740	20	0	-1	554241	555740	555739	0		TrialProc1	left	0		0	10	556050	-556050		0	0	TrialList1	target_both.png	0	dl	-1	3	555790	260	d	468	556258												7	1	49				comp			300
1 ver1_main_procedure	4	1	19	<?xml version="1.0"?>\n<Clock xmlns:dt="urn:schemas-microsoft-com:datatypes"><Description dt:dt="string">E-Prime Primary Realtime Clock</Description><StartTime><Timestamp dt:dt="int">0</Timestamp><DateUtc dt:dt="string">2015-08-10T06:55:25Z</DateUtc></StartTime><FrequencyChanges><FrequencyChange><Frequency dt:dt="r8">2612324</Frequency><Timestamp dt:dt="r8">736092589</Timestamp><Current dt:dt="r8">0</Current><DateUtc dt:dt="string">2015-08-10T06:55:25Z</DateUtc></FrequencyChange></FrequencyChanges></Clock>\n	1 ver1_main_procedure-4-1	99.935	1.0.0.880	2	mo	736601032	lewa	1	2.0.10.182	08-10-2015	2015-08-10 06:55:25	08:55:25	mezczyzna	2.0.10.92	3	2	1	1																							d	{SPACE}		no	BlockProc1		BlockList									50	Cued	d	color_yellow.png		-1	12	558902	460																								25	prime_right.png	0	558392	0	0	13	0	558392	0	558392	1	558392	20	0	-1	556892	558392	558391	0		TrialProc1	left	0		0	10	558702	-558702		0	0	TrialList1	target_left.png	1	d	-1	3	558442	260	d	448	558890												3	1	50				incomp			450
1 ver1_main_procedure	4	1	19	<?xml version="1.0"?>\n<Clock xmlns:dt="urn:schemas-microsoft-com:datatypes"><Description dt:dt="string">E-Prime Primary Realtime Clock</Description><StartTime><Timestamp dt:dt="int">0</Timestamp><DateUtc dt:dt="string">2015-08-10T06:55:25Z</DateUtc></StartTime><FrequencyChanges><FrequencyChange><Frequency dt:dt="r8">2612324</Frequency><Timestamp dt:dt="r8">736092589</Timestamp><Current dt:dt="r8">0</Current><DateUtc dt:dt="string">2015-08-10T06:55:25Z</DateUtc></FrequencyChange></FrequencyChanges></Clock>\n	1 ver1_main_procedure-4-1	99.935	1.0.0.880	2	mo	736601032	lewa	1	2.0.10.182	08-10-2015	2015-08-10 06:55:25	08:55:25	mezczyzna	2.0.10.92	3	2	1	1																							d	{SPACE}		no	BlockProc1		BlockList									51	Free	dl	color_red.png		-1	6	561864	310																			1					25	prime_left.png	0	561173	0	0	13	0	561173	0	561173	1	561173	20	0	-1	559674	561173	561172	0	prime_left.png	TrialProc1	right	0		1	10	561483	-561483		0	0	TrialList1	target_both.png	0	dl	-1	3	561223	260	l	635	561858												11	1	51				neut			300
1 ver1_main_procedure	4	1	19	<?xml version="1.0"?>\n<Clock xmlns:dt="urn:schemas-microsoft-com:datatypes"><Description dt:dt="string">E-Prime Primary Realtime Clock</Description><StartTime><Timestamp dt:dt="int">0</Timestamp><DateUtc dt:dt="string">2015-08-10T06:55:25Z</DateUtc></StartTime><FrequencyChanges><FrequencyChange><Frequency dt:dt="r8">2612324</Frequency><Timestamp dt:dt="r8">736092589</Timestamp><Current dt:dt="r8">0</Current><DateUtc dt:dt="string">2015-08-10T06:55:25Z</DateUtc></FrequencyChange></FrequencyChanges></Clock>\n	1 ver1_main_procedure-4-1	99.935	1.0.0.880	2	mo	736601032	lewa	1	2.0.10.182	08-10-2015	2015-08-10 06:55:25	08:55:25	mezczyzna	2.0.10.92	3	2	1	1																							d	{SPACE}		no	BlockProc1		BlockList									52	Free	dl	color_red.png		-1	13	564855	160																			2					75	prime_right.png	0	563985	0	0	13	0	563985	0	563985	1	563985	20	0	-1	562486	563985	563984	0	prime_right.png	TrialProc1	left	0		0	10	564295	-564295		0	0	TrialList1	target_both.png	0	dl	-1	3	564035	260	l	807	564842												8	1	52				neut			150
1 ver1_main_procedure	4	1	19	<?xml version="1.0"?>\n<Clock xmlns:dt="urn:schemas-microsoft-com:datatypes"><Description dt:dt="string">E-Prime Primary Realtime Clock</Description><StartTime><Timestamp dt:dt="int">0</Timestamp><DateUtc dt:dt="string">2015-08-10T06:55:25Z</DateUtc></StartTime><FrequencyChanges><FrequencyChange><Frequency dt:dt="r8">2612324</Frequency><Timestamp dt:dt="r8">736092589</Timestamp><Current dt:dt="r8">0</Current><DateUtc dt:dt="string">2015-08-10T06:55:25Z</DateUtc></FrequencyChange></FrequencyChanges></Clock>\n	1 ver1_main_procedure-4-1	99.935	1.0.0.880	2	mo	736601032	lewa	1	2.0.10.182	08-10-2015	2015-08-10 06:55:25	08:55:25	mezczyzna	2.0.10.92	3	2	1	1																							d	{SPACE}		no	BlockProc1		BlockList									53	Cued	d	color_green.png		-1	11	567197	310																			1					75	prime_left.png	0	566827	0	0	13	0	566827	0	566827	1	566827	20	0	-1	565328	566827	566826	0	prime_left.png	TrialProc1	left	0		0	10	567137	-567137		0	0	TrialList1	target_left.png	1	d	-1	3	566877	260	d	309	567186												2	1	53				neut			300
1 ver1_main_procedure	4	1	19	<?xml version="1.0"?>\n<Clock xmlns:dt="urn:schemas-microsoft-com:datatypes"><Description dt:dt="string">E-Prime Primary Realtime Clock</Description><StartTime><Timestamp dt:dt="int">0</Timestamp><DateUtc dt:dt="string">2015-08-10T06:55:25Z</DateUtc></StartTime><FrequencyChanges><FrequencyChange><Frequency dt:dt="r8">2612324</Frequency><Timestamp dt:dt="r8">736092589</Timestamp><Current dt:dt="r8">0</Current><DateUtc dt:dt="string">2015-08-10T06:55:25Z</DateUtc></FrequencyChange></FrequencyChanges></Clock>\n	1 ver1_main_procedure-4-1	99.935	1.0.0.880	2	mo	736601032	lewa	1	2.0.10.182	08-10-2015	2015-08-10 06:55:25	08:55:25	mezczyzna	2.0.10.92	3	2	1	1																							d	{SPACE}		no	BlockProc1		BlockList									54	Cued	l	color_red.png		-1	12	569918	461																			2					25	prime_right.png	0	569318	0	0	13	0	569318	0	569318	1	569318	20	0	-1	567819	569318	569317	0	prime_right.png	TrialProc1	right	0		0	10	569628	-569628		0	0	TrialList1	target_right.png	1	l	-1	3	569368	260	l	538	569906												5	1	54				neut			450
1 ver1_main_procedure	4	1	19	<?xml version="1.0"?>\n<Clock xmlns:dt="urn:schemas-microsoft-com:datatypes"><Description dt:dt="string">E-Prime Primary Realtime Clock</Description><StartTime><Timestamp dt:dt="int">0</Timestamp><DateUtc dt:dt="string">2015-08-10T06:55:25Z</DateUtc></StartTime><FrequencyChanges><FrequencyChange><Frequency dt:dt="r8">2612324</Frequency><Timestamp dt:dt="r8">736092589</Timestamp><Current dt:dt="r8">0</Current><DateUtc dt:dt="string">2015-08-10T06:55:25Z</DateUtc></FrequencyChange></FrequencyChanges></Clock>\n	1 ver1_main_procedure-4-1	99.935	1.0.0.880	2	mo	736601032	lewa	1	2.0.10.182	08-10-2015	2015-08-10 06:55:25	08:55:25	mezczyzna	2.0.10.92	3	2	1	1																							d	{SPACE}		no	BlockProc1		BlockList									55	Cued	l	color_orange.png		-1	10	572620	160																								25	prime_right.png	0	572190	0	0	13	0	572190	0	572190	1	572190	20	0	-1	570691	572190	572189	0		TrialProc1	right	0		0	10	572500	-572500		0	0	TrialList1	target_right.png	1	l	-1	3	572240	260	l	370	572610												4	1	55				comp			150
1 ver1_main_procedure	4	1	19	<?xml version="1.0"?>\n<Clock xmlns:dt="urn:schemas-microsoft-com:datatypes"><Description dt:dt="string">E-Prime Primary Realtime Clock</Description><StartTime><Timestamp dt:dt="int">0</Timestamp><DateUtc dt:dt="string">2015-08-10T06:55:25Z</DateUtc></StartTime><FrequencyChanges><FrequencyChange><Frequency dt:dt="r8">2612324</Frequency><Timestamp dt:dt="r8">736092589</Timestamp><Current dt:dt="r8">0</Current><DateUtc dt:dt="string">2015-08-10T06:55:25Z</DateUtc></FrequencyChange></FrequencyChanges></Clock>\n	1 ver1_main_procedure-4-1	99.935	1.0.0.880	2	mo	736601032	lewa	1	2.0.10.182	08-10-2015	2015-08-10 06:55:25	08:55:25	mezczyzna	2.0.10.92	3	2	1	1																							d	{SPACE}		no	BlockProc1		BlockList									56	Cued	l	color_purple.png		-1	9	575051	160																								25	prime_left.png	0	574591	0	0	13	0	574591	0	574591	1	574591	20	0	-1	573092	574591	574590	0		TrialProc1	right	0		0	10	574901	-574901		0	0	TrialList1	target_right.png	1	l	-1	3	574641	260	l	401	575042												6	1	56				incomp			150
1 ver1_main_procedure	4	1	19	<?xml version="1.0"?>\n<Clock xmlns:dt="urn:schemas-microsoft-com:datatypes"><Description dt:dt="string">E-Prime Primary Realtime Clock</Description><StartTime><Timestamp dt:dt="int">0</Timestamp><DateUtc dt:dt="string">2015-08-10T06:55:25Z</DateUtc></StartTime><FrequencyChanges><FrequencyChange><Frequency dt:dt="r8">2612324</Frequency><Timestamp dt:dt="r8">736092589</Timestamp><Current dt:dt="r8">0</Current><DateUtc dt:dt="string">2015-08-10T06:55:25Z</DateUtc></FrequencyChange></FrequencyChanges></Clock>\n	1 ver1_main_procedure-4-1	99.935	1.0.0.880	2	mo	736601032	lewa	1	2.0.10.182	08-10-2015	2015-08-10 06:55:25	08:55:25	mezczyzna	2.0.10.92	3	2	1	1																							d	{SPACE}		no	BlockProc1		BlockList									57	Free	dl	color_green.png		-1	11	577693	460																			1					25	prime_left.png	0	577023	0	0	13	0	577023	0	577023	1	577023	20	0	-1	575523	577023	577022	0	prime_left.png	TrialProc1	left	0		0	10	577333	-577333		0	0	TrialList1	target_both.png	0	dl	-1	3	577073	260	d	609	577682												8	1	57				neut			450
1 ver1_main_procedure	4	1	19	<?xml version="1.0"?>\n<Clock xmlns:dt="urn:schemas-microsoft-com:datatypes"><Description dt:dt="string">E-Prime Primary Realtime Clock</Description><StartTime><Timestamp dt:dt="int">0</Timestamp><DateUtc dt:dt="string">2015-08-10T06:55:25Z</DateUtc></StartTime><FrequencyChanges><FrequencyChange><Frequency dt:dt="r8">2612324</Frequency><Timestamp dt:dt="r8">736092589</Timestamp><Current dt:dt="r8">0</Current><DateUtc dt:dt="string">2015-08-10T06:55:25Z</DateUtc></FrequencyChange></FrequencyChanges></Clock>\n	1 ver1_main_procedure-4-1	99.935	1.0.0.880	2	mo	736601032	lewa	1	2.0.10.182	08-10-2015	2015-08-10 06:55:25	08:55:25	mezczyzna	2.0.10.92	3	2	1	1																							d	{SPACE}		no	BlockProc1		BlockList									58	Cued	l	color_red.png		-1	11	580445	310																			2					25	prime_right.png	0	579964	0	0	13	0	579965	0	579964	1	579964	20	0	-1	578465	579964	579963	0	prime_right.png	TrialProc1	right	0		1	10	580274	-580274		0	0	TrialList1	target_right.png	1	l	-1	3	580014	260	l	420	580434												5	1	58				neut			300
1 ver1_main_procedure	4	1	19	<?xml version="1.0"?>\n<Clock xmlns:dt="urn:schemas-microsoft-com:datatypes"><Description dt:dt="string">E-Prime Primary Realtime Clock</Description><StartTime><Timestamp dt:dt="int">0</Timestamp><DateUtc dt:dt="string">2015-08-10T06:55:25Z</DateUtc></StartTime><FrequencyChanges><FrequencyChange><Frequency dt:dt="r8">2612324</Frequency><Timestamp dt:dt="r8">736092589</Timestamp><Current dt:dt="r8">0</Current><DateUtc dt:dt="string">2015-08-10T06:55:25Z</DateUtc></FrequencyChange></FrequencyChanges></Clock>\n	1 ver1_main_procedure-4-1	99.935	1.0.0.880	2	mo	736601032	lewa	1	2.0.10.182	08-10-2015	2015-08-10 06:55:25	08:55:25	mezczyzna	2.0.10.92	3	2	1	1																							d	{SPACE}		no	BlockProc1		BlockList									59	Free	dl	color_blue.png		-1	7	583386	160																								25	prime_left.png	0	582566	0	0	13	0	582566	0	582566	1	582566	20	0	-1	581067	582566	582565	0		TrialProc1	left	0		0	10	582876	-582876		0	0	TrialList1	target_both.png	0	dl	-1	3	582616	260	d	762	583378												7	1	59				comp			150
1 ver1_main_procedure	4	1	19	<?xml version="1.0"?>\n<Clock xmlns:dt="urn:schemas-microsoft-com:datatypes"><Description dt:dt="string">E-Prime Primary Realtime Clock</Description><StartTime><Timestamp dt:dt="int">0</Timestamp><DateUtc dt:dt="string">2015-08-10T06:55:25Z</DateUtc></StartTime><FrequencyChanges><FrequencyChange><Frequency dt:dt="r8">2612324</Frequency><Timestamp dt:dt="r8">736092589</Timestamp><Current dt:dt="r8">0</Current><DateUtc dt:dt="string">2015-08-10T06:55:25Z</DateUtc></FrequencyChange></FrequencyChanges></Clock>\n	1 ver1_main_procedure-4-1	99.935	1.0.0.880	2	mo	736601032	lewa	1	2.0.10.182	08-10-2015	2015-08-10 06:55:25	08:55:25	mezczyzna	2.0.10.92	3	2	1	1																							d	{SPACE}		no	BlockProc1		BlockList									60	Cued	l	color_purple.png		-1	9	585868	310																								75	prime_left.png	0	585358	0	0	13	0	585358	0	585358	1	585358	20	0	-1	583858	585358	585357	0		TrialProc1	right	0		0	10	585668	-585668		0	0	TrialList1	target_right.png	1	l	-1	3	585408	260	l	450	585858												6	1	60				incomp			300
1 ver1_main_procedure	4	1	19	<?xml version="1.0"?>\n<Clock xmlns:dt="urn:schemas-microsoft-com:datatypes"><Description dt:dt="string">E-Prime Primary Realtime Clock</Description><StartTime><Timestamp dt:dt="int">0</Timestamp><DateUtc dt:dt="string">2015-08-10T06:55:25Z</DateUtc></StartTime><FrequencyChanges><FrequencyChange><Frequency dt:dt="r8">2612324</Frequency><Timestamp dt:dt="r8">736092589</Timestamp><Current dt:dt="r8">0</Current><DateUtc dt:dt="string">2015-08-10T06:55:25Z</DateUtc></FrequencyChange></FrequencyChanges></Clock>\n	1 ver1_main_procedure-4-1	99.935	1.0.0.880	2	mo	736601032	lewa	1	2.0.10.182	08-10-2015	2015-08-10 06:55:25	08:55:25	mezczyzna	2.0.10.92	3	2	1	1																							d	{SPACE}		no	BlockProc1		BlockList									61	Cued	l	color_red.png		-1	12	588559	160																			1					25	prime_left.png	0	587989	0	0	13	0	587989	0	587989	1	587989	20	0	-1	586490	587989	587988	0	prime_left.png	TrialProc1	right	0		0	10	588299	-588299		0	0	TrialList1	target_right.png	1	l	-1	3	588039	260	l	507	588546												5	1	61				neut			150
1 ver1_main_procedure	4	1	19	<?xml version="1.0"?>\n<Clock xmlns:dt="urn:schemas-microsoft-com:datatypes"><Description dt:dt="string">E-Prime Primary Realtime Clock</Description><StartTime><Timestamp dt:dt="int">0</Timestamp><DateUtc dt:dt="string">2015-08-10T06:55:25Z</DateUtc></StartTime><FrequencyChanges><FrequencyChange><Frequency dt:dt="r8">2612324</Frequency><Timestamp dt:dt="r8">736092589</Timestamp><Current dt:dt="r8">0</Current><DateUtc dt:dt="string">2015-08-10T06:55:25Z</DateUtc></FrequencyChange></FrequencyChanges></Clock>\n	1 ver1_main_procedure-4-1	99.935	1.0.0.880	2	mo	736601032	lewa	1	2.0.10.182	08-10-2015	2015-08-10 06:55:25	08:55:25	mezczyzna	2.0.10.92	3	2	1	1																							d	{SPACE}		no	BlockProc1		BlockList									62	Cued	l	color_purple.png		-1	10	591061	460																								25	prime_left.png	1	590531	0	0	13	1	590531	1	590531	0	590530	20	0	-1	589031	590530	590530	0		TrialProc1	right	0		0	10	590841	-590841		0	0	TrialList1	target_right.png	1	l	-1	4	590581	260	l	469	591050												6	1	62				incomp			450
1 ver1_main_procedure	4	1	19	<?xml version="1.0"?>\n<Clock xmlns:dt="urn:schemas-microsoft-com:datatypes"><Description dt:dt="string">E-Prime Primary Realtime Clock</Description><StartTime><Timestamp dt:dt="int">0</Timestamp><DateUtc dt:dt="string">2015-08-10T06:55:25Z</DateUtc></StartTime><FrequencyChanges><FrequencyChange><Frequency dt:dt="r8">2612324</Frequency><Timestamp dt:dt="r8">736092589</Timestamp><Current dt:dt="r8">0</Current><DateUtc dt:dt="string">2015-08-10T06:55:25Z</DateUtc></FrequencyChange></FrequencyChanges></Clock>\n	1 ver1_main_procedure-4-1	99.935	1.0.0.880	2	mo	736601032	lewa	1	2.0.10.182	08-10-2015	2015-08-10 06:55:25	08:55:25	mezczyzna	2.0.10.92	3	2	1	1																							d	{SPACE}		no	BlockProc1		BlockList									63	Cued	d	color_blue.png		-1	13	593712	160																								75	prime_left.png	0	593332	0	0	13	0	593332	0	593332	1	593332	20	0	-1	591833	593332	593331	0		TrialProc1	left	0		0	10	593642	-593642		0	0	TrialList1	target_left.png	1	d	-1	3	593382	260	d	316	593698												1	1	63				comp			150
1 ver1_main_procedure	4	1	19	<?xml version="1.0"?>\n<Clock xmlns:dt="urn:schemas-microsoft-com:datatypes"><Description dt:dt="string">E-Prime Primary Realtime Clock</Description><StartTime><Timestamp dt:dt="int">0</Timestamp><DateUtc dt:dt="string">2015-08-10T06:55:25Z</DateUtc></StartTime><FrequencyChanges><FrequencyChange><Frequency dt:dt="r8">2612324</Frequency><Timestamp dt:dt="r8">736092589</Timestamp><Current dt:dt="r8">0</Current><DateUtc dt:dt="string">2015-08-10T06:55:25Z</DateUtc></FrequencyChange></FrequencyChanges></Clock>\n	1 ver1_main_procedure-4-1	99.935	1.0.0.880	2	mo	736601032	lewa	1	2.0.10.182	08-10-2015	2015-08-10 06:55:25	08:55:25	mezczyzna	2.0.10.92	3	2	1	1																							d	{SPACE}		no	BlockProc1		BlockList									64	Free	dl	color_yellow.png		-1	9	596484	160																								25	prime_right.png	0	595684	0	0	13	0	595684	0	595684	1	595684	20	0	-1	594184	595684	595683	0		TrialProc1	right	0		0	10	595994	-595994		0	0	TrialList1	target_both.png	0	dl	-1	3	595734	260	d	740	596474												10	1	64				comp			150
1 ver1_main_procedure	4	1	19	<?xml version="1.0"?>\n<Clock xmlns:dt="urn:schemas-microsoft-com:datatypes"><Description dt:dt="string">E-Prime Primary Realtime Clock</Description><StartTime><Timestamp dt:dt="int">0</Timestamp><DateUtc dt:dt="string">2015-08-10T06:55:25Z</DateUtc></StartTime><FrequencyChanges><FrequencyChange><Frequency dt:dt="r8">2612324</Frequency><Timestamp dt:dt="r8">736092589</Timestamp><Current dt:dt="r8">0</Current><DateUtc dt:dt="string">2015-08-10T06:55:25Z</DateUtc></FrequencyChange></FrequencyChanges></Clock>\n	1 ver1_main_procedure-4-1	99.935	1.0.0.880	2	mo	736601032	lewa	1	2.0.10.182	08-10-2015	2015-08-10 06:55:25	08:55:25	mezczyzna	2.0.10.92	3	2	1	1																							d	{SPACE}		no	BlockProc1		BlockList									65	Cued	l	color_orange.png		-1	12	598935	461																								25	prime_right.png	0	598455	0	0	13	0	598455	0	598455	1	598455	20	0	-1	596956	598455	598454	0		TrialProc1	right	0		0	10	598765	-598765		0	0	TrialList1	target_right.png	1	l	-1	3	598505	260	l	417	598922												4	1	65				comp			450
1 ver1_main_procedure	4	1	19	<?xml version="1.0"?>\n<Clock xmlns:dt="urn:schemas-microsoft-com:datatypes"><Description dt:dt="string">E-Prime Primary Realtime Clock</Description><StartTime><Timestamp dt:dt="int">0</Timestamp><DateUtc dt:dt="string">2015-08-10T06:55:25Z</DateUtc></StartTime><FrequencyChanges><FrequencyChange><Frequency dt:dt="r8">2612324</Frequency><Timestamp dt:dt="r8">736092589</Timestamp><Current dt:dt="r8">0</Current><DateUtc dt:dt="string">2015-08-10T06:55:25Z</DateUtc></FrequencyChange></FrequencyChanges></Clock>\n	1 ver1_main_procedure-4-1	99.935	1.0.0.880	2	mo	736601032	lewa	1	2.0.10.182	08-10-2015	2015-08-10 06:55:25	08:55:25	mezczyzna	2.0.10.92	3	2	1	1																							d	{SPACE}		no	BlockProc1		BlockList									66	Cued	l	color_orange.png		-1	6	601657	160																								25	prime_right.png	0	601207	0	0	13	0	601207	0	601207	1	601207	20	0	-1	599708	601207	601206	0		TrialProc1	right	0		0	10	601517	-601517		0	0	TrialList1	target_right.png	1	l	-1	3	601257	260	l	393	601650												4	1	66				comp			150
1 ver1_main_procedure	4	1	19	<?xml version="1.0"?>\n<Clock xmlns:dt="urn:schemas-microsoft-com:datatypes"><Description dt:dt="string">E-Prime Primary Realtime Clock</Description><StartTime><Timestamp dt:dt="int">0</Timestamp><DateUtc dt:dt="string">2015-08-10T06:55:25Z</DateUtc></StartTime><FrequencyChanges><FrequencyChange><Frequency dt:dt="r8">2612324</Frequency><Timestamp dt:dt="r8">736092589</Timestamp><Current dt:dt="r8">0</Current><DateUtc dt:dt="string">2015-08-10T06:55:25Z</DateUtc></FrequencyChange></FrequencyChanges></Clock>\n	1 ver1_main_procedure-4-1	99.935	1.0.0.880	2	mo	736601032	lewa	1	2.0.10.182	08-10-2015	2015-08-10 06:55:25	08:55:25	mezczyzna	2.0.10.92	3	2	1	1																							d	{SPACE}		no	BlockProc1		BlockList									67	Cued	d	color_green.png		-1	9	604148	161																			2					25	prime_right.png	0	603628	0	0	13	0	603628	0	603628	1	603628	20	0	-1	602129	603628	603627	0	prime_right.png	TrialProc1	left	0		1	10	603938	-603938		0	0	TrialList1	target_left.png	1	d	-1	3	603678	260	d	460	604138												2	1	67				neut			150
1 ver1_main_procedure	4	1	19	<?xml version="1.0"?>\n<Clock xmlns:dt="urn:schemas-microsoft-com:datatypes"><Description dt:dt="string">E-Prime Primary Realtime Clock</Description><StartTime><Timestamp dt:dt="int">0</Timestamp><DateUtc dt:dt="string">2015-08-10T06:55:25Z</DateUtc></StartTime><FrequencyChanges><FrequencyChange><Frequency dt:dt="r8">2612324</Frequency><Timestamp dt:dt="r8">736092589</Timestamp><Current dt:dt="r8">0</Current><DateUtc dt:dt="string">2015-08-10T06:55:25Z</DateUtc></FrequencyChange></FrequencyChanges></Clock>\n	1 ver1_main_procedure-4-1	99.935	1.0.0.880	2	mo	736601032	lewa	1	2.0.10.182	08-10-2015	2015-08-10 06:55:25	08:55:25	mezczyzna	2.0.10.92	3	2	1	1																							d	{SPACE}		no	BlockProc1		BlockList									68	Cued	d	color_yellow.png		-1	5	606640	310																								25	prime_right.png	0	606120	0	0	13	0	606120	0	606120	1	606120	20	0	-1	604620	606120	606119	0		TrialProc1	left	0		0	10	606430	-606430		0	0	TrialList1	target_left.png	1	d	-1	3	606170	260	d	464	606634												3	1	68				incomp			300
1 ver1_main_procedure	4	1	19	<?xml version="1.0"?>\n<Clock xmlns:dt="urn:schemas-microsoft-com:datatypes"><Description dt:dt="string">E-Prime Primary Realtime Clock</Description><StartTime><Timestamp dt:dt="int">0</Timestamp><DateUtc dt:dt="string">2015-08-10T06:55:25Z</DateUtc></StartTime><FrequencyChanges><FrequencyChange><Frequency dt:dt="r8">2612324</Frequency><Timestamp dt:dt="r8">736092589</Timestamp><Current dt:dt="r8">0</Current><DateUtc dt:dt="string">2015-08-10T06:55:25Z</DateUtc></FrequencyChange></FrequencyChanges></Clock>\n	1 ver1_main_procedure-4-1	99.935	1.0.0.880	2	mo	736601032	lewa	1	2.0.10.182	08-10-2015	2015-08-10 06:55:25	08:55:25	mezczyzna	2.0.10.92	3	2	1	1																							d	{SPACE}		no	BlockProc1		BlockList									69	Cued	l	color_purple.png		-1	10	609221	161																								25	prime_left.png	0	608761	0	0	13	0	608762	0	608761	1	608761	20	0	-1	607262	608761	608760	0		TrialProc1	right	0		1	10	609071	-609071		0	0	TrialList1	target_right.png	1	l	-1	3	608811	260	l	399	609210												6	1	69				incomp			150
1 ver1_main_procedure	4	1	19	<?xml version="1.0"?>\n<Clock xmlns:dt="urn:schemas-microsoft-com:datatypes"><Description dt:dt="string">E-Prime Primary Realtime Clock</Description><StartTime><Timestamp dt:dt="int">0</Timestamp><DateUtc dt:dt="string">2015-08-10T06:55:25Z</DateUtc></StartTime><FrequencyChanges><FrequencyChange><Frequency dt:dt="r8">2612324</Frequency><Timestamp dt:dt="r8">736092589</Timestamp><Current dt:dt="r8">0</Current><DateUtc dt:dt="string">2015-08-10T06:55:25Z</DateUtc></FrequencyChange></FrequencyChanges></Clock>\n	1 ver1_main_procedure-4-1	99.935	1.0.0.880	2	mo	736601032	lewa	1	2.0.10.182	08-10-2015	2015-08-10 06:55:25	08:55:25	mezczyzna	2.0.10.92	3	2	1	1																							d	{SPACE}		no	BlockProc1		BlockList									70	Cued	l	color_orange.png		-1	14	611593	160																								25	prime_right.png	0	611193	0	0	13	0	611193	0	611193	1	611193	20	0	-1	609694	611193	611192	0		TrialProc1	right	0		0	10	611503	-611503		0	0	TrialList1	target_right.png	1	l	-1	3	611243	260	l	335	611578												4	1	70				comp			150
1 ver1_main_procedure	4	1	19	<?xml version="1.0"?>\n<Clock xmlns:dt="urn:schemas-microsoft-com:datatypes"><Description dt:dt="string">E-Prime Primary Realtime Clock</Description><StartTime><Timestamp dt:dt="int">0</Timestamp><DateUtc dt:dt="string">2015-08-10T06:55:25Z</DateUtc></StartTime><FrequencyChanges><FrequencyChange><Frequency dt:dt="r8">2612324</Frequency><Timestamp dt:dt="r8">736092589</Timestamp><Current dt:dt="r8">0</Current><DateUtc dt:dt="string">2015-08-10T06:55:25Z</DateUtc></FrequencyChange></FrequencyChanges></Clock>\n	1 ver1_main_procedure-4-1	99.935	1.0.0.880	2	mo	736601032	lewa	1	2.0.10.182	08-10-2015	2015-08-10 06:55:25	08:55:25	mezczyzna	2.0.10.92	3	2	1	1																							d	{SPACE}		no	BlockProc1		BlockList									71	Cued	d	color_green.png		-1	11	613934	160																			1					25	prime_left.png	0	613564	0	0	13	0	613564	0	613564	1	613564	20	0	-1	612065	613564	613563	0	prime_left.png	TrialProc1	left	0		0	10	613874	-613874		0	0	TrialList1	target_left.png	1	d	-1	3	613614	260	d	308	613922												2	1	71				neut			150
1 ver1_main_procedure	4	1	19	<?xml version="1.0"?>\n<Clock xmlns:dt="urn:schemas-microsoft-com:datatypes"><Description dt:dt="string">E-Prime Primary Realtime Clock</Description><StartTime><Timestamp dt:dt="int">0</Timestamp><DateUtc dt:dt="string">2015-08-10T06:55:25Z</DateUtc></StartTime><FrequencyChanges><FrequencyChange><Frequency dt:dt="r8">2612324</Frequency><Timestamp dt:dt="r8">736092589</Timestamp><Current dt:dt="r8">0</Current><DateUtc dt:dt="string">2015-08-10T06:55:25Z</DateUtc></FrequencyChange></FrequencyChanges></Clock>\n	1 ver1_main_procedure-4-1	99.935	1.0.0.880	2	mo	736601032	lewa	1	2.0.10.182	08-10-2015	2015-08-10 06:55:25	08:55:25	mezczyzna	2.0.10.92	3	2	1	1																							d	{SPACE}		no	BlockProc1		BlockList									72	Cued	l	color_orange.png		-1	11	616326	160																								25	prime_right.png	0	615905	0	0	13	1	615906	1	615906	0	615905	20	0	-1	614406	615905	615905	0		TrialProc1	right	0		0	11	616216	-616216		0	0	TrialList1	target_right.png	1	l	-1	3	615955	261	l	359	616314												4	1	72				comp			150
1 ver1_main_procedure	4	1	19	<?xml version="1.0"?>\n<Clock xmlns:dt="urn:schemas-microsoft-com:datatypes"><Description dt:dt="string">E-Prime Primary Realtime Clock</Description><StartTime><Timestamp dt:dt="int">0</Timestamp><DateUtc dt:dt="string">2015-08-10T06:55:25Z</DateUtc></StartTime><FrequencyChanges><FrequencyChange><Frequency dt:dt="r8">2612324</Frequency><Timestamp dt:dt="r8">736092589</Timestamp><Current dt:dt="r8">0</Current><DateUtc dt:dt="string">2015-08-10T06:55:25Z</DateUtc></FrequencyChange></FrequencyChanges></Clock>\n	1 ver1_main_procedure-4-1	99.935	1.0.0.880	2	mo	736601032	lewa	1	2.0.10.182	08-10-2015	2015-08-10 06:55:25	08:55:25	mezczyzna	2.0.10.92	3	2	1	1																							d	{SPACE}		no	BlockProc1		BlockList									73									2	6	5	1	4	3	color_orange.png	color_blue.png	color_yellow.png	color_purple.png	color_green.png	color_red.png	color_purple.png	color_orange.png	color_red.png	color_green.png	color_yellow.png	color_blue.png		1	1	1	56991																						DragProc											Ocena																															
1 ver1_main_procedure	4	1	19	<?xml version="1.0"?>\n<Clock xmlns:dt="urn:schemas-microsoft-com:datatypes"><Description dt:dt="string">E-Prime Primary Realtime Clock</Description><StartTime><Timestamp dt:dt="int">0</Timestamp><DateUtc dt:dt="string">2015-08-10T06:55:25Z</DateUtc></StartTime><FrequencyChanges><FrequencyChange><Frequency dt:dt="r8">2612324</Frequency><Timestamp dt:dt="r8">736092589</Timestamp><Current dt:dt="r8">0</Current><DateUtc dt:dt="string">2015-08-10T06:55:25Z</DateUtc></FrequencyChange></FrequencyChanges></Clock>\n	1 ver1_main_procedure-4-1	99.935	1.0.0.880	2	mo	736601032	lewa	1	2.0.10.182	08-10-2015	2015-08-10 06:55:25	08:55:25	mezczyzna	2.0.10.92	3	2	1	1																							d	{SPACE}		no	BlockProc1		BlockList									74															color_orange.png	color_blue.png	color_yellow.png	color_purple.png	color_green.png	color_red.png								2	1	2																							EnterProc											Ocena												10	20	50	60	85	90														
1 ver1_main_procedure	4	1	19	<?xml version="1.0"?>\n<Clock xmlns:dt="urn:schemas-microsoft-com:datatypes"><Description dt:dt="string">E-Prime Primary Realtime Clock</Description><StartTime><Timestamp dt:dt="int">0</Timestamp><DateUtc dt:dt="string">2015-08-10T06:55:25Z</DateUtc></StartTime><FrequencyChanges><FrequencyChange><Frequency dt:dt="r8">2612324</Frequency><Timestamp dt:dt="r8">736092589</Timestamp><Current dt:dt="r8">0</Current><DateUtc dt:dt="string">2015-08-10T06:55:25Z</DateUtc></FrequencyChange></FrequencyChanges></Clock>\n	1 ver1_main_procedure-4-1	99.935	1.0.0.880	2	mo	736601032	lewa	1	2.0.10.182	08-10-2015	2015-08-10 06:55:25	08:55:25	mezczyzna	2.0.10.92	4	5	1	2																							d	{SPACE}		no	BlockProc2		BlockList									1	Free	dl	color_green.png		-1	14	925397	311																								75	prime_left.png	0	924437	0	0	13	0	924437	0	924437	1	924437	20	0	-1	922938	924437	924436	0		TrialProc1	right	0		0	10	924747	-924747		0	0	TrialList2	target_both.png	0	dl	-1	3	924487	260	d	895	925382															12	1	1	incomp			300
1 ver1_main_procedure	4	1	19	<?xml version="1.0"?>\n<Clock xmlns:dt="urn:schemas-microsoft-com:datatypes"><Description dt:dt="string">E-Prime Primary Realtime Clock</Description><StartTime><Timestamp dt:dt="int">0</Timestamp><DateUtc dt:dt="string">2015-08-10T06:55:25Z</DateUtc></StartTime><FrequencyChanges><FrequencyChange><Frequency dt:dt="r8">2612324</Frequency><Timestamp dt:dt="r8">736092589</Timestamp><Current dt:dt="r8">0</Current><DateUtc dt:dt="string">2015-08-10T06:55:25Z</DateUtc></FrequencyChange></FrequencyChanges></Clock>\n	1 ver1_main_procedure-4-1	99.935	1.0.0.880	2	mo	736601032	lewa	1	2.0.10.182	08-10-2015	2015-08-10 06:55:25	08:55:25	mezczyzna	2.0.10.92	4	5	1	2																							d	{SPACE}		no	BlockProc2		BlockList									2	Cued	d	color_green.png		-1	8	928159	310																								75	prime_left.png	0	927519	0	0	13	0	927519	0	927519	1	927519	20	0	-1	926019	927519	927518	0		TrialProc1	left	0		0	10	927829	-927829		0	0	TrialList2	target_left.png	1	d	-1	3	927569	260	d	581	928150															1	1	2	comp			300
1 ver1_main_procedure	4	1	19	<?xml version="1.0"?>\n<Clock xmlns:dt="urn:schemas-microsoft-com:datatypes"><Description dt:dt="string">E-Prime Primary Realtime Clock</Description><StartTime><Timestamp dt:dt="int">0</Timestamp><DateUtc dt:dt="string">2015-08-10T06:55:25Z</DateUtc></StartTime><FrequencyChanges><FrequencyChange><Frequency dt:dt="r8">2612324</Frequency><Timestamp dt:dt="r8">736092589</Timestamp><Current dt:dt="r8">0</Current><DateUtc dt:dt="string">2015-08-10T06:55:25Z</DateUtc></FrequencyChange></FrequencyChanges></Clock>\n	1 ver1_main_procedure-4-1	99.935	1.0.0.880	2	mo	736601032	lewa	1	2.0.10.182	08-10-2015	2015-08-10 06:55:25	08:55:25	mezczyzna	2.0.10.92	4	5	1	2																							d	{SPACE}		no	BlockProc2		BlockList									3	Free	dl	color_purple.png		-1	14	930981	160																								75	prime_right.png	0	930280	0	0	13	0	930280	0	930280	1	930280	20	0	-1	928781	930280	930279	0		TrialProc1	left	0		1	10	930590	-930590		0	0	TrialList2	target_both.png	0	dl	-1	3	930330	260	l	636	930966															9	1	3	incomp			150
1 ver1_main_procedure	4	1	19	<?xml version="1.0"?>\n<Clock xmlns:dt="urn:schemas-microsoft-com:datatypes"><Description dt:dt="string">E-Prime Primary Realtime Clock</Description><StartTime><Timestamp dt:dt="int">0</Timestamp><DateUtc dt:dt="string">2015-08-10T06:55:25Z</DateUtc></StartTime><FrequencyChanges><FrequencyChange><Frequency dt:dt="r8">2612324</Frequency><Timestamp dt:dt="r8">736092589</Timestamp><Current dt:dt="r8">0</Current><DateUtc dt:dt="string">2015-08-10T06:55:25Z</DateUtc></FrequencyChange></FrequencyChanges></Clock>\n	1 ver1_main_procedure-4-1	99.935	1.0.0.880	2	mo	736601032	lewa	1	2.0.10.182	08-10-2015	2015-08-10 06:55:25	08:55:25	mezczyzna	2.0.10.92	4	5	1	2																							d	{SPACE}		no	BlockProc2		BlockList									4	Free	dl	color_orange.png		-1	12	934363	460																			2					25	prime_right.png	0	932952	0	0	13	0	932952	0	932952	1	932952	20	0	-1	931453	932952	932951	0	prime_right.png	TrialProc1	left	0		0	10	933262	-933262		0	0	TrialList2	target_both.png	0	dl	-1	3	933002	260	d	1348	934350															8	1	4	neut			450
1 ver1_main_procedure	4	1	19	<?xml version="1.0"?>\n<Clock xmlns:dt="urn:schemas-microsoft-com:datatypes"><Description dt:dt="string">E-Prime Primary Realtime Clock</Description><StartTime><Timestamp dt:dt="int">0</Timestamp><DateUtc dt:dt="string">2015-08-10T06:55:25Z</DateUtc></StartTime><FrequencyChanges><FrequencyChange><Frequency dt:dt="r8">2612324</Frequency><Timestamp dt:dt="r8">736092589</Timestamp><Current dt:dt="r8">0</Current><DateUtc dt:dt="string">2015-08-10T06:55:25Z</DateUtc></FrequencyChange></FrequencyChanges></Clock>\n	1 ver1_main_procedure-4-1	99.935	1.0.0.880	2	mo	736601032	lewa	1	2.0.10.182	08-10-2015	2015-08-10 06:55:25	08:55:25	mezczyzna	2.0.10.92	4	5	1	2																							d	{SPACE}		no	BlockProc2		BlockList									5	Free	dl	color_orange.png		-1	5	937524	311																			1					25	prime_left.png	0	936634	0	0	13	0	936634	0	936634	1	936634	20	0	-1	935135	936634	936633	0	prime_left.png	TrialProc1	right	0		0	10	936944	-936944		0	0	TrialList2	target_both.png	0	dl	-1	3	936684	260	d	834	937518															11	1	5	neut			300
1 ver1_main_procedure	4	1	19	<?xml version="1.0"?>\n<Clock xmlns:dt="urn:schemas-microsoft-com:datatypes"><Description dt:dt="string">E-Prime Primary Realtime Clock</Description><StartTime><Timestamp dt:dt="int">0</Timestamp><DateUtc dt:dt="string">2015-08-10T06:55:25Z</DateUtc></StartTime><FrequencyChanges><FrequencyChange><Frequency dt:dt="r8">2612324</Frequency><Timestamp dt:dt="r8">736092589</Timestamp><Current dt:dt="r8">0</Current><DateUtc dt:dt="string">2015-08-10T06:55:25Z</DateUtc></FrequencyChange></FrequencyChanges></Clock>\n	1 ver1_main_procedure-4-1	99.935	1.0.0.880	2	mo	736601032	lewa	1	2.0.10.182	08-10-2015	2015-08-10 06:55:25	08:55:25	mezczyzna	2.0.10.92	4	5	1	2																							d	{SPACE}		no	BlockProc2		BlockList									6	Free	dl	color_red.png		-1	11	940706	161																								25	prime_left.png	0	939646	0	0	13	0	939646	0	939646	1	939646	20	0	-1	938146	939646	939645	0		TrialProc1	left	0		0	10	939956	-939956		0	0	TrialList2	target_both.png	0	dl	-1	3	939696	260	l	998	940694															7	1	6	comp			150
1 ver1_main_procedure	4	1	19	<?xml version="1.0"?>\n<Clock xmlns:dt="urn:schemas-microsoft-com:datatypes"><Description dt:dt="string">E-Prime Primary Realtime Clock</Description><StartTime><Timestamp dt:dt="int">0</Timestamp><DateUtc dt:dt="string">2015-08-10T06:55:25Z</DateUtc></StartTime><FrequencyChanges><FrequencyChange><Frequency dt:dt="r8">2612324</Frequency><Timestamp dt:dt="r8">736092589</Timestamp><Current dt:dt="r8">0</Current><DateUtc dt:dt="string">2015-08-10T06:55:25Z</DateUtc></FrequencyChange></FrequencyChanges></Clock>\n	1 ver1_main_procedure-4-1	99.935	1.0.0.880	2	mo	736601032	lewa	1	2.0.10.182	08-10-2015	2015-08-10 06:55:25	08:55:25	mezczyzna	2.0.10.92	4	5	1	2																							d	{SPACE}		no	BlockProc2		BlockList									7	Free	dl	color_yellow.png		-1	5	943828	461																			2					25	prime_right.png	1	942678	0	0	13	1	942678	1	942678	0	942677	20	0	-1	941178	942677	942677	0	prime_right.png	TrialProc1	left	0		0	11	942988	-942988		0	0	TrialList2	target_both.png	0	dl	-1	3	942727	261	l	1095	943822															8	1	7	neut			450
1 ver1_main_procedure	4	1	19	<?xml version="1.0"?>\n<Clock xmlns:dt="urn:schemas-microsoft-com:datatypes"><Description dt:dt="string">E-Prime Primary Realtime Clock</Description><StartTime><Timestamp dt:dt="int">0</Timestamp><DateUtc dt:dt="string">2015-08-10T06:55:25Z</DateUtc></StartTime><FrequencyChanges><FrequencyChange><Frequency dt:dt="r8">2612324</Frequency><Timestamp dt:dt="r8">736092589</Timestamp><Current dt:dt="r8">0</Current><DateUtc dt:dt="string">2015-08-10T06:55:25Z</DateUtc></FrequencyChange></FrequencyChanges></Clock>\n	1 ver1_main_procedure-4-1	99.935	1.0.0.880	2	mo	736601032	lewa	1	2.0.10.182	08-10-2015	2015-08-10 06:55:25	08:55:25	mezczyzna	2.0.10.92	4	5	1	2																							d	{SPACE}		no	BlockProc2		BlockList									8	Cued	d	color_green.png		-1	11	946690	460																								75	prime_left.png	1	946100	0	0	13	1	946100	1	946100	0	946099	21	0	-1	944600	946099	946099	0		TrialProc1	left	0		0	10	946410	-946410		0	0	TrialList2	target_left.png	1	d	-1	3	946150	260	d	528	946678															1	1	8	comp			450
1 ver1_main_procedure	4	1	19	<?xml version="1.0"?>\n<Clock xmlns:dt="urn:schemas-microsoft-com:datatypes"><Description dt:dt="string">E-Prime Primary Realtime Clock</Description><StartTime><Timestamp dt:dt="int">0</Timestamp><DateUtc dt:dt="string">2015-08-10T06:55:25Z</DateUtc></StartTime><FrequencyChanges><FrequencyChange><Frequency dt:dt="r8">2612324</Frequency><Timestamp dt:dt="r8">736092589</Timestamp><Current dt:dt="r8">0</Current><DateUtc dt:dt="string">2015-08-10T06:55:25Z</DateUtc></FrequencyChange></FrequencyChanges></Clock>\n	1 ver1_main_procedure-4-1	99.935	1.0.0.880	2	mo	736601032	lewa	1	2.0.10.182	08-10-2015	2015-08-10 06:55:25	08:55:25	mezczyzna	2.0.10.92	4	5	1	2																							d	{SPACE}		no	BlockProc2		BlockList									9	Cued	l	color_red.png		-1	6	949421	311																								25	prime_left.png	0	948961	0	0	13	0	948961	0	948961	1	948961	20	0	-1	947462	948961	948960	0		TrialProc1	right	0		1	10	949271	-949271		0	0	TrialList2	target_right.png	1	l	-1	3	949011	260	l	403	949414															6	1	9	incomp			300
1 ver1_main_procedure	4	1	19	<?xml version="1.0"?>\n<Clock xmlns:dt="urn:schemas-microsoft-com:datatypes"><Description dt:dt="string">E-Prime Primary Realtime Clock</Description><StartTime><Timestamp dt:dt="int">0</Timestamp><DateUtc dt:dt="string">2015-08-10T06:55:25Z</DateUtc></StartTime><FrequencyChanges><FrequencyChange><Frequency dt:dt="r8">2612324</Frequency><Timestamp dt:dt="r8">736092589</Timestamp><Current dt:dt="r8">0</Current><DateUtc dt:dt="string">2015-08-10T06:55:25Z</DateUtc></FrequencyChange></FrequencyChanges></Clock>\n	1 ver1_main_procedure-4-1	99.935	1.0.0.880	2	mo	736601032	lewa	1	2.0.10.182	08-10-2015	2015-08-10 06:55:25	08:55:25	mezczyzna	2.0.10.92	4	5	1	2																							d	{SPACE}		no	BlockProc2		BlockList									10	Cued	l	color_purple.png		-1	10	951953	460																								25	prime_right.png	0	951543	0	0	13	0	951543	0	951543	1	951543	20	0	-1	950044	951543	951542	0		TrialProc1	right	0		0	10	951853	-951853		0	0	TrialList2	target_right.png	1	l	-1	3	951593	260	l	349	951942															4	1	10	comp			450
