ExperimentName	Subject	Session	Age	Clock.Information	DataFile.Basename	Display.RefreshRate	ExperimentVersion	Group	Name	RandomSeed	Recznosc	ResearcherID	RuntimeVersion	SessionDate	SessionStartDateTimeUtc	SessionTime	Sex	StudioVersion	Block	BlockList	BlockList.Cycle	BlockList.Sample	BlockNumber	GoodBye.RESP	GoodBye2.RESP	GoodByeList	GoodByeList.Cycle	GoodByeList.Sample	InstrList	InstrList.Cycle	InstrList.Sample	Instructions3.RESP	Instructions4.RESP	Instructions5.RESP	kobieta_S1	kobieta_S2	kobieta_S3	kobieta_S4	kobieta_S5	mezczyzna_S1	mezczyzna_S2	mezczyzna_S3	mezczyzna_S4	mezczyzna_S5	NextBlock.RESP	NextBlock0.RESP	planowanie	PracticeMode	Procedure[Block]	proszenie	Running[Block]	TrainingList	TrainingList.Cycle	TrainingList.Sample	WordList	WordList1	wykonanie	zauwazenie	zrozumienie	Trial	ChoiceType	CorrectRespon	Effect	ErrorText	Fixation2.DurationError	Fixation2.OnsetDelay	Fixation2.OnsetTime	Fixation2.OnsetToOnsetTime	GoalRespInd1	GoalRespInd2	GoalRespInd3	GoalRespInd4	GoalRespInd5	GoalRespInd6	GoalRespName1	GoalRespName2	GoalRespName3	GoalRespName4	GoalRespName5	GoalRespName6	kol1	kol2	kol3	kol4	kol5	kol6	NeutralPrimeList1	Ocena	Ocena.Cycle	Ocena.Sample	OverallRT	Posit	Prime	Prime.ActionDelay	Prime.ActionTime	Prime.CustomOffsetTime	Prime.CustomOnsetTime	Prime.Duration	Prime.DurationError	Prime.FinishTime	Prime.OffsetDelay	Prime.OffsetTime	Prime.OnsetDelay	Prime.OnsetTime	Prime.OnsetToOnsetTime	Prime.PendingInputMasks	Prime.PreRelease	Prime.StartTime	Prime.TargetOffsetTime	Prime.TargetOnsetTime	Prime.TimingMode	PrimeChoice	Procedure[Trial]	Resp	RespWin.ACC	RespWin.CRESP	RespWin.DurationError	RespWin.OnsetDelay	RespWin.OnsetTime	RespWin.OnsetToOnsetTime	RespWin.RESP	RespWin.RT	RespWin.RTTime	Running[Trial]	Target	TargetSlide.ACC	TargetSlide.CRESP	TargetSlide.DurationError	TargetSlide.OnsetDelay	TargetSlide.OnsetTime	TargetSlide.OnsetToOnsetTime	TargetSlide.RESP	TargetSlide.RT	TargetSlide.RTTime	TargetTraining	TBox1	TBox2	TBox3	TBox4	TBox5	TBox6	TrainingList1	TrainingList1.Cycle	TrainingList1.Sample	TrCorrectResp	TrialList1	TrialList1.Cycle	TrialList1.Sample	TrialList2	TrialList2.Cycle	TrialList2.Sample	TrialType	TrPosit	TrWaitTime	WaitTime
1 ver1_main_procedure	5	1	19	<?xml version="1.0"?>\n<Clock xmlns:dt="urn:schemas-microsoft-com:datatypes"><Description dt:dt="string">E-Prime Primary Realtime Clock</Description><StartTime><Timestamp dt:dt="int">0</Timestamp><DateUtc dt:dt="string">2015-08-10T07:54:23Z</DateUtc></StartTime><FrequencyChanges><FrequencyChange><Frequency dt:dt="r8">2612324</Frequency><Timestamp dt:dt="r8">9979341768</Timestamp><Current dt:dt="r8">0</Current><DateUtc dt:dt="string">2015-08-10T07:54:23Z</DateUtc></FrequencyChange></FrequencyChanges></Clock>\n	1 ver1_main_procedure-5-1	99.938	1.0.0.880	1	ms	1389899683	lewa	1	2.0.10.182	08-10-2015	2015-08-10 07:54:23	09:54:23	mezczyzna	2.0.10.92	1										1	1	1	{SPACE}	{SPACE}	d	poproszona	planowała	zrozumiałaś	wykonała		poproszony	planował	zrozumiałeś	wykonał				planował		InstrProc	poproszony	InstrList				1		wykonał		zrozumiałeś																																																																																																
1 ver1_main_procedure	5	1	19	<?xml version="1.0"?>\n<Clock xmlns:dt="urn:schemas-microsoft-com:datatypes"><Description dt:dt="string">E-Prime Primary Realtime Clock</Description><StartTime><Timestamp dt:dt="int">0</Timestamp><DateUtc dt:dt="string">2015-08-10T07:54:23Z</DateUtc></StartTime><FrequencyChanges><FrequencyChange><Frequency dt:dt="r8">2612324</Frequency><Timestamp dt:dt="r8">9979341768</Timestamp><Current dt:dt="r8">0</Current><DateUtc dt:dt="string">2015-08-10T07:54:23Z</DateUtc></FrequencyChange></FrequencyChanges></Clock>\n	1 ver1_main_procedure-5-1	99.938	1.0.0.880	1	ms	1389899683	lewa	1	2.0.10.182	08-10-2015	2015-08-10 07:54:23	09:54:23	mezczyzna	2.0.10.92	2																														TrainingProc1		TrainingList	1	1	1						1																																																					TrainProc											TrainingList1											target_left.png							1	1	1	d								25	150	
1 ver1_main_procedure	5	1	19	<?xml version="1.0"?>\n<Clock xmlns:dt="urn:schemas-microsoft-com:datatypes"><Description dt:dt="string">E-Prime Primary Realtime Clock</Description><StartTime><Timestamp dt:dt="int">0</Timestamp><DateUtc dt:dt="string">2015-08-10T07:54:23Z</DateUtc></StartTime><FrequencyChanges><FrequencyChange><Frequency dt:dt="r8">2612324</Frequency><Timestamp dt:dt="r8">9979341768</Timestamp><Current dt:dt="r8">0</Current><DateUtc dt:dt="string">2015-08-10T07:54:23Z</DateUtc></FrequencyChange></FrequencyChanges></Clock>\n	1 ver1_main_procedure-5-1	99.938	1.0.0.880	1	ms	1389899683	lewa	1	2.0.10.182	08-10-2015	2015-08-10 07:54:23	09:54:23	mezczyzna	2.0.10.92	2																														TrainingProc1		TrainingList	1	1	1						2																																																					TrainProc											TrainingList1											target_both.png							3	1	2	dl								75	300	
1 ver1_main_procedure	5	1	19	<?xml version="1.0"?>\n<Clock xmlns:dt="urn:schemas-microsoft-com:datatypes"><Description dt:dt="string">E-Prime Primary Realtime Clock</Description><StartTime><Timestamp dt:dt="int">0</Timestamp><DateUtc dt:dt="string">2015-08-10T07:54:23Z</DateUtc></StartTime><FrequencyChanges><FrequencyChange><Frequency dt:dt="r8">2612324</Frequency><Timestamp dt:dt="r8">9979341768</Timestamp><Current dt:dt="r8">0</Current><DateUtc dt:dt="string">2015-08-10T07:54:23Z</DateUtc></FrequencyChange></FrequencyChanges></Clock>\n	1 ver1_main_procedure-5-1	99.938	1.0.0.880	1	ms	1389899683	lewa	1	2.0.10.182	08-10-2015	2015-08-10 07:54:23	09:54:23	mezczyzna	2.0.10.92	2																														TrainingProc1		TrainingList	1	1	1						3																																																					TrainProc											TrainingList1											target_right.png							2	1	3	l								75	450	
1 ver1_main_procedure	5	1	19	<?xml version="1.0"?>\n<Clock xmlns:dt="urn:schemas-microsoft-com:datatypes"><Description dt:dt="string">E-Prime Primary Realtime Clock</Description><StartTime><Timestamp dt:dt="int">0</Timestamp><DateUtc dt:dt="string">2015-08-10T07:54:23Z</DateUtc></StartTime><FrequencyChanges><FrequencyChange><Frequency dt:dt="r8">2612324</Frequency><Timestamp dt:dt="r8">9979341768</Timestamp><Current dt:dt="r8">0</Current><DateUtc dt:dt="string">2015-08-10T07:54:23Z</DateUtc></FrequencyChange></FrequencyChanges></Clock>\n	1 ver1_main_procedure-5-1	99.938	1.0.0.880	1	ms	1389899683	lewa	1	2.0.10.182	08-10-2015	2015-08-10 07:54:23	09:54:23	mezczyzna	2.0.10.92	2																														TrainingProc1		TrainingList	1	1	1						4																																																					TrainProc											TrainingList1											target_right.png							2	1	4	l								25	450	
1 ver1_main_procedure	5	1	19	<?xml version="1.0"?>\n<Clock xmlns:dt="urn:schemas-microsoft-com:datatypes"><Description dt:dt="string">E-Prime Primary Realtime Clock</Description><StartTime><Timestamp dt:dt="int">0</Timestamp><DateUtc dt:dt="string">2015-08-10T07:54:23Z</DateUtc></StartTime><FrequencyChanges><FrequencyChange><Frequency dt:dt="r8">2612324</Frequency><Timestamp dt:dt="r8">9979341768</Timestamp><Current dt:dt="r8">0</Current><DateUtc dt:dt="string">2015-08-10T07:54:23Z</DateUtc></FrequencyChange></FrequencyChanges></Clock>\n	1 ver1_main_procedure-5-1	99.938	1.0.0.880	1	ms	1389899683	lewa	1	2.0.10.182	08-10-2015	2015-08-10 07:54:23	09:54:23	mezczyzna	2.0.10.92	2																														TrainingProc1		TrainingList	1	1	1						5																																																					TrainProc											TrainingList1											target_left.png							1	1	5	d								25	150	
1 ver1_main_procedure	5	1	19	<?xml version="1.0"?>\n<Clock xmlns:dt="urn:schemas-microsoft-com:datatypes"><Description dt:dt="string">E-Prime Primary Realtime Clock</Description><StartTime><Timestamp dt:dt="int">0</Timestamp><DateUtc dt:dt="string">2015-08-10T07:54:23Z</DateUtc></StartTime><FrequencyChanges><FrequencyChange><Frequency dt:dt="r8">2612324</Frequency><Timestamp dt:dt="r8">9979341768</Timestamp><Current dt:dt="r8">0</Current><DateUtc dt:dt="string">2015-08-10T07:54:23Z</DateUtc></FrequencyChange></FrequencyChanges></Clock>\n	1 ver1_main_procedure-5-1	99.938	1.0.0.880	1	ms	1389899683	lewa	1	2.0.10.182	08-10-2015	2015-08-10 07:54:23	09:54:23	mezczyzna	2.0.10.92	2																														TrainingProc1		TrainingList	1	1	1						6																																																					TrainProc											TrainingList1											target_both.png							3	1	6	dl								25	300	
1 ver1_main_procedure	5	1	19	<?xml version="1.0"?>\n<Clock xmlns:dt="urn:schemas-microsoft-com:datatypes"><Description dt:dt="string">E-Prime Primary Realtime Clock</Description><StartTime><Timestamp dt:dt="int">0</Timestamp><DateUtc dt:dt="string">2015-08-10T07:54:23Z</DateUtc></StartTime><FrequencyChanges><FrequencyChange><Frequency dt:dt="r8">2612324</Frequency><Timestamp dt:dt="r8">9979341768</Timestamp><Current dt:dt="r8">0</Current><DateUtc dt:dt="string">2015-08-10T07:54:23Z</DateUtc></FrequencyChange></FrequencyChanges></Clock>\n	1 ver1_main_procedure-5-1	99.938	1.0.0.880	1	ms	1389899683	lewa	1	2.0.10.182	08-10-2015	2015-08-10 07:54:23	09:54:23	mezczyzna	2.0.10.92	2																														TrainingProc1		TrainingList	1	1	1						7																																																					TrainProc											TrainingList1											target_right.png							2	1	7	l								25	450	
1 ver1_main_procedure	5	1	19	<?xml version="1.0"?>\n<Clock xmlns:dt="urn:schemas-microsoft-com:datatypes"><Description dt:dt="string">E-Prime Primary Realtime Clock</Description><StartTime><Timestamp dt:dt="int">0</Timestamp><DateUtc dt:dt="string">2015-08-10T07:54:23Z</DateUtc></StartTime><FrequencyChanges><FrequencyChange><Frequency dt:dt="r8">2612324</Frequency><Timestamp dt:dt="r8">9979341768</Timestamp><Current dt:dt="r8">0</Current><DateUtc dt:dt="string">2015-08-10T07:54:23Z</DateUtc></FrequencyChange></FrequencyChanges></Clock>\n	1 ver1_main_procedure-5-1	99.938	1.0.0.880	1	ms	1389899683	lewa	1	2.0.10.182	08-10-2015	2015-08-10 07:54:23	09:54:23	mezczyzna	2.0.10.92	2																														TrainingProc1		TrainingList	1	1	1						8																																																					TrainProc											TrainingList1											target_left.png							1	1	8	d								75	450	
1 ver1_main_procedure	5	1	19	<?xml version="1.0"?>\n<Clock xmlns:dt="urn:schemas-microsoft-com:datatypes"><Description dt:dt="string">E-Prime Primary Realtime Clock</Description><StartTime><Timestamp dt:dt="int">0</Timestamp><DateUtc dt:dt="string">2015-08-10T07:54:23Z</DateUtc></StartTime><FrequencyChanges><FrequencyChange><Frequency dt:dt="r8">2612324</Frequency><Timestamp dt:dt="r8">9979341768</Timestamp><Current dt:dt="r8">0</Current><DateUtc dt:dt="string">2015-08-10T07:54:23Z</DateUtc></FrequencyChange></FrequencyChanges></Clock>\n	1 ver1_main_procedure-5-1	99.938	1.0.0.880	1	ms	1389899683	lewa	1	2.0.10.182	08-10-2015	2015-08-10 07:54:23	09:54:23	mezczyzna	2.0.10.92	2																														TrainingProc1		TrainingList	1	1	1						9																																																					TrainProc											TrainingList1											target_both.png							3	1	9	dl								75	450	
1 ver1_main_procedure	5	1	19	<?xml version="1.0"?>\n<Clock xmlns:dt="urn:schemas-microsoft-com:datatypes"><Description dt:dt="string">E-Prime Primary Realtime Clock</Description><StartTime><Timestamp dt:dt="int">0</Timestamp><DateUtc dt:dt="string">2015-08-10T07:54:23Z</DateUtc></StartTime><FrequencyChanges><FrequencyChange><Frequency dt:dt="r8">2612324</Frequency><Timestamp dt:dt="r8">9979341768</Timestamp><Current dt:dt="r8">0</Current><DateUtc dt:dt="string">2015-08-10T07:54:23Z</DateUtc></FrequencyChange></FrequencyChanges></Clock>\n	1 ver1_main_procedure-5-1	99.938	1.0.0.880	1	ms	1389899683	lewa	1	2.0.10.182	08-10-2015	2015-08-10 07:54:23	09:54:23	mezczyzna	2.0.10.92	3	2	1	1																							l	{SPACE}		no	BlockProc1		BlockList									1	Free	dl	color_blue.png		-1	12	264715	460																								75	prime_left.png	0	264184	0	0	13	0	264184	0	264184	1	264184	20	0	-1	262685	264184	264183	0		TrialProc1	left	0		1	20	264504	-264504		0	0	TrialList1	target_both.png	0	dl	-1	3	264234	270	d	468	264702												7	1	1				comp			450
1 ver1_main_procedure	5	1	19	<?xml version="1.0"?>\n<Clock xmlns:dt="urn:schemas-microsoft-com:datatypes"><Description dt:dt="string">E-Prime Primary Realtime Clock</Description><StartTime><Timestamp dt:dt="int">0</Timestamp><DateUtc dt:dt="string">2015-08-10T07:54:23Z</DateUtc></StartTime><FrequencyChanges><FrequencyChange><Frequency dt:dt="r8">2612324</Frequency><Timestamp dt:dt="r8">9979341768</Timestamp><Current dt:dt="r8">0</Current><DateUtc dt:dt="string">2015-08-10T07:54:23Z</DateUtc></FrequencyChange></FrequencyChanges></Clock>\n	1 ver1_main_procedure-5-1	99.938	1.0.0.880	1	ms	1389899683	lewa	1	2.0.10.182	08-10-2015	2015-08-10 07:54:23	09:54:23	mezczyzna	2.0.10.92	3	2	1	1																							l	{SPACE}		no	BlockProc1		BlockList									2	Cued	l	color_red.png		-1	10	267456	160																			2					25	prime_right.png	0	266986	0	0	13	0	266986	0	266986	1	266986	20	0	-1	265487	266986	266985	0	prime_right.png	TrialProc1	right	0		0	10	267296	-267296		0	0	TrialList1	target_right.png	1	l	-1	3	267036	260	l	410	267446												5	1	2				neut			150
1 ver1_main_procedure	5	1	19	<?xml version="1.0"?>\n<Clock xmlns:dt="urn:schemas-microsoft-com:datatypes"><Description dt:dt="string">E-Prime Primary Realtime Clock</Description><StartTime><Timestamp dt:dt="int">0</Timestamp><DateUtc dt:dt="string">2015-08-10T07:54:23Z</DateUtc></StartTime><FrequencyChanges><FrequencyChange><Frequency dt:dt="r8">2612324</Frequency><Timestamp dt:dt="r8">9979341768</Timestamp><Current dt:dt="r8">0</Current><DateUtc dt:dt="string">2015-08-10T07:54:23Z</DateUtc></FrequencyChange></FrequencyChanges></Clock>\n	1 ver1_main_procedure-5-1	99.938	1.0.0.880	1	ms	1389899683	lewa	1	2.0.10.182	08-10-2015	2015-08-10 07:54:23	09:54:23	mezczyzna	2.0.10.92	3	2	1	1																							l	{SPACE}		no	BlockProc1		BlockList									3	Free	dl	color_green.png		-1	11	269898	310																			1					25	prime_left.png	0	269427	0	0	13	0	269427	0	269427	1	269427	20	0	-1	267928	269427	269426	0	prime_left.png	TrialProc1	left	0		1	10	269737	-269737		0	0	TrialList1	target_both.png	0	dl	-1	3	269477	260	d	409	269886												8	1	3				neut			300
1 ver1_main_procedure	5	1	19	<?xml version="1.0"?>\n<Clock xmlns:dt="urn:schemas-microsoft-com:datatypes"><Description dt:dt="string">E-Prime Primary Realtime Clock</Description><StartTime><Timestamp dt:dt="int">0</Timestamp><DateUtc dt:dt="string">2015-08-10T07:54:23Z</DateUtc></StartTime><FrequencyChanges><FrequencyChange><Frequency dt:dt="r8">2612324</Frequency><Timestamp dt:dt="r8">9979341768</Timestamp><Current dt:dt="r8">0</Current><DateUtc dt:dt="string">2015-08-10T07:54:23Z</DateUtc></FrequencyChange></FrequencyChanges></Clock>\n	1 ver1_main_procedure-5-1	99.938	1.0.0.880	1	ms	1389899683	lewa	1	2.0.10.182	08-10-2015	2015-08-10 07:54:23	09:54:23	mezczyzna	2.0.10.92	3	2	1	1																							l	{SPACE}		no	BlockProc1		BlockList									4	Free	dl	color_blue.png		-1	9	272519	460																								75	prime_left.png	0	272019	0	0	13	0	272019	0	272019	1	272019	20	0	-1	270520	272019	272018	0		TrialProc1	left	0		0	10	272329	-272329		0	0	TrialList1	target_both.png	0	dl	-1	3	272069	260	d	441	272510												7	1	4				comp			450
1 ver1_main_procedure	5	1	19	<?xml version="1.0"?>\n<Clock xmlns:dt="urn:schemas-microsoft-com:datatypes"><Description dt:dt="string">E-Prime Primary Realtime Clock</Description><StartTime><Timestamp dt:dt="int">0</Timestamp><DateUtc dt:dt="string">2015-08-10T07:54:23Z</DateUtc></StartTime><FrequencyChanges><FrequencyChange><Frequency dt:dt="r8">2612324</Frequency><Timestamp dt:dt="r8">9979341768</Timestamp><Current dt:dt="r8">0</Current><DateUtc dt:dt="string">2015-08-10T07:54:23Z</DateUtc></FrequencyChange></FrequencyChanges></Clock>\n	1 ver1_main_procedure-5-1	99.938	1.0.0.880	1	ms	1389899683	lewa	1	2.0.10.182	08-10-2015	2015-08-10 07:54:23	09:54:23	mezczyzna	2.0.10.92	3	2	1	1																							l	{SPACE}		no	BlockProc1		BlockList									5	Free	dl	color_blue.png		-1	6	275221	310																								25	prime_left.png	0	274790	0	0	13	1	274791	1	274791	0	274790	20	0	-1	273291	274790	274790	0		TrialProc1	right	0		0	11	275101	-275101		0	0	TrialList1	target_both.png	0	dl	-1	3	274840	261	d	374	275214												12	1	5				incomp			300
1 ver1_main_procedure	5	1	19	<?xml version="1.0"?>\n<Clock xmlns:dt="urn:schemas-microsoft-com:datatypes"><Description dt:dt="string">E-Prime Primary Realtime Clock</Description><StartTime><Timestamp dt:dt="int">0</Timestamp><DateUtc dt:dt="string">2015-08-10T07:54:23Z</DateUtc></StartTime><FrequencyChanges><FrequencyChange><Frequency dt:dt="r8">2612324</Frequency><Timestamp dt:dt="r8">9979341768</Timestamp><Current dt:dt="r8">0</Current><DateUtc dt:dt="string">2015-08-10T07:54:23Z</DateUtc></FrequencyChange></FrequencyChanges></Clock>\n	1 ver1_main_procedure-5-1	99.938	1.0.0.880	1	ms	1389899683	lewa	1	2.0.10.182	08-10-2015	2015-08-10 07:54:23	09:54:23	mezczyzna	2.0.10.92	3	2	1	1																							l	{SPACE}		no	BlockProc1		BlockList									6	Cued	l	color_red.png		-1	5	277812	160																			2					75	prime_right.png	0	277342	0	0	13	0	277342	0	277342	1	277342	20	0	-1	275843	277342	277341	0	prime_right.png	TrialProc1	right	0		0	10	277652	-277652		0	0	TrialList1	target_right.png	1	l	-1	3	277392	260	l	414	277806												5	1	6				neut			150
1 ver1_main_procedure	5	1	19	<?xml version="1.0"?>\n<Clock xmlns:dt="urn:schemas-microsoft-com:datatypes"><Description dt:dt="string">E-Prime Primary Realtime Clock</Description><StartTime><Timestamp dt:dt="int">0</Timestamp><DateUtc dt:dt="string">2015-08-10T07:54:23Z</DateUtc></StartTime><FrequencyChanges><FrequencyChange><Frequency dt:dt="r8">2612324</Frequency><Timestamp dt:dt="r8">9979341768</Timestamp><Current dt:dt="r8">0</Current><DateUtc dt:dt="string">2015-08-10T07:54:23Z</DateUtc></FrequencyChange></FrequencyChanges></Clock>\n	1 ver1_main_procedure-5-1	99.938	1.0.0.880	1	ms	1389899683	lewa	1	2.0.10.182	08-10-2015	2015-08-10 07:54:23	09:54:23	mezczyzna	2.0.10.92	3	2	1	1																							l	{SPACE}		no	BlockProc1		BlockList									7	Cued	d	color_yellow.png		-1	11	280154	310																								25	prime_right.png	0	279783	0	0	13	1	279784	1	279784	0	279783	20	0	-1	278284	279783	279783	0		TrialProc1	left	0		0	11	280094	-280094		0	0	TrialList1	target_left.png	1	d	-1	3	279833	261	d	309	280142												3	1	7				incomp			300
1 ver1_main_procedure	5	1	19	<?xml version="1.0"?>\n<Clock xmlns:dt="urn:schemas-microsoft-com:datatypes"><Description dt:dt="string">E-Prime Primary Realtime Clock</Description><StartTime><Timestamp dt:dt="int">0</Timestamp><DateUtc dt:dt="string">2015-08-10T07:54:23Z</DateUtc></StartTime><FrequencyChanges><FrequencyChange><Frequency dt:dt="r8">2612324</Frequency><Timestamp dt:dt="r8">9979341768</Timestamp><Current dt:dt="r8">0</Current><DateUtc dt:dt="string">2015-08-10T07:54:23Z</DateUtc></FrequencyChange></FrequencyChanges></Clock>\n	1 ver1_main_procedure-5-1	99.938	1.0.0.880	1	ms	1389899683	lewa	1	2.0.10.182	08-10-2015	2015-08-10 07:54:23	09:54:23	mezczyzna	2.0.10.92	3	2	1	1																							l	{SPACE}		no	BlockProc1		BlockList									8	Cued	d	color_yellow.png		-1	14	282605	310																								25	prime_right.png	0	282275	0	0	13	0	282275	0	282275	1	282275	20	0	-1	280776	282275	282274	0		TrialProc1	left	0		0	10	282585	-282585		0	0	TrialList1	target_left.png	1	d	-1	3	282325	260	d	265	282590												3	1	8				incomp			300
1 ver1_main_procedure	5	1	19	<?xml version="1.0"?>\n<Clock xmlns:dt="urn:schemas-microsoft-com:datatypes"><Description dt:dt="string">E-Prime Primary Realtime Clock</Description><StartTime><Timestamp dt:dt="int">0</Timestamp><DateUtc dt:dt="string">2015-08-10T07:54:23Z</DateUtc></StartTime><FrequencyChanges><FrequencyChange><Frequency dt:dt="r8">2612324</Frequency><Timestamp dt:dt="r8">9979341768</Timestamp><Current dt:dt="r8">0</Current><DateUtc dt:dt="string">2015-08-10T07:54:23Z</DateUtc></FrequencyChange></FrequencyChanges></Clock>\n	1 ver1_main_procedure-5-1	99.938	1.0.0.880	1	ms	1389899683	lewa	1	2.0.10.182	08-10-2015	2015-08-10 07:54:23	09:54:23	mezczyzna	2.0.10.92	3	2	1	1																							l	{SPACE}		no	BlockProc1		BlockList									9	Cued	l	color_purple.png		-1	7	285086	311																								75	prime_left.png	0	284726	0	0	13	0	284726	0	284726	1	284726	20	0	-1	283227	284726	284725	0		TrialProc1	right	0		1	10	285036	-285036		0	0	TrialList1	target_right.png	1	l	-1	3	284776	260	l	302	285078												6	1	9				incomp			300
1 ver1_main_procedure	5	1	19	<?xml version="1.0"?>\n<Clock xmlns:dt="urn:schemas-microsoft-com:datatypes"><Description dt:dt="string">E-Prime Primary Realtime Clock</Description><StartTime><Timestamp dt:dt="int">0</Timestamp><DateUtc dt:dt="string">2015-08-10T07:54:23Z</DateUtc></StartTime><FrequencyChanges><FrequencyChange><Frequency dt:dt="r8">2612324</Frequency><Timestamp dt:dt="r8">9979341768</Timestamp><Current dt:dt="r8">0</Current><DateUtc dt:dt="string">2015-08-10T07:54:23Z</DateUtc></FrequencyChange></FrequencyChanges></Clock>\n	1 ver1_main_procedure-5-1	99.938	1.0.0.880	1	ms	1389899683	lewa	1	2.0.10.182	08-10-2015	2015-08-10 07:54:23	09:54:23	mezczyzna	2.0.10.92	3	2	1	1																							l	{SPACE}		no	BlockProc1		BlockList									10	Cued	d	color_blue.png		-1	15	287518	310																								75	prime_left.png	0	287208	0	0	13	0	287208	0	287208	1	287208	20	0	-1	285708	287208	287207	0		TrialProc1	left	0		0	0	0	0		0	0	TrialList1	target_left.png	1	d	-999999	3	287258	0	d	244	287502												1	1	10				comp			300
1 ver1_main_procedure	5	1	19	<?xml version="1.0"?>\n<Clock xmlns:dt="urn:schemas-microsoft-com:datatypes"><Description dt:dt="string">E-Prime Primary Realtime Clock</Description><StartTime><Timestamp dt:dt="int">0</Timestamp><DateUtc dt:dt="string">2015-08-10T07:54:23Z</DateUtc></StartTime><FrequencyChanges><FrequencyChange><Frequency dt:dt="r8">2612324</Frequency><Timestamp dt:dt="r8">9979341768</Timestamp><Current dt:dt="r8">0</Current><DateUtc dt:dt="string">2015-08-10T07:54:23Z</DateUtc></FrequencyChange></FrequencyChanges></Clock>\n	1 ver1_main_procedure-5-1	99.938	1.0.0.880	1	ms	1389899683	lewa	1	2.0.10.182	08-10-2015	2015-08-10 07:54:23	09:54:23	mezczyzna	2.0.10.92	3	2	1	1																							l	{SPACE}		no	BlockProc1		BlockList									11	Free	dl	color_orange.png		-1	14	289989	310																								75	prime_right.png	0	289639	0	0	13	0	289639	0	289639	1	289639	20	0	-1	288140	289639	289638	0		TrialProc1	right	0		0	10	289949	-289949		0	0	TrialList1	target_both.png	0	dl	-1	3	289689	260	l	285	289974												10	1	11				comp			300
1 ver1_main_procedure	5	1	19	<?xml version="1.0"?>\n<Clock xmlns:dt="urn:schemas-microsoft-com:datatypes"><Description dt:dt="string">E-Prime Primary Realtime Clock</Description><StartTime><Timestamp dt:dt="int">0</Timestamp><DateUtc dt:dt="string">2015-08-10T07:54:23Z</DateUtc></StartTime><FrequencyChanges><FrequencyChange><Frequency dt:dt="r8">2612324</Frequency><Timestamp dt:dt="r8">9979341768</Timestamp><Current dt:dt="r8">0</Current><DateUtc dt:dt="string">2015-08-10T07:54:23Z</DateUtc></FrequencyChange></FrequencyChanges></Clock>\n	1 ver1_main_procedure-5-1	99.938	1.0.0.880	1	ms	1389899683	lewa	1	2.0.10.182	08-10-2015	2015-08-10 07:54:23	09:54:23	mezczyzna	2.0.10.92	3	2	1	1																							l	{SPACE}		no	BlockProc1		BlockList									12	Cued	l			-1	14	292381	310																			1					25	prime_left.png	0	292111	0	0	13	0	292111	0	292111	1	292111	20	0	-1	290611	292111	292110	0	prime_left.png	TrialProc1	right	0		0	0	0	0		0	0	TrialList1	target_right.png	0	l	-999999	3	292161	0	d	205	292366												5	1	12				neut			300
1 ver1_main_procedure	5	1	19	<?xml version="1.0"?>\n<Clock xmlns:dt="urn:schemas-microsoft-com:datatypes"><Description dt:dt="string">E-Prime Primary Realtime Clock</Description><StartTime><Timestamp dt:dt="int">0</Timestamp><DateUtc dt:dt="string">2015-08-10T07:54:23Z</DateUtc></StartTime><FrequencyChanges><FrequencyChange><Frequency dt:dt="r8">2612324</Frequency><Timestamp dt:dt="r8">9979341768</Timestamp><Current dt:dt="r8">0</Current><DateUtc dt:dt="string">2015-08-10T07:54:23Z</DateUtc></FrequencyChange></FrequencyChanges></Clock>\n	1 ver1_main_procedure-5-1	99.938	1.0.0.880	1	ms	1389899683	lewa	1	2.0.10.182	08-10-2015	2015-08-10 07:54:23	09:54:23	mezczyzna	2.0.10.92	3	2	1	1																							l	{SPACE}		no	BlockProc1		BlockList									13	Cued	d			-1	9	294832	460																								25	prime_right.png	0	294502	0	0	13	0	294502	0	294502	1	294502	20	0	-1	293003	294502	294501	0		TrialProc1	left	0		0	10	294812	-294812		0	0	TrialList1	target_left.png	0	d	-1	3	294552	260	l	270	294822												3	1	13				incomp			450
1 ver1_main_procedure	5	1	19	<?xml version="1.0"?>\n<Clock xmlns:dt="urn:schemas-microsoft-com:datatypes"><Description dt:dt="string">E-Prime Primary Realtime Clock</Description><StartTime><Timestamp dt:dt="int">0</Timestamp><DateUtc dt:dt="string">2015-08-10T07:54:23Z</DateUtc></StartTime><FrequencyChanges><FrequencyChange><Frequency dt:dt="r8">2612324</Frequency><Timestamp dt:dt="r8">9979341768</Timestamp><Current dt:dt="r8">0</Current><DateUtc dt:dt="string">2015-08-10T07:54:23Z</DateUtc></FrequencyChange></FrequencyChanges></Clock>\n	1 ver1_main_procedure-5-1	99.938	1.0.0.880	1	ms	1389899683	lewa	1	2.0.10.182	08-10-2015	2015-08-10 07:54:23	09:54:23	mezczyzna	2.0.10.92	3	2	1	1																							l	{SPACE}		no	BlockProc1		BlockList									14	Cued	l	color_orange.png		-1	11	297474	310																								25	prime_right.png	1	297104	0	0	13	1	297104	1	297104	0	297103	21	0	-1	295605	297103	297103	0		TrialProc1	right	0		0	10	297414	-297414		0	0	TrialList1	target_right.png	1	l	-1	3	297154	260	l	308	297462												4	1	14				comp			300
1 ver1_main_procedure	5	1	19	<?xml version="1.0"?>\n<Clock xmlns:dt="urn:schemas-microsoft-com:datatypes"><Description dt:dt="string">E-Prime Primary Realtime Clock</Description><StartTime><Timestamp dt:dt="int">0</Timestamp><DateUtc dt:dt="string">2015-08-10T07:54:23Z</DateUtc></StartTime><FrequencyChanges><FrequencyChange><Frequency dt:dt="r8">2612324</Frequency><Timestamp dt:dt="r8">9979341768</Timestamp><Current dt:dt="r8">0</Current><DateUtc dt:dt="string">2015-08-10T07:54:23Z</DateUtc></FrequencyChange></FrequencyChanges></Clock>\n	1 ver1_main_procedure-5-1	99.938	1.0.0.880	1	ms	1389899683	lewa	1	2.0.10.182	08-10-2015	2015-08-10 07:54:23	09:54:23	mezczyzna	2.0.10.92	3	2	1	1																							l	{SPACE}		no	BlockProc1		BlockList									15	Cued	d	color_blue.png		-1	10	299945	460																								75	prime_left.png	0	299595	0	0	13	0	299595	0	299595	1	299595	20	0	-1	298096	299595	299594	0		TrialProc1	left	0		0	10	299905	-299905		0	0	TrialList1	target_left.png	1	d	-1	3	299645	260	d	289	299934												1	1	15				comp			450
1 ver1_main_procedure	5	1	19	<?xml version="1.0"?>\n<Clock xmlns:dt="urn:schemas-microsoft-com:datatypes"><Description dt:dt="string">E-Prime Primary Realtime Clock</Description><StartTime><Timestamp dt:dt="int">0</Timestamp><DateUtc dt:dt="string">2015-08-10T07:54:23Z</DateUtc></StartTime><FrequencyChanges><FrequencyChange><Frequency dt:dt="r8">2612324</Frequency><Timestamp dt:dt="r8">9979341768</Timestamp><Current dt:dt="r8">0</Current><DateUtc dt:dt="string">2015-08-10T07:54:23Z</DateUtc></FrequencyChange></FrequencyChanges></Clock>\n	1 ver1_main_procedure-5-1	99.938	1.0.0.880	1	ms	1389899683	lewa	1	2.0.10.182	08-10-2015	2015-08-10 07:54:23	09:54:23	mezczyzna	2.0.10.92	3	2	1	1																							l	{SPACE}		no	BlockProc1		BlockList									16	Cued	d	color_blue.png		-1	8	302607	460																								75	prime_left.png	0	302217	0	0	13	0	302217	0	302217	1	302217	20	0	-1	300717	302217	302216	0		TrialProc1	left	0		0	10	302527	-302527		0	0	TrialList1	target_left.png	1	d	-1	3	302267	260	d	331	302598												1	1	16				comp			450
1 ver1_main_procedure	5	1	19	<?xml version="1.0"?>\n<Clock xmlns:dt="urn:schemas-microsoft-com:datatypes"><Description dt:dt="string">E-Prime Primary Realtime Clock</Description><StartTime><Timestamp dt:dt="int">0</Timestamp><DateUtc dt:dt="string">2015-08-10T07:54:23Z</DateUtc></StartTime><FrequencyChanges><FrequencyChange><Frequency dt:dt="r8">2612324</Frequency><Timestamp dt:dt="r8">9979341768</Timestamp><Current dt:dt="r8">0</Current><DateUtc dt:dt="string">2015-08-10T07:54:23Z</DateUtc></FrequencyChange></FrequencyChanges></Clock>\n	1 ver1_main_procedure-5-1	99.938	1.0.0.880	1	ms	1389899683	lewa	1	2.0.10.182	08-10-2015	2015-08-10 07:54:23	09:54:23	mezczyzna	2.0.10.92	3	2	1	1																							l	{SPACE}		no	BlockProc1		BlockList									17	Cued	l	color_orange.png		-1	9	305168	310																								25	prime_right.png	0	304878	0	0	13	0	304878	0	304878	1	304878	20	0	-1	303379	304878	304877	0		TrialProc1	right	0		0	0	0	0		0	0	TrialList1	target_right.png	1	l	-999999	3	304928	0	l	230	305158												4	1	17				comp			300
1 ver1_main_procedure	5	1	19	<?xml version="1.0"?>\n<Clock xmlns:dt="urn:schemas-microsoft-com:datatypes"><Description dt:dt="string">E-Prime Primary Realtime Clock</Description><StartTime><Timestamp dt:dt="int">0</Timestamp><DateUtc dt:dt="string">2015-08-10T07:54:23Z</DateUtc></StartTime><FrequencyChanges><FrequencyChange><Frequency dt:dt="r8">2612324</Frequency><Timestamp dt:dt="r8">9979341768</Timestamp><Current dt:dt="r8">0</Current><DateUtc dt:dt="string">2015-08-10T07:54:23Z</DateUtc></FrequencyChange></FrequencyChanges></Clock>\n	1 ver1_main_procedure-5-1	99.938	1.0.0.880	1	ms	1389899683	lewa	1	2.0.10.182	08-10-2015	2015-08-10 07:54:23	09:54:23	mezczyzna	2.0.10.92	3	2	1	1																							l	{SPACE}		no	BlockProc1		BlockList									18	Cued	d			-1	11	307690	310																			2					25	prime_right.png	1	307290	0	0	13	1	307290	1	307290	0	307289	20	0	-1	305790	307289	307289	0	prime_right.png	TrialProc1	left	0		0	10	307600	-307600		0	0	TrialList1	target_left.png	0	d	-1	4	307340	260	l	338	307678												2	1	18				neut			300
1 ver1_main_procedure	5	1	19	<?xml version="1.0"?>\n<Clock xmlns:dt="urn:schemas-microsoft-com:datatypes"><Description dt:dt="string">E-Prime Primary Realtime Clock</Description><StartTime><Timestamp dt:dt="int">0</Timestamp><DateUtc dt:dt="string">2015-08-10T07:54:23Z</DateUtc></StartTime><FrequencyChanges><FrequencyChange><Frequency dt:dt="r8">2612324</Frequency><Timestamp dt:dt="r8">9979341768</Timestamp><Current dt:dt="r8">0</Current><DateUtc dt:dt="string">2015-08-10T07:54:23Z</DateUtc></FrequencyChange></FrequencyChanges></Clock>\n	1 ver1_main_procedure-5-1	99.938	1.0.0.880	1	ms	1389899683	lewa	1	2.0.10.182	08-10-2015	2015-08-10 07:54:23	09:54:23	mezczyzna	2.0.10.92	3	2	1	1																							l	{SPACE}		no	BlockProc1		BlockList									19	Cued	d	color_yellow.png		-1	14	310221	460																								75	prime_right.png	0	309811	0	0	13	0	309811	0	309811	1	309811	20	0	-1	308312	309811	309810	0		TrialProc1	left	0		0	10	310121	-310121		0	0	TrialList1	target_left.png	1	d	-1	3	309861	260	d	345	310206												3	1	19				incomp			450
1 ver1_main_procedure	5	1	19	<?xml version="1.0"?>\n<Clock xmlns:dt="urn:schemas-microsoft-com:datatypes"><Description dt:dt="string">E-Prime Primary Realtime Clock</Description><StartTime><Timestamp dt:dt="int">0</Timestamp><DateUtc dt:dt="string">2015-08-10T07:54:23Z</DateUtc></StartTime><FrequencyChanges><FrequencyChange><Frequency dt:dt="r8">2612324</Frequency><Timestamp dt:dt="r8">9979341768</Timestamp><Current dt:dt="r8">0</Current><DateUtc dt:dt="string">2015-08-10T07:54:23Z</DateUtc></FrequencyChange></FrequencyChanges></Clock>\n	1 ver1_main_procedure-5-1	99.938	1.0.0.880	1	ms	1389899683	lewa	1	2.0.10.182	08-10-2015	2015-08-10 07:54:23	09:54:23	mezczyzna	2.0.10.92	3	2	1	1																							l	{SPACE}		no	BlockProc1		BlockList									20	Cued	l	color_orange.png		-1	16	312783	160																								25	prime_right.png	0	312493	0	0	13	0	312493	0	312493	1	312493	20	0	-1	310993	312493	312492	0		TrialProc1	right	0		0	0	0	0		0	0	TrialList1	target_right.png	1	l	-999999	3	312543	0	l	223	312766												4	1	20				comp			150
1 ver1_main_procedure	5	1	19	<?xml version="1.0"?>\n<Clock xmlns:dt="urn:schemas-microsoft-com:datatypes"><Description dt:dt="string">E-Prime Primary Realtime Clock</Description><StartTime><Timestamp dt:dt="int">0</Timestamp><DateUtc dt:dt="string">2015-08-10T07:54:23Z</DateUtc></StartTime><FrequencyChanges><FrequencyChange><Frequency dt:dt="r8">2612324</Frequency><Timestamp dt:dt="r8">9979341768</Timestamp><Current dt:dt="r8">0</Current><DateUtc dt:dt="string">2015-08-10T07:54:23Z</DateUtc></FrequencyChange></FrequencyChanges></Clock>\n	1 ver1_main_procedure-5-1	99.938	1.0.0.880	1	ms	1389899683	lewa	1	2.0.10.182	08-10-2015	2015-08-10 07:54:23	09:54:23	mezczyzna	2.0.10.92	3	2	1	1																							l	{SPACE}		no	BlockProc1		BlockList									21	Cued	d	color_green.png		-1	5	315164	310																			1					25	prime_left.png	0	314754	0	0	13	0	314754	0	314754	1	314754	20	0	-1	313255	314754	314753	0	prime_left.png	TrialProc1	left	0		0	10	315064	-315064		0	0	TrialList1	target_left.png	1	d	-1	3	314804	260	d	354	315158												2	1	21				neut			300
1 ver1_main_procedure	5	1	19	<?xml version="1.0"?>\n<Clock xmlns:dt="urn:schemas-microsoft-com:datatypes"><Description dt:dt="string">E-Prime Primary Realtime Clock</Description><StartTime><Timestamp dt:dt="int">0</Timestamp><DateUtc dt:dt="string">2015-08-10T07:54:23Z</DateUtc></StartTime><FrequencyChanges><FrequencyChange><Frequency dt:dt="r8">2612324</Frequency><Timestamp dt:dt="r8">9979341768</Timestamp><Current dt:dt="r8">0</Current><DateUtc dt:dt="string">2015-08-10T07:54:23Z</DateUtc></FrequencyChange></FrequencyChanges></Clock>\n	1 ver1_main_procedure-5-1	99.938	1.0.0.880	1	ms	1389899683	lewa	1	2.0.10.182	08-10-2015	2015-08-10 07:54:23	09:54:23	mezczyzna	2.0.10.92	3	2	1	1																							l	{SPACE}		no	BlockProc1		BlockList									22	Cued	d			-1	7	317646	160																								75	prime_left.png	0	317285	0	0	13	1	317286	1	317286	1	317285	20	0	-1	315786	317285	317284	0		TrialProc1	left	0		0	11	317596	-317596		0	0	TrialList1	target_left.png	0	d	-1	3	317335	261	l	303	317638												1	1	22				comp			150
1 ver1_main_procedure	5	1	19	<?xml version="1.0"?>\n<Clock xmlns:dt="urn:schemas-microsoft-com:datatypes"><Description dt:dt="string">E-Prime Primary Realtime Clock</Description><StartTime><Timestamp dt:dt="int">0</Timestamp><DateUtc dt:dt="string">2015-08-10T07:54:23Z</DateUtc></StartTime><FrequencyChanges><FrequencyChange><Frequency dt:dt="r8">2612324</Frequency><Timestamp dt:dt="r8">9979341768</Timestamp><Current dt:dt="r8">0</Current><DateUtc dt:dt="string">2015-08-10T07:54:23Z</DateUtc></FrequencyChange></FrequencyChanges></Clock>\n	1 ver1_main_procedure-5-1	99.938	1.0.0.880	1	ms	1389899683	lewa	1	2.0.10.182	08-10-2015	2015-08-10 07:54:23	09:54:23	mezczyzna	2.0.10.92	3	2	1	1																							l	{SPACE}		no	BlockProc1		BlockList									23	Cued	d	color_yellow.png		-1	6	319957	160																								25	prime_right.png	0	319617	0	0	13	0	319617	0	319617	1	319617	20	0	-1	318118	319617	319616	0		TrialProc1	left	0		0	10	319927	-319927		0	0	TrialList1	target_left.png	1	d	-1	3	319667	260	d	283	319950												3	1	23				incomp			150
1 ver1_main_procedure	5	1	19	<?xml version="1.0"?>\n<Clock xmlns:dt="urn:schemas-microsoft-com:datatypes"><Description dt:dt="string">E-Prime Primary Realtime Clock</Description><StartTime><Timestamp dt:dt="int">0</Timestamp><DateUtc dt:dt="string">2015-08-10T07:54:23Z</DateUtc></StartTime><FrequencyChanges><FrequencyChange><Frequency dt:dt="r8">2612324</Frequency><Timestamp dt:dt="r8">9979341768</Timestamp><Current dt:dt="r8">0</Current><DateUtc dt:dt="string">2015-08-10T07:54:23Z</DateUtc></FrequencyChange></FrequencyChanges></Clock>\n	1 ver1_main_procedure-5-1	99.938	1.0.0.880	1	ms	1389899683	lewa	1	2.0.10.182	08-10-2015	2015-08-10 07:54:23	09:54:23	mezczyzna	2.0.10.92	3	2	1	1																							l	{SPACE}		no	BlockProc1		BlockList									24	Cued	l			-1	9	322288	461																								75	prime_right.png	0	321928	0	0	13	0	321928	0	321928	1	321928	20	0	-1	320429	321928	321927	0		TrialProc1	right	0		1	10	322238	-322238		0	0	TrialList1	target_right.png	0	l	-1	3	321978	260	d	301	322279												4	1	24				comp			450
1 ver1_main_procedure	5	1	19	<?xml version="1.0"?>\n<Clock xmlns:dt="urn:schemas-microsoft-com:datatypes"><Description dt:dt="string">E-Prime Primary Realtime Clock</Description><StartTime><Timestamp dt:dt="int">0</Timestamp><DateUtc dt:dt="string">2015-08-10T07:54:23Z</DateUtc></StartTime><FrequencyChanges><FrequencyChange><Frequency dt:dt="r8">2612324</Frequency><Timestamp dt:dt="r8">9979341768</Timestamp><Current dt:dt="r8">0</Current><DateUtc dt:dt="string">2015-08-10T07:54:23Z</DateUtc></FrequencyChange></FrequencyChanges></Clock>\n	1 ver1_main_procedure-5-1	99.938	1.0.0.880	1	ms	1389899683	lewa	1	2.0.10.182	08-10-2015	2015-08-10 07:54:23	09:54:23	mezczyzna	2.0.10.92	3	2	1	1																							l	{SPACE}		no	BlockProc1		BlockList									25	Cued	l	color_orange.png		-1	13	324940	160																								25	prime_right.png	0	324560	0	0	13	0	324560	0	324560	1	324560	20	0	-1	323060	324560	324559	0		TrialProc1	right	0		0	10	324870	-324870		0	0	TrialList1	target_right.png	1	l	-1	3	324610	260	l	317	324927												4	1	25				comp			150
1 ver1_main_procedure	5	1	19	<?xml version="1.0"?>\n<Clock xmlns:dt="urn:schemas-microsoft-com:datatypes"><Description dt:dt="string">E-Prime Primary Realtime Clock</Description><StartTime><Timestamp dt:dt="int">0</Timestamp><DateUtc dt:dt="string">2015-08-10T07:54:23Z</DateUtc></StartTime><FrequencyChanges><FrequencyChange><Frequency dt:dt="r8">2612324</Frequency><Timestamp dt:dt="r8">9979341768</Timestamp><Current dt:dt="r8">0</Current><DateUtc dt:dt="string">2015-08-10T07:54:23Z</DateUtc></FrequencyChange></FrequencyChanges></Clock>\n	1 ver1_main_procedure-5-1	99.938	1.0.0.880	1	ms	1389899683	lewa	1	2.0.10.182	08-10-2015	2015-08-10 07:54:23	09:54:23	mezczyzna	2.0.10.92	3	2	1	1																							l	{SPACE}		no	BlockProc1		BlockList									26	Free	dl	color_yellow.png		-1	12	327171	160																								75	prime_right.png	0	326911	0	0	13	0	326911	0	326911	1	326911	20	0	-1	325412	326911	326910	0		TrialProc1	left	0		0	0	0	0		0	0	TrialList1	target_both.png	0	dl	-999999	3	326961	0	d	198	327159												9	1	26				incomp			150
1 ver1_main_procedure	5	1	19	<?xml version="1.0"?>\n<Clock xmlns:dt="urn:schemas-microsoft-com:datatypes"><Description dt:dt="string">E-Prime Primary Realtime Clock</Description><StartTime><Timestamp dt:dt="int">0</Timestamp><DateUtc dt:dt="string">2015-08-10T07:54:23Z</DateUtc></StartTime><FrequencyChanges><FrequencyChange><Frequency dt:dt="r8">2612324</Frequency><Timestamp dt:dt="r8">9979341768</Timestamp><Current dt:dt="r8">0</Current><DateUtc dt:dt="string">2015-08-10T07:54:23Z</DateUtc></FrequencyChange></FrequencyChanges></Clock>\n	1 ver1_main_procedure-5-1	99.938	1.0.0.880	1	ms	1389899683	lewa	1	2.0.10.182	08-10-2015	2015-08-10 07:54:23	09:54:23	mezczyzna	2.0.10.92	3	2	1	1																							l	{SPACE}		no	BlockProc1		BlockList									27	Free	dl	color_yellow.png		-1	10	329593	460																								25	prime_right.png	0	329142	0	0	13	1	329143	1	329143	1	329142	20	0	-1	327643	329142	329141	0		TrialProc1	left	0		0	11	329453	-329453		0	0	TrialList1	target_both.png	0	dl	-1	3	329192	261	d	391	329583												9	1	27				incomp			450
1 ver1_main_procedure	5	1	19	<?xml version="1.0"?>\n<Clock xmlns:dt="urn:schemas-microsoft-com:datatypes"><Description dt:dt="string">E-Prime Primary Realtime Clock</Description><StartTime><Timestamp dt:dt="int">0</Timestamp><DateUtc dt:dt="string">2015-08-10T07:54:23Z</DateUtc></StartTime><FrequencyChanges><FrequencyChange><Frequency dt:dt="r8">2612324</Frequency><Timestamp dt:dt="r8">9979341768</Timestamp><Current dt:dt="r8">0</Current><DateUtc dt:dt="string">2015-08-10T07:54:23Z</DateUtc></FrequencyChange></FrequencyChanges></Clock>\n	1 ver1_main_procedure-5-1	99.938	1.0.0.880	1	ms	1389899683	lewa	1	2.0.10.182	08-10-2015	2015-08-10 07:54:23	09:54:23	mezczyzna	2.0.10.92	3	2	1	1																							l	{SPACE}		no	BlockProc1		BlockList									28	Free	dl	color_orange.png		-1	9	332264	160																								25	prime_right.png	0	331864	0	0	13	0	331864	0	331864	1	331864	20	0	-1	330365	331864	331863	0		TrialProc1	left	0		0	10	332174	-332174		0	0	TrialList1	target_both.png	0	dl	-1	3	331914	260	l	341	332255												9	1	28				incomp			150
1 ver1_main_procedure	5	1	19	<?xml version="1.0"?>\n<Clock xmlns:dt="urn:schemas-microsoft-com:datatypes"><Description dt:dt="string">E-Prime Primary Realtime Clock</Description><StartTime><Timestamp dt:dt="int">0</Timestamp><DateUtc dt:dt="string">2015-08-10T07:54:23Z</DateUtc></StartTime><FrequencyChanges><FrequencyChange><Frequency dt:dt="r8">2612324</Frequency><Timestamp dt:dt="r8">9979341768</Timestamp><Current dt:dt="r8">0</Current><DateUtc dt:dt="string">2015-08-10T07:54:23Z</DateUtc></FrequencyChange></FrequencyChanges></Clock>\n	1 ver1_main_procedure-5-1	99.938	1.0.0.880	1	ms	1389899683	lewa	1	2.0.10.182	08-10-2015	2015-08-10 07:54:23	09:54:23	mezczyzna	2.0.10.92	3	2	1	1																							l	{SPACE}		no	BlockProc1		BlockList									29	Cued	l	color_purple.png		-1	15	334686	160																								75	prime_left.png	0	334235	0	0	13	0	334236	0	334235	1	334235	20	0	-1	332736	334235	334234	0		TrialProc1	right	0		0	11	334546	-334546		0	0	TrialList1	target_right.png	1	l	-1	3	334285	261	l	386	334671												6	1	29				incomp			150
1 ver1_main_procedure	5	1	19	<?xml version="1.0"?>\n<Clock xmlns:dt="urn:schemas-microsoft-com:datatypes"><Description dt:dt="string">E-Prime Primary Realtime Clock</Description><StartTime><Timestamp dt:dt="int">0</Timestamp><DateUtc dt:dt="string">2015-08-10T07:54:23Z</DateUtc></StartTime><FrequencyChanges><FrequencyChange><Frequency dt:dt="r8">2612324</Frequency><Timestamp dt:dt="r8">9979341768</Timestamp><Current dt:dt="r8">0</Current><DateUtc dt:dt="string">2015-08-10T07:54:23Z</DateUtc></FrequencyChange></FrequencyChanges></Clock>\n	1 ver1_main_procedure-5-1	99.938	1.0.0.880	1	ms	1389899683	lewa	1	2.0.10.182	08-10-2015	2015-08-10 07:54:23	09:54:23	mezczyzna	2.0.10.92	3	2	1	1																							l	{SPACE}		no	BlockProc1		BlockList									30	Cued	l			-1	14	336917	310																			2					75	prime_right.png	0	336657	0	0	13	0	336657	0	336657	1	336657	20	0	-1	335158	336657	336656	0	prime_right.png	TrialProc1	right	0		0	0	0	0		0	0	TrialList1	target_right.png	0	l	-999999	3	336707	0	d	196	336903												5	1	30				neut			300
1 ver1_main_procedure	5	1	19	<?xml version="1.0"?>\n<Clock xmlns:dt="urn:schemas-microsoft-com:datatypes"><Description dt:dt="string">E-Prime Primary Realtime Clock</Description><StartTime><Timestamp dt:dt="int">0</Timestamp><DateUtc dt:dt="string">2015-08-10T07:54:23Z</DateUtc></StartTime><FrequencyChanges><FrequencyChange><Frequency dt:dt="r8">2612324</Frequency><Timestamp dt:dt="r8">9979341768</Timestamp><Current dt:dt="r8">0</Current><DateUtc dt:dt="string">2015-08-10T07:54:23Z</DateUtc></FrequencyChange></FrequencyChanges></Clock>\n	1 ver1_main_procedure-5-1	99.938	1.0.0.880	1	ms	1389899683	lewa	1	2.0.10.182	08-10-2015	2015-08-10 07:54:23	09:54:23	mezczyzna	2.0.10.92	3	2	1	1																							l	{SPACE}		no	BlockProc1		BlockList									31	Cued	l	color_red.png		-1	13	339508	311																			1					25	prime_left.png	0	339038	0	0	13	0	339038	0	339038	1	339038	20	0	-1	337539	339038	339037	0	prime_left.png	TrialProc1	right	0		1	10	339348	-339348		0	0	TrialList1	target_right.png	1	l	-1	3	339088	260	l	407	339495												5	1	31				neut			300
1 ver1_main_procedure	5	1	19	<?xml version="1.0"?>\n<Clock xmlns:dt="urn:schemas-microsoft-com:datatypes"><Description dt:dt="string">E-Prime Primary Realtime Clock</Description><StartTime><Timestamp dt:dt="int">0</Timestamp><DateUtc dt:dt="string">2015-08-10T07:54:23Z</DateUtc></StartTime><FrequencyChanges><FrequencyChange><Frequency dt:dt="r8">2612324</Frequency><Timestamp dt:dt="r8">9979341768</Timestamp><Current dt:dt="r8">0</Current><DateUtc dt:dt="string">2015-08-10T07:54:23Z</DateUtc></FrequencyChange></FrequencyChanges></Clock>\n	1 ver1_main_procedure-5-1	99.938	1.0.0.880	1	ms	1389899683	lewa	1	2.0.10.182	08-10-2015	2015-08-10 07:54:23	09:54:23	mezczyzna	2.0.10.92	3	2	1	1																							l	{SPACE}		no	BlockProc1		BlockList									32	Cued	l			-1	13	341940	460																			2					25	prime_right.png	0	341630	0	0	13	0	341630	0	341630	1	341630	20	0	-1	340131	341630	341629	0	prime_right.png	TrialProc1	right	0		0	0	0	0		0	0	TrialList1	target_right.png	0	l	-999999	3	341680	0	d	247	341927												5	1	32				neut			450
1 ver1_main_procedure	5	1	19	<?xml version="1.0"?>\n<Clock xmlns:dt="urn:schemas-microsoft-com:datatypes"><Description dt:dt="string">E-Prime Primary Realtime Clock</Description><StartTime><Timestamp dt:dt="int">0</Timestamp><DateUtc dt:dt="string">2015-08-10T07:54:23Z</DateUtc></StartTime><FrequencyChanges><FrequencyChange><Frequency dt:dt="r8">2612324</Frequency><Timestamp dt:dt="r8">9979341768</Timestamp><Current dt:dt="r8">0</Current><DateUtc dt:dt="string">2015-08-10T07:54:23Z</DateUtc></FrequencyChange></FrequencyChanges></Clock>\n	1 ver1_main_procedure-5-1	99.938	1.0.0.880	1	ms	1389899683	lewa	1	2.0.10.182	08-10-2015	2015-08-10 07:54:23	09:54:23	mezczyzna	2.0.10.92	3	2	1	1																							l	{SPACE}		no	BlockProc1		BlockList									33	Cued	d	color_blue.png		-1	6	344742	460																								75	prime_left.png	0	344211	0	0	13	0	344211	0	344211	1	344211	20	0	-1	342712	344211	344210	0		TrialProc1	left	0		0	10	344521	-344521		0	0	TrialList1	target_left.png	1	d	-1	3	344261	260	d	474	344735												1	1	33				comp			450
1 ver1_main_procedure	5	1	19	<?xml version="1.0"?>\n<Clock xmlns:dt="urn:schemas-microsoft-com:datatypes"><Description dt:dt="string">E-Prime Primary Realtime Clock</Description><StartTime><Timestamp dt:dt="int">0</Timestamp><DateUtc dt:dt="string">2015-08-10T07:54:23Z</DateUtc></StartTime><FrequencyChanges><FrequencyChange><Frequency dt:dt="r8">2612324</Frequency><Timestamp dt:dt="r8">9979341768</Timestamp><Current dt:dt="r8">0</Current><DateUtc dt:dt="string">2015-08-10T07:54:23Z</DateUtc></FrequencyChange></FrequencyChanges></Clock>\n	1 ver1_main_procedure-5-1	99.938	1.0.0.880	1	ms	1389899683	lewa	1	2.0.10.182	08-10-2015	2015-08-10 07:54:23	09:54:23	mezczyzna	2.0.10.92	3	2	1	1																							l	{SPACE}		no	BlockProc1		BlockList									34	Cued	d	color_yellow.png		-1	8	347383	460																								25	prime_right.png	0	347013	0	0	13	0	347013	0	347013	1	347013	20	0	-1	345514	347013	347012	0		TrialProc1	left	0		0	10	347323	-347323		0	0	TrialList1	target_left.png	1	d	-1	3	347063	260	d	312	347375												3	1	34				incomp			450
1 ver1_main_procedure	5	1	19	<?xml version="1.0"?>\n<Clock xmlns:dt="urn:schemas-microsoft-com:datatypes"><Description dt:dt="string">E-Prime Primary Realtime Clock</Description><StartTime><Timestamp dt:dt="int">0</Timestamp><DateUtc dt:dt="string">2015-08-10T07:54:23Z</DateUtc></StartTime><FrequencyChanges><FrequencyChange><Frequency dt:dt="r8">2612324</Frequency><Timestamp dt:dt="r8">9979341768</Timestamp><Current dt:dt="r8">0</Current><DateUtc dt:dt="string">2015-08-10T07:54:23Z</DateUtc></FrequencyChange></FrequencyChanges></Clock>\n	1 ver1_main_procedure-5-1	99.938	1.0.0.880	1	ms	1389899683	lewa	1	2.0.10.182	08-10-2015	2015-08-10 07:54:23	09:54:23	mezczyzna	2.0.10.92	3	2	1	1																							l	{SPACE}		no	BlockProc1		BlockList									35	Free	dl	color_red.png		-1	9	349985	310																			1					25	prime_left.png	0	349654	0	0	13	1	349655	1	349655	1	349654	20	0	-1	348155	349654	349653	0	prime_left.png	TrialProc1	right	0		0	11	349965	-349965		0	0	TrialList1	target_both.png	0	dl	-1	3	349704	261	l	271	349975												11	1	35				neut			300
1 ver1_main_procedure	5	1	19	<?xml version="1.0"?>\n<Clock xmlns:dt="urn:schemas-microsoft-com:datatypes"><Description dt:dt="string">E-Prime Primary Realtime Clock</Description><StartTime><Timestamp dt:dt="int">0</Timestamp><DateUtc dt:dt="string">2015-08-10T07:54:23Z</DateUtc></StartTime><FrequencyChanges><FrequencyChange><Frequency dt:dt="r8">2612324</Frequency><Timestamp dt:dt="r8">9979341768</Timestamp><Current dt:dt="r8">0</Current><DateUtc dt:dt="string">2015-08-10T07:54:23Z</DateUtc></FrequencyChange></FrequencyChanges></Clock>\n	1 ver1_main_procedure-5-1	99.938	1.0.0.880	1	ms	1389899683	lewa	1	2.0.10.182	08-10-2015	2015-08-10 07:54:23	09:54:23	mezczyzna	2.0.10.92	3	2	1	1																							l	{SPACE}		no	BlockProc1		BlockList									36	Free	dl	color_blue.png		-1	6	352486	160																								75	prime_left.png	0	352106	0	0	13	0	352106	0	352106	1	352106	20	0	-1	350607	352106	352105	0		TrialProc1	right	0		0	10	352416	-352416		0	0	TrialList1	target_both.png	0	dl	-1	3	352156	260	d	323	352479												12	1	36				incomp			150
1 ver1_main_procedure	5	1	19	<?xml version="1.0"?>\n<Clock xmlns:dt="urn:schemas-microsoft-com:datatypes"><Description dt:dt="string">E-Prime Primary Realtime Clock</Description><StartTime><Timestamp dt:dt="int">0</Timestamp><DateUtc dt:dt="string">2015-08-10T07:54:23Z</DateUtc></StartTime><FrequencyChanges><FrequencyChange><Frequency dt:dt="r8">2612324</Frequency><Timestamp dt:dt="r8">9979341768</Timestamp><Current dt:dt="r8">0</Current><DateUtc dt:dt="string">2015-08-10T07:54:23Z</DateUtc></FrequencyChange></FrequencyChanges></Clock>\n	1 ver1_main_procedure-5-1	99.938	1.0.0.880	1	ms	1389899683	lewa	1	2.0.10.182	08-10-2015	2015-08-10 07:54:23	09:54:23	mezczyzna	2.0.10.92	3	2	1	1																							l	{SPACE}		no	BlockProc1		BlockList									37	Cued	l	color_purple.png		-1	7	354887	311																								75	prime_left.png	0	354457	0	0	13	0	354457	0	354457	1	354457	20	0	-1	352958	354457	354456	0		TrialProc1	right	0		1	10	354767	-354767		0	0	TrialList1	target_right.png	1	l	-1	3	354507	260	l	372	354879												6	1	37				incomp			300
1 ver1_main_procedure	5	1	19	<?xml version="1.0"?>\n<Clock xmlns:dt="urn:schemas-microsoft-com:datatypes"><Description dt:dt="string">E-Prime Primary Realtime Clock</Description><StartTime><Timestamp dt:dt="int">0</Timestamp><DateUtc dt:dt="string">2015-08-10T07:54:23Z</DateUtc></StartTime><FrequencyChanges><FrequencyChange><Frequency dt:dt="r8">2612324</Frequency><Timestamp dt:dt="r8">9979341768</Timestamp><Current dt:dt="r8">0</Current><DateUtc dt:dt="string">2015-08-10T07:54:23Z</DateUtc></FrequencyChange></FrequencyChanges></Clock>\n	1 ver1_main_procedure-5-1	99.938	1.0.0.880	1	ms	1389899683	lewa	1	2.0.10.182	08-10-2015	2015-08-10 07:54:23	09:54:23	mezczyzna	2.0.10.92	3	2	1	1																							l	{SPACE}		no	BlockProc1		BlockList									38	Free	dl	color_red.png		-1	11	357299	460																			2					75	prime_right.png	0	357009	0	0	13	0	357009	0	357009	1	357009	20	0	-1	355509	357009	357008	0	prime_right.png	TrialProc1	right	0		0	0	0	0		0	0	TrialList1	target_both.png	0	dl	-999999	3	357059	0	l	228	357287												11	1	38				neut			450
1 ver1_main_procedure	5	1	19	<?xml version="1.0"?>\n<Clock xmlns:dt="urn:schemas-microsoft-com:datatypes"><Description dt:dt="string">E-Prime Primary Realtime Clock</Description><StartTime><Timestamp dt:dt="int">0</Timestamp><DateUtc dt:dt="string">2015-08-10T07:54:23Z</DateUtc></StartTime><FrequencyChanges><FrequencyChange><Frequency dt:dt="r8">2612324</Frequency><Timestamp dt:dt="r8">9979341768</Timestamp><Current dt:dt="r8">0</Current><DateUtc dt:dt="string">2015-08-10T07:54:23Z</DateUtc></FrequencyChange></FrequencyChanges></Clock>\n	1 ver1_main_procedure-5-1	99.938	1.0.0.880	1	ms	1389899683	lewa	1	2.0.10.182	08-10-2015	2015-08-10 07:54:23	09:54:23	mezczyzna	2.0.10.92	3	2	1	1																							l	{SPACE}		no	BlockProc1		BlockList									39	Cued	d			-1	12	359980	311																								75	prime_right.png	0	359570	0	0	13	0	359570	0	359570	1	359570	20	0	-1	358071	359570	359569	0		TrialProc1	left	0		1	10	359880	-359880		0	0	TrialList1	target_left.png	0	d	-1	3	359620	260	l	347	359967												3	1	39				incomp			300
1 ver1_main_procedure	5	1	19	<?xml version="1.0"?>\n<Clock xmlns:dt="urn:schemas-microsoft-com:datatypes"><Description dt:dt="string">E-Prime Primary Realtime Clock</Description><StartTime><Timestamp dt:dt="int">0</Timestamp><DateUtc dt:dt="string">2015-08-10T07:54:23Z</DateUtc></StartTime><FrequencyChanges><FrequencyChange><Frequency dt:dt="r8">2612324</Frequency><Timestamp dt:dt="r8">9979341768</Timestamp><Current dt:dt="r8">0</Current><DateUtc dt:dt="string">2015-08-10T07:54:23Z</DateUtc></FrequencyChange></FrequencyChanges></Clock>\n	1 ver1_main_procedure-5-1	99.938	1.0.0.880	1	ms	1389899683	lewa	1	2.0.10.182	08-10-2015	2015-08-10 07:54:23	09:54:23	mezczyzna	2.0.10.92	3	2	1	1																							l	{SPACE}		no	BlockProc1		BlockList									40	Cued	d	color_green.png		-1	8	362472	460																			1					25	prime_left.png	0	362102	0	0	13	0	362102	0	362102	1	362102	20	0	-1	360603	362102	362101	0	prime_left.png	TrialProc1	left	0		0	10	362412	-362412		0	0	TrialList1	target_left.png	1	d	-1	3	362152	260	d	311	362463												2	1	40				neut			450
1 ver1_main_procedure	5	1	19	<?xml version="1.0"?>\n<Clock xmlns:dt="urn:schemas-microsoft-com:datatypes"><Description dt:dt="string">E-Prime Primary Realtime Clock</Description><StartTime><Timestamp dt:dt="int">0</Timestamp><DateUtc dt:dt="string">2015-08-10T07:54:23Z</DateUtc></StartTime><FrequencyChanges><FrequencyChange><Frequency dt:dt="r8">2612324</Frequency><Timestamp dt:dt="r8">9979341768</Timestamp><Current dt:dt="r8">0</Current><DateUtc dt:dt="string">2015-08-10T07:54:23Z</DateUtc></FrequencyChange></FrequencyChanges></Clock>\n	1 ver1_main_procedure-5-1	99.938	1.0.0.880	1	ms	1389899683	lewa	1	2.0.10.182	08-10-2015	2015-08-10 07:54:23	09:54:23	mezczyzna	2.0.10.92	3	2	1	1																							l	{SPACE}		no	BlockProc1		BlockList									41	Cued	d			-1	6	365063	161																			2					75	prime_right.png	0	364743	0	0	13	0	364743	0	364743	1	364743	20	0	-1	363244	364743	364742	0	prime_right.png	TrialProc1	left	0		1	10	365053	-365053		0	0	TrialList1	target_left.png	0	d	-1	3	364793	260	l	263	365056												2	1	41				neut			150
1 ver1_main_procedure	5	1	19	<?xml version="1.0"?>\n<Clock xmlns:dt="urn:schemas-microsoft-com:datatypes"><Description dt:dt="string">E-Prime Primary Realtime Clock</Description><StartTime><Timestamp dt:dt="int">0</Timestamp><DateUtc dt:dt="string">2015-08-10T07:54:23Z</DateUtc></StartTime><FrequencyChanges><FrequencyChange><Frequency dt:dt="r8">2612324</Frequency><Timestamp dt:dt="r8">9979341768</Timestamp><Current dt:dt="r8">0</Current><DateUtc dt:dt="string">2015-08-10T07:54:23Z</DateUtc></FrequencyChange></FrequencyChanges></Clock>\n	1 ver1_main_procedure-5-1	99.938	1.0.0.880	1	ms	1389899683	lewa	1	2.0.10.182	08-10-2015	2015-08-10 07:54:23	09:54:23	mezczyzna	2.0.10.92	3	2	1	1																							l	{SPACE}		no	BlockProc1		BlockList									42	Cued	l	color_orange.png		-1	7	367415	460																								25	prime_right.png	0	367035	0	0	13	0	367035	0	367035	1	367035	20	0	-1	365536	367035	367034	0		TrialProc1	right	0		0	10	367345	-367345		0	0	TrialList1	target_right.png	1	l	-1	3	367085	260	l	322	367407												4	1	42				comp			450
1 ver1_main_procedure	5	1	19	<?xml version="1.0"?>\n<Clock xmlns:dt="urn:schemas-microsoft-com:datatypes"><Description dt:dt="string">E-Prime Primary Realtime Clock</Description><StartTime><Timestamp dt:dt="int">0</Timestamp><DateUtc dt:dt="string">2015-08-10T07:54:23Z</DateUtc></StartTime><FrequencyChanges><FrequencyChange><Frequency dt:dt="r8">2612324</Frequency><Timestamp dt:dt="r8">9979341768</Timestamp><Current dt:dt="r8">0</Current><DateUtc dt:dt="string">2015-08-10T07:54:23Z</DateUtc></FrequencyChange></FrequencyChanges></Clock>\n	1 ver1_main_procedure-5-1	99.938	1.0.0.880	1	ms	1389899683	lewa	1	2.0.10.182	08-10-2015	2015-08-10 07:54:23	09:54:23	mezczyzna	2.0.10.92	3	2	1	1																							l	{SPACE}		no	BlockProc1		BlockList									43	Cued	l			-1	6	369966	160																			1					25	prime_left.png	0	369686	0	0	13	0	369686	0	369686	1	369686	20	0	-1	368187	369686	369685	0	prime_left.png	TrialProc1	right	0		0	0	0	0		0	0	TrialList1	target_right.png	0	l	-999999	3	369736	0	d	223	369959												5	1	43				neut			150
1 ver1_main_procedure	5	1	19	<?xml version="1.0"?>\n<Clock xmlns:dt="urn:schemas-microsoft-com:datatypes"><Description dt:dt="string">E-Prime Primary Realtime Clock</Description><StartTime><Timestamp dt:dt="int">0</Timestamp><DateUtc dt:dt="string">2015-08-10T07:54:23Z</DateUtc></StartTime><FrequencyChanges><FrequencyChange><Frequency dt:dt="r8">2612324</Frequency><Timestamp dt:dt="r8">9979341768</Timestamp><Current dt:dt="r8">0</Current><DateUtc dt:dt="string">2015-08-10T07:54:23Z</DateUtc></FrequencyChange></FrequencyChanges></Clock>\n	1 ver1_main_procedure-5-1	99.938	1.0.0.880	1	ms	1389899683	lewa	1	2.0.10.182	08-10-2015	2015-08-10 07:54:23	09:54:23	mezczyzna	2.0.10.92	3	2	1	1																							l	{SPACE}		no	BlockProc1		BlockList									44	Free	dl	color_purple.png		-1	8	372368	160																								75	prime_left.png	1	371938	0	0	13	1	371938	1	371938	0	371937	20	0	-1	370438	371937	371937	0		TrialProc1	left	0		0	10	372248	-372248		0	0	TrialList1	target_both.png	0	dl	-1	4	371988	260	l	371	372359												7	1	44				comp			150
1 ver1_main_procedure	5	1	19	<?xml version="1.0"?>\n<Clock xmlns:dt="urn:schemas-microsoft-com:datatypes"><Description dt:dt="string">E-Prime Primary Realtime Clock</Description><StartTime><Timestamp dt:dt="int">0</Timestamp><DateUtc dt:dt="string">2015-08-10T07:54:23Z</DateUtc></StartTime><FrequencyChanges><FrequencyChange><Frequency dt:dt="r8">2612324</Frequency><Timestamp dt:dt="r8">9979341768</Timestamp><Current dt:dt="r8">0</Current><DateUtc dt:dt="string">2015-08-10T07:54:23Z</DateUtc></FrequencyChange></FrequencyChanges></Clock>\n	1 ver1_main_procedure-5-1	99.938	1.0.0.880	1	ms	1389899683	lewa	1	2.0.10.182	08-10-2015	2015-08-10 07:54:23	09:54:23	mezczyzna	2.0.10.92	3	2	1	1																							l	{SPACE}		no	BlockProc1		BlockList									45	Free	dl	color_orange.png		-1	5	374709	310																								25	prime_right.png	0	374339	0	0	13	0	374339	0	374339	1	374339	20	0	-1	372840	374339	374338	0		TrialProc1	right	0		0	10	374649	-374649		0	0	TrialList1	target_both.png	0	dl	-1	3	374389	260	l	314	374703												10	1	45				comp			300
1 ver1_main_procedure	5	1	19	<?xml version="1.0"?>\n<Clock xmlns:dt="urn:schemas-microsoft-com:datatypes"><Description dt:dt="string">E-Prime Primary Realtime Clock</Description><StartTime><Timestamp dt:dt="int">0</Timestamp><DateUtc dt:dt="string">2015-08-10T07:54:23Z</DateUtc></StartTime><FrequencyChanges><FrequencyChange><Frequency dt:dt="r8">2612324</Frequency><Timestamp dt:dt="r8">9979341768</Timestamp><Current dt:dt="r8">0</Current><DateUtc dt:dt="string">2015-08-10T07:54:23Z</DateUtc></FrequencyChange></FrequencyChanges></Clock>\n	1 ver1_main_procedure-5-1	99.938	1.0.0.880	1	ms	1389899683	lewa	1	2.0.10.182	08-10-2015	2015-08-10 07:54:23	09:54:23	mezczyzna	2.0.10.92	3	2	1	1																							l	{SPACE}		no	BlockProc1		BlockList									46	Cued	d	color_green.png		-1	15	377191	460																			2					75	prime_right.png	0	376830	0	0	13	0	376831	0	376830	1	376830	20	0	-1	375331	376830	376829	0	prime_right.png	TrialProc1	left	0		0	11	377141	-377141		0	0	TrialList1	target_left.png	1	d	-1	3	376880	261	d	295	377175												2	1	46				neut			450
1 ver1_main_procedure	5	1	19	<?xml version="1.0"?>\n<Clock xmlns:dt="urn:schemas-microsoft-com:datatypes"><Description dt:dt="string">E-Prime Primary Realtime Clock</Description><StartTime><Timestamp dt:dt="int">0</Timestamp><DateUtc dt:dt="string">2015-08-10T07:54:23Z</DateUtc></StartTime><FrequencyChanges><FrequencyChange><Frequency dt:dt="r8">2612324</Frequency><Timestamp dt:dt="r8">9979341768</Timestamp><Current dt:dt="r8">0</Current><DateUtc dt:dt="string">2015-08-10T07:54:23Z</DateUtc></FrequencyChange></FrequencyChanges></Clock>\n	1 ver1_main_procedure-5-1	99.938	1.0.0.880	1	ms	1389899683	lewa	1	2.0.10.182	08-10-2015	2015-08-10 07:54:23	09:54:23	mezczyzna	2.0.10.92	3	2	1	1																							l	{SPACE}		no	BlockProc1		BlockList									47	Cued	d	color_green.png		-1	6	379862	310																			1					25	prime_left.png	0	379462	0	0	13	0	379462	0	379462	1	379462	20	0	-1	377963	379462	379461	0	prime_left.png	TrialProc1	left	0		0	10	379772	-379772		0	0	TrialList1	target_left.png	1	d	-1	3	379512	260	d	343	379855												2	1	47				neut			300
1 ver1_main_procedure	5	1	19	<?xml version="1.0"?>\n<Clock xmlns:dt="urn:schemas-microsoft-com:datatypes"><Description dt:dt="string">E-Prime Primary Realtime Clock</Description><StartTime><Timestamp dt:dt="int">0</Timestamp><DateUtc dt:dt="string">2015-08-10T07:54:23Z</DateUtc></StartTime><FrequencyChanges><FrequencyChange><Frequency dt:dt="r8">2612324</Frequency><Timestamp dt:dt="r8">9979341768</Timestamp><Current dt:dt="r8">0</Current><DateUtc dt:dt="string">2015-08-10T07:54:23Z</DateUtc></FrequencyChange></FrequencyChanges></Clock>\n	1 ver1_main_procedure-5-1	99.938	1.0.0.880	1	ms	1389899683	lewa	1	2.0.10.182	08-10-2015	2015-08-10 07:54:23	09:54:23	mezczyzna	2.0.10.92	3	2	1	1																							l	{SPACE}		no	BlockProc1		BlockList									48	Cued	l	color_orange.png		-1	7	382304	310																								25	prime_right.png	0	381983	0	0	13	1	381984	1	381984	0	381983	20	0	-1	380484	381983	381983	0		TrialProc1	right	0		0	11	382294	-382294		0	0	TrialList1	target_right.png	1	l	-1	3	382033	261	l	263	382296												4	1	48				comp			300
1 ver1_main_procedure	5	1	19	<?xml version="1.0"?>\n<Clock xmlns:dt="urn:schemas-microsoft-com:datatypes"><Description dt:dt="string">E-Prime Primary Realtime Clock</Description><StartTime><Timestamp dt:dt="int">0</Timestamp><DateUtc dt:dt="string">2015-08-10T07:54:23Z</DateUtc></StartTime><FrequencyChanges><FrequencyChange><Frequency dt:dt="r8">2612324</Frequency><Timestamp dt:dt="r8">9979341768</Timestamp><Current dt:dt="r8">0</Current><DateUtc dt:dt="string">2015-08-10T07:54:23Z</DateUtc></FrequencyChange></FrequencyChanges></Clock>\n	1 ver1_main_procedure-5-1	99.938	1.0.0.880	1	ms	1389899683	lewa	1	2.0.10.182	08-10-2015	2015-08-10 07:54:23	09:54:23	mezczyzna	2.0.10.92	3	2	1	1																							l	{SPACE}		no	BlockProc1		BlockList									49	Cued	l	color_red.png		-1	5	384805	460																			2					25	prime_right.png	0	384425	0	0	13	0	384425	0	384425	1	384425	20	0	-1	382926	384425	384424	0	prime_right.png	TrialProc1	right	0		0	10	384735	-384735		0	0	TrialList1	target_right.png	1	l	-1	3	384475	260	l	324	384799												5	1	49				neut			450
1 ver1_main_procedure	5	1	19	<?xml version="1.0"?>\n<Clock xmlns:dt="urn:schemas-microsoft-com:datatypes"><Description dt:dt="string">E-Prime Primary Realtime Clock</Description><StartTime><Timestamp dt:dt="int">0</Timestamp><DateUtc dt:dt="string">2015-08-10T07:54:23Z</DateUtc></StartTime><FrequencyChanges><FrequencyChange><Frequency dt:dt="r8">2612324</Frequency><Timestamp dt:dt="r8">9979341768</Timestamp><Current dt:dt="r8">0</Current><DateUtc dt:dt="string">2015-08-10T07:54:23Z</DateUtc></FrequencyChange></FrequencyChanges></Clock>\n	1 ver1_main_procedure-5-1	99.938	1.0.0.880	1	ms	1389899683	lewa	1	2.0.10.182	08-10-2015	2015-08-10 07:54:23	09:54:23	mezczyzna	2.0.10.92	3	2	1	1																							l	{SPACE}		no	BlockProc1		BlockList									50	Cued	l	color_purple.png		-1	15	387367	160																								75	prime_left.png	0	387076	0	0	13	1	387077	1	387077	1	387076	20	0	-1	385577	387076	387075	0		TrialProc1	right	0		0	0	0	0		0	0	TrialList1	target_right.png	1	l	-999999	3	387126	0	l	225	387351												6	1	50				incomp			150
1 ver1_main_procedure	5	1	19	<?xml version="1.0"?>\n<Clock xmlns:dt="urn:schemas-microsoft-com:datatypes"><Description dt:dt="string">E-Prime Primary Realtime Clock</Description><StartTime><Timestamp dt:dt="int">0</Timestamp><DateUtc dt:dt="string">2015-08-10T07:54:23Z</DateUtc></StartTime><FrequencyChanges><FrequencyChange><Frequency dt:dt="r8">2612324</Frequency><Timestamp dt:dt="r8">9979341768</Timestamp><Current dt:dt="r8">0</Current><DateUtc dt:dt="string">2015-08-10T07:54:23Z</DateUtc></FrequencyChange></FrequencyChanges></Clock>\n	1 ver1_main_procedure-5-1	99.938	1.0.0.880	1	ms	1389899683	lewa	1	2.0.10.182	08-10-2015	2015-08-10 07:54:23	09:54:23	mezczyzna	2.0.10.92	3	2	1	1																							l	{SPACE}		no	BlockProc1		BlockList									51	Free	dl	color_orange.png		-1	12	389668	160																								25	prime_right.png	0	389338	0	0	13	0	389338	0	389338	1	389338	20	0	-1	387839	389338	389337	0		TrialProc1	right	0		0	10	389648	-389648		0	0	TrialList1	target_both.png	0	dl	-1	3	389388	260	l	267	389655												10	1	51				comp			150
1 ver1_main_procedure	5	1	19	<?xml version="1.0"?>\n<Clock xmlns:dt="urn:schemas-microsoft-com:datatypes"><Description dt:dt="string">E-Prime Primary Realtime Clock</Description><StartTime><Timestamp dt:dt="int">0</Timestamp><DateUtc dt:dt="string">2015-08-10T07:54:23Z</DateUtc></StartTime><FrequencyChanges><FrequencyChange><Frequency dt:dt="r8">2612324</Frequency><Timestamp dt:dt="r8">9979341768</Timestamp><Current dt:dt="r8">0</Current><DateUtc dt:dt="string">2015-08-10T07:54:23Z</DateUtc></FrequencyChange></FrequencyChanges></Clock>\n	1 ver1_main_procedure-5-1	99.938	1.0.0.880	1	ms	1389899683	lewa	1	2.0.10.182	08-10-2015	2015-08-10 07:54:23	09:54:23	mezczyzna	2.0.10.92	3	2	1	1																							l	{SPACE}		no	BlockProc1		BlockList									52	Cued	d	color_green.png		-1	9	392009	310																			1					75	prime_left.png	0	391639	0	0	13	0	391639	0	391639	1	391639	20	0	-1	390140	391639	391638	0	prime_left.png	TrialProc1	left	0		0	10	391949	-391949		0	0	TrialList1	target_left.png	1	d	-1	3	391689	260	d	310	391999												2	1	52				neut			300
1 ver1_main_procedure	5	1	19	<?xml version="1.0"?>\n<Clock xmlns:dt="urn:schemas-microsoft-com:datatypes"><Description dt:dt="string">E-Prime Primary Realtime Clock</Description><StartTime><Timestamp dt:dt="int">0</Timestamp><DateUtc dt:dt="string">2015-08-10T07:54:23Z</DateUtc></StartTime><FrequencyChanges><FrequencyChange><Frequency dt:dt="r8">2612324</Frequency><Timestamp dt:dt="r8">9979341768</Timestamp><Current dt:dt="r8">0</Current><DateUtc dt:dt="string">2015-08-10T07:54:23Z</DateUtc></FrequencyChange></FrequencyChanges></Clock>\n	1 ver1_main_procedure-5-1	99.938	1.0.0.880	1	ms	1389899683	lewa	1	2.0.10.182	08-10-2015	2015-08-10 07:54:23	09:54:23	mezczyzna	2.0.10.92	3	2	1	1																							l	{SPACE}		no	BlockProc1		BlockList									53	Cued	l	color_purple.png		-1	9	394601	160																								75	prime_left.png	0	394131	0	0	13	0	394131	0	394131	1	394131	20	0	-1	392631	394131	394130	0		TrialProc1	right	0		0	10	394441	-394441		0	0	TrialList1	target_right.png	1	l	-1	3	394181	260	l	410	394591												6	1	53				incomp			150
1 ver1_main_procedure	5	1	19	<?xml version="1.0"?>\n<Clock xmlns:dt="urn:schemas-microsoft-com:datatypes"><Description dt:dt="string">E-Prime Primary Realtime Clock</Description><StartTime><Timestamp dt:dt="int">0</Timestamp><DateUtc dt:dt="string">2015-08-10T07:54:23Z</DateUtc></StartTime><FrequencyChanges><FrequencyChange><Frequency dt:dt="r8">2612324</Frequency><Timestamp dt:dt="r8">9979341768</Timestamp><Current dt:dt="r8">0</Current><DateUtc dt:dt="string">2015-08-10T07:54:23Z</DateUtc></FrequencyChange></FrequencyChanges></Clock>\n	1 ver1_main_procedure-5-1	99.938	1.0.0.880	1	ms	1389899683	lewa	1	2.0.10.182	08-10-2015	2015-08-10 07:54:23	09:54:23	mezczyzna	2.0.10.92	3	2	1	1																							l	{SPACE}		no	BlockProc1		BlockList									54	Cued	d	color_blue.png		-1	6	396982	460																								25	prime_left.png	0	396572	0	0	13	0	396572	0	396572	1	396572	20	0	-1	395073	396572	396571	0		TrialProc1	left	0		0	10	396882	-396882		0	0	TrialList1	target_left.png	1	d	-1	3	396622	260	d	353	396975												1	1	54				comp			450
1 ver1_main_procedure	5	1	19	<?xml version="1.0"?>\n<Clock xmlns:dt="urn:schemas-microsoft-com:datatypes"><Description dt:dt="string">E-Prime Primary Realtime Clock</Description><StartTime><Timestamp dt:dt="int">0</Timestamp><DateUtc dt:dt="string">2015-08-10T07:54:23Z</DateUtc></StartTime><FrequencyChanges><FrequencyChange><Frequency dt:dt="r8">2612324</Frequency><Timestamp dt:dt="r8">9979341768</Timestamp><Current dt:dt="r8">0</Current><DateUtc dt:dt="string">2015-08-10T07:54:23Z</DateUtc></FrequencyChange></FrequencyChanges></Clock>\n	1 ver1_main_procedure-5-1	99.938	1.0.0.880	1	ms	1389899683	lewa	1	2.0.10.182	08-10-2015	2015-08-10 07:54:23	09:54:23	mezczyzna	2.0.10.92	3	2	1	1																							l	{SPACE}		no	BlockProc1		BlockList									55	Cued	d	color_blue.png		-1	14	399694	460																								25	prime_left.png	0	399254	0	0	13	0	399254	0	399254	1	399254	20	0	-1	397754	399254	399253	0		TrialProc1	left	0		0	10	399564	-399564		0	0	TrialList1	target_left.png	1	d	-1	3	399304	260	d	375	399679												1	1	55				comp			450
1 ver1_main_procedure	5	1	19	<?xml version="1.0"?>\n<Clock xmlns:dt="urn:schemas-microsoft-com:datatypes"><Description dt:dt="string">E-Prime Primary Realtime Clock</Description><StartTime><Timestamp dt:dt="int">0</Timestamp><DateUtc dt:dt="string">2015-08-10T07:54:23Z</DateUtc></StartTime><FrequencyChanges><FrequencyChange><Frequency dt:dt="r8">2612324</Frequency><Timestamp dt:dt="r8">9979341768</Timestamp><Current dt:dt="r8">0</Current><DateUtc dt:dt="string">2015-08-10T07:54:23Z</DateUtc></FrequencyChange></FrequencyChanges></Clock>\n	1 ver1_main_procedure-5-1	99.938	1.0.0.880	1	ms	1389899683	lewa	1	2.0.10.182	08-10-2015	2015-08-10 07:54:23	09:54:23	mezczyzna	2.0.10.92	3	2	1	1																							l	{SPACE}		no	BlockProc1		BlockList									56	Cued	d	color_green.png		-1	9	402345	461																			2					75	prime_right.png	0	401965	0	0	13	0	401965	0	401965	1	401965	20	0	-1	400466	401965	401964	0	prime_right.png	TrialProc1	left	0		0	10	402275	-402275		0	0	TrialList1	target_left.png	1	d	-1	3	402015	260	d	320	402335												2	1	56				neut			450
1 ver1_main_procedure	5	1	19	<?xml version="1.0"?>\n<Clock xmlns:dt="urn:schemas-microsoft-com:datatypes"><Description dt:dt="string">E-Prime Primary Realtime Clock</Description><StartTime><Timestamp dt:dt="int">0</Timestamp><DateUtc dt:dt="string">2015-08-10T07:54:23Z</DateUtc></StartTime><FrequencyChanges><FrequencyChange><Frequency dt:dt="r8">2612324</Frequency><Timestamp dt:dt="r8">9979341768</Timestamp><Current dt:dt="r8">0</Current><DateUtc dt:dt="string">2015-08-10T07:54:23Z</DateUtc></FrequencyChange></FrequencyChanges></Clock>\n	1 ver1_main_procedure-5-1	99.938	1.0.0.880	1	ms	1389899683	lewa	1	2.0.10.182	08-10-2015	2015-08-10 07:54:23	09:54:23	mezczyzna	2.0.10.92	3	2	1	1																							l	{SPACE}		no	BlockProc1		BlockList									57	Cued	d	color_blue.png		-1	9	405057	160																								75	prime_left.png	0	404617	0	0	13	0	404617	0	404617	1	404617	20	0	-1	403117	404617	404616	0		TrialProc1	left	0		0	10	404927	-404927		0	0	TrialList1	target_left.png	1	d	-1	3	404667	260	d	381	405048												1	1	57				comp			150
1 ver1_main_procedure	5	1	19	<?xml version="1.0"?>\n<Clock xmlns:dt="urn:schemas-microsoft-com:datatypes"><Description dt:dt="string">E-Prime Primary Realtime Clock</Description><StartTime><Timestamp dt:dt="int">0</Timestamp><DateUtc dt:dt="string">2015-08-10T07:54:23Z</DateUtc></StartTime><FrequencyChanges><FrequencyChange><Frequency dt:dt="r8">2612324</Frequency><Timestamp dt:dt="r8">9979341768</Timestamp><Current dt:dt="r8">0</Current><DateUtc dt:dt="string">2015-08-10T07:54:23Z</DateUtc></FrequencyChange></FrequencyChanges></Clock>\n	1 ver1_main_procedure-5-1	99.938	1.0.0.880	1	ms	1389899683	lewa	1	2.0.10.182	08-10-2015	2015-08-10 07:54:23	09:54:23	mezczyzna	2.0.10.92	3	2	1	1																							l	{SPACE}		no	BlockProc1		BlockList									58	Free	dl	color_green.png		-1	14	407398	461																			1					75	prime_left.png	0	407028	0	0	13	0	407028	0	407028	1	407028	20	0	-1	405529	407028	407027	0	prime_left.png	TrialProc1	left	0		1	10	407338	-407338		0	0	TrialList1	target_both.png	0	dl	-1	3	407078	260	d	306	407384												8	1	58				neut			450
1 ver1_main_procedure	5	1	19	<?xml version="1.0"?>\n<Clock xmlns:dt="urn:schemas-microsoft-com:datatypes"><Description dt:dt="string">E-Prime Primary Realtime Clock</Description><StartTime><Timestamp dt:dt="int">0</Timestamp><DateUtc dt:dt="string">2015-08-10T07:54:23Z</DateUtc></StartTime><FrequencyChanges><FrequencyChange><Frequency dt:dt="r8">2612324</Frequency><Timestamp dt:dt="r8">9979341768</Timestamp><Current dt:dt="r8">0</Current><DateUtc dt:dt="string">2015-08-10T07:54:23Z</DateUtc></FrequencyChange></FrequencyChanges></Clock>\n	1 ver1_main_procedure-5-1	99.938	1.0.0.880	1	ms	1389899683	lewa	1	2.0.10.182	08-10-2015	2015-08-10 07:54:23	09:54:23	mezczyzna	2.0.10.92	3	2	1	1																							l	{SPACE}		no	BlockProc1		BlockList									59	Free	dl	color_red.png		-1	10	409970	160																			2					25	prime_right.png	0	409670	0	0	13	0	409670	0	409670	1	409670	20	0	-1	408171	409670	409669	0	prime_right.png	TrialProc1	right	0		0	0	0	0		0	0	TrialList1	target_both.png	0	dl	-999999	3	409720	0	l	240	409960												11	1	59				neut			150
1 ver1_main_procedure	5	1	19	<?xml version="1.0"?>\n<Clock xmlns:dt="urn:schemas-microsoft-com:datatypes"><Description dt:dt="string">E-Prime Primary Realtime Clock</Description><StartTime><Timestamp dt:dt="int">0</Timestamp><DateUtc dt:dt="string">2015-08-10T07:54:23Z</DateUtc></StartTime><FrequencyChanges><FrequencyChange><Frequency dt:dt="r8">2612324</Frequency><Timestamp dt:dt="r8">9979341768</Timestamp><Current dt:dt="r8">0</Current><DateUtc dt:dt="string">2015-08-10T07:54:23Z</DateUtc></FrequencyChange></FrequencyChanges></Clock>\n	1 ver1_main_procedure-5-1	99.938	1.0.0.880	1	ms	1389899683	lewa	1	2.0.10.182	08-10-2015	2015-08-10 07:54:23	09:54:23	mezczyzna	2.0.10.92	3	2	1	1																							l	{SPACE}		no	BlockProc1		BlockList									60	Cued	l	color_purple.png		-1	13	412341	160																								75	prime_left.png	0	411941	0	0	13	0	411941	0	411941	1	411941	20	0	-1	410442	411941	411940	0		TrialProc1	right	0		0	10	412251	-412251		0	0	TrialList1	target_right.png	1	l	-1	3	411991	260	l	337	412328												6	1	60				incomp			150
1 ver1_main_procedure	5	1	19	<?xml version="1.0"?>\n<Clock xmlns:dt="urn:schemas-microsoft-com:datatypes"><Description dt:dt="string">E-Prime Primary Realtime Clock</Description><StartTime><Timestamp dt:dt="int">0</Timestamp><DateUtc dt:dt="string">2015-08-10T07:54:23Z</DateUtc></StartTime><FrequencyChanges><FrequencyChange><Frequency dt:dt="r8">2612324</Frequency><Timestamp dt:dt="r8">9979341768</Timestamp><Current dt:dt="r8">0</Current><DateUtc dt:dt="string">2015-08-10T07:54:23Z</DateUtc></FrequencyChange></FrequencyChanges></Clock>\n	1 ver1_main_procedure-5-1	99.938	1.0.0.880	1	ms	1389899683	lewa	1	2.0.10.182	08-10-2015	2015-08-10 07:54:23	09:54:23	mezczyzna	2.0.10.92	3	2	1	1																							l	{SPACE}		no	BlockProc1		BlockList									61	Cued	l	color_purple.png		-1	10	414633	460																								75	prime_left.png	1	414313	0	0	13	1	414313	1	414313	0	414312	20	0	-1	412813	414312	414312	0		TrialProc1	right	0		-999999	11	414623	0		0	0	TrialList1	target_right.png	1	l	-1	3	414362	0	l	254	414616												6	1	61				incomp			450
1 ver1_main_procedure	5	1	19	<?xml version="1.0"?>\n<Clock xmlns:dt="urn:schemas-microsoft-com:datatypes"><Description dt:dt="string">E-Prime Primary Realtime Clock</Description><StartTime><Timestamp dt:dt="int">0</Timestamp><DateUtc dt:dt="string">2015-08-10T07:54:23Z</DateUtc></StartTime><FrequencyChanges><FrequencyChange><Frequency dt:dt="r8">2612324</Frequency><Timestamp dt:dt="r8">9979341768</Timestamp><Current dt:dt="r8">0</Current><DateUtc dt:dt="string">2015-08-10T07:54:23Z</DateUtc></FrequencyChange></FrequencyChanges></Clock>\n	1 ver1_main_procedure-5-1	99.938	1.0.0.880	1	ms	1389899683	lewa	1	2.0.10.182	08-10-2015	2015-08-10 07:54:23	09:54:23	mezczyzna	2.0.10.92	3	2	1	1																							l	{SPACE}		no	BlockProc1		BlockList									62	Cued	d	color_yellow.png		-1	8	417264	460																								25	prime_right.png	0	416904	0	0	13	0	416904	0	416904	1	416904	20	0	-1	415405	416904	416903	0		TrialProc1	left	0		0	10	417214	-417214		0	0	TrialList1	target_left.png	1	d	-1	3	416954	260	d	302	417256												3	1	62				incomp			450
1 ver1_main_procedure	5	1	19	<?xml version="1.0"?>\n<Clock xmlns:dt="urn:schemas-microsoft-com:datatypes"><Description dt:dt="string">E-Prime Primary Realtime Clock</Description><StartTime><Timestamp dt:dt="int">0</Timestamp><DateUtc dt:dt="string">2015-08-10T07:54:23Z</DateUtc></StartTime><FrequencyChanges><FrequencyChange><Frequency dt:dt="r8">2612324</Frequency><Timestamp dt:dt="r8">9979341768</Timestamp><Current dt:dt="r8">0</Current><DateUtc dt:dt="string">2015-08-10T07:54:23Z</DateUtc></FrequencyChange></FrequencyChanges></Clock>\n	1 ver1_main_procedure-5-1	99.938	1.0.0.880	1	ms	1389899683	lewa	1	2.0.10.182	08-10-2015	2015-08-10 07:54:23	09:54:23	mezczyzna	2.0.10.92	3	2	1	1																							l	{SPACE}		no	BlockProc1		BlockList									63	Cued	d			-1	14	419806	460																								75	prime_right.png	1	419536	0	0	13	1	419536	1	419536	0	419535	20	0	-1	418036	419535	419535	0		TrialProc1	left	0		0	0	0	0		0	0	TrialList1	target_left.png	0	d	-999999	3	419585	0	l	207	419792												3	1	63				incomp			450
1 ver1_main_procedure	5	1	19	<?xml version="1.0"?>\n<Clock xmlns:dt="urn:schemas-microsoft-com:datatypes"><Description dt:dt="string">E-Prime Primary Realtime Clock</Description><StartTime><Timestamp dt:dt="int">0</Timestamp><DateUtc dt:dt="string">2015-08-10T07:54:23Z</DateUtc></StartTime><FrequencyChanges><FrequencyChange><Frequency dt:dt="r8">2612324</Frequency><Timestamp dt:dt="r8">9979341768</Timestamp><Current dt:dt="r8">0</Current><DateUtc dt:dt="string">2015-08-10T07:54:23Z</DateUtc></FrequencyChange></FrequencyChanges></Clock>\n	1 ver1_main_procedure-5-1	99.938	1.0.0.880	1	ms	1389899683	lewa	1	2.0.10.182	08-10-2015	2015-08-10 07:54:23	09:54:23	mezczyzna	2.0.10.92	3	2	1	1																							l	{SPACE}		no	BlockProc1		BlockList									64	Cued	l	color_orange.png		-1	15	422487	160																								25	prime_right.png	0	422077	0	0	13	0	422077	0	422077	1	422077	20	0	-1	420578	422077	422076	0		TrialProc1	right	0		0	10	422387	-422387		0	0	TrialList1	target_right.png	1	l	-1	3	422127	260	l	345	422472												4	1	64				comp			150
1 ver1_main_procedure	5	1	19	<?xml version="1.0"?>\n<Clock xmlns:dt="urn:schemas-microsoft-com:datatypes"><Description dt:dt="string">E-Prime Primary Realtime Clock</Description><StartTime><Timestamp dt:dt="int">0</Timestamp><DateUtc dt:dt="string">2015-08-10T07:54:23Z</DateUtc></StartTime><FrequencyChanges><FrequencyChange><Frequency dt:dt="r8">2612324</Frequency><Timestamp dt:dt="r8">9979341768</Timestamp><Current dt:dt="r8">0</Current><DateUtc dt:dt="string">2015-08-10T07:54:23Z</DateUtc></FrequencyChange></FrequencyChanges></Clock>\n	1 ver1_main_procedure-5-1	99.938	1.0.0.880	1	ms	1389899683	lewa	1	2.0.10.182	08-10-2015	2015-08-10 07:54:23	09:54:23	mezczyzna	2.0.10.92	3	2	1	1																							l	{SPACE}		no	BlockProc1		BlockList									65	Cued	l			-1	7	424719	460																								25	prime_left.png	0	424458	0	0	13	1	424459	1	424459	1	424458	20	0	-1	422959	424458	424457	0		TrialProc1	right	0		0	0	0	0		0	0	TrialList1	target_right.png	0	l	-999999	3	424508	0	d	204	424712												6	1	65				incomp			450
1 ver1_main_procedure	5	1	19	<?xml version="1.0"?>\n<Clock xmlns:dt="urn:schemas-microsoft-com:datatypes"><Description dt:dt="string">E-Prime Primary Realtime Clock</Description><StartTime><Timestamp dt:dt="int">0</Timestamp><DateUtc dt:dt="string">2015-08-10T07:54:23Z</DateUtc></StartTime><FrequencyChanges><FrequencyChange><Frequency dt:dt="r8">2612324</Frequency><Timestamp dt:dt="r8">9979341768</Timestamp><Current dt:dt="r8">0</Current><DateUtc dt:dt="string">2015-08-10T07:54:23Z</DateUtc></FrequencyChange></FrequencyChanges></Clock>\n	1 ver1_main_procedure-5-1	99.938	1.0.0.880	1	ms	1389899683	lewa	1	2.0.10.182	08-10-2015	2015-08-10 07:54:23	09:54:23	mezczyzna	2.0.10.92	3	2	1	1																							l	{SPACE}		no	BlockProc1		BlockList									66	Free	dl	color_blue.png		-1	11	427380	460																								75	prime_left.png	0	426991	0	0	13	0	426991	0	426991	2	426991	19	0	-1	425491	426991	426989	0		TrialProc1	right	0		0	10	427300	-427300		0	0	TrialList1	target_both.png	0	dl	-1	3	427040	260	d	328	427368												12	1	66				incomp			450
1 ver1_main_procedure	5	1	19	<?xml version="1.0"?>\n<Clock xmlns:dt="urn:schemas-microsoft-com:datatypes"><Description dt:dt="string">E-Prime Primary Realtime Clock</Description><StartTime><Timestamp dt:dt="int">0</Timestamp><DateUtc dt:dt="string">2015-08-10T07:54:23Z</DateUtc></StartTime><FrequencyChanges><FrequencyChange><Frequency dt:dt="r8">2612324</Frequency><Timestamp dt:dt="r8">9979341768</Timestamp><Current dt:dt="r8">0</Current><DateUtc dt:dt="string">2015-08-10T07:54:23Z</DateUtc></FrequencyChange></FrequencyChanges></Clock>\n	1 ver1_main_procedure-5-1	99.938	1.0.0.880	1	ms	1389899683	lewa	1	2.0.10.182	08-10-2015	2015-08-10 07:54:23	09:54:23	mezczyzna	2.0.10.92	3	2	1	1																							l	{SPACE}		no	BlockProc1		BlockList									67	Cued	d	color_blue.png		-1	11	430172	160																								25	prime_left.png	1	429652	0	0	13	1	429652	1	429652	0	429651	20	0	-1	428152	429651	429651	0		TrialProc1	left	0		0	11	429962	-429962		0	0	TrialList1	target_left.png	1	d	-1	3	429701	261	d	459	430160												1	1	67				comp			150
1 ver1_main_procedure	5	1	19	<?xml version="1.0"?>\n<Clock xmlns:dt="urn:schemas-microsoft-com:datatypes"><Description dt:dt="string">E-Prime Primary Realtime Clock</Description><StartTime><Timestamp dt:dt="int">0</Timestamp><DateUtc dt:dt="string">2015-08-10T07:54:23Z</DateUtc></StartTime><FrequencyChanges><FrequencyChange><Frequency dt:dt="r8">2612324</Frequency><Timestamp dt:dt="r8">9979341768</Timestamp><Current dt:dt="r8">0</Current><DateUtc dt:dt="string">2015-08-10T07:54:23Z</DateUtc></FrequencyChange></FrequencyChanges></Clock>\n	1 ver1_main_procedure-5-1	99.938	1.0.0.880	1	ms	1389899683	lewa	1	2.0.10.182	08-10-2015	2015-08-10 07:54:23	09:54:23	mezczyzna	2.0.10.92	3	2	1	1																							l	{SPACE}		no	BlockProc1		BlockList									68	Free	dl	color_red.png		-1	14	432423	460																			1					25	prime_left.png	0	432143	0	0	13	0	432143	0	432143	1	432143	20	0	-1	430644	432143	432142	0	prime_left.png	TrialProc1	left	0		0	0	0	0		0	0	TrialList1	target_both.png	0	dl	-999999	3	432193	0	l	215	432408												8	1	68				neut			450
1 ver1_main_procedure	5	1	19	<?xml version="1.0"?>\n<Clock xmlns:dt="urn:schemas-microsoft-com:datatypes"><Description dt:dt="string">E-Prime Primary Realtime Clock</Description><StartTime><Timestamp dt:dt="int">0</Timestamp><DateUtc dt:dt="string">2015-08-10T07:54:23Z</DateUtc></StartTime><FrequencyChanges><FrequencyChange><Frequency dt:dt="r8">2612324</Frequency><Timestamp dt:dt="r8">9979341768</Timestamp><Current dt:dt="r8">0</Current><DateUtc dt:dt="string">2015-08-10T07:54:23Z</DateUtc></FrequencyChange></FrequencyChanges></Clock>\n	1 ver1_main_procedure-5-1	99.938	1.0.0.880	1	ms	1389899683	lewa	1	2.0.10.182	08-10-2015	2015-08-10 07:54:23	09:54:23	mezczyzna	2.0.10.92	3	2	1	1																							l	{SPACE}		no	BlockProc1		BlockList									69	Cued	d			-1	10	435075	460																			2					25	prime_right.png	0	434694	0	0	13	1	434695	1	434695	1	434694	21	0	-1	433195	434694	434693	0	prime_right.png	TrialProc1	left	0		0	11	435005	-435005		0	0	TrialList1	target_left.png	0	d	-1	2	434744	261	l	320	435064												2	1	69				neut			450
1 ver1_main_procedure	5	1	19	<?xml version="1.0"?>\n<Clock xmlns:dt="urn:schemas-microsoft-com:datatypes"><Description dt:dt="string">E-Prime Primary Realtime Clock</Description><StartTime><Timestamp dt:dt="int">0</Timestamp><DateUtc dt:dt="string">2015-08-10T07:54:23Z</DateUtc></StartTime><FrequencyChanges><FrequencyChange><Frequency dt:dt="r8">2612324</Frequency><Timestamp dt:dt="r8">9979341768</Timestamp><Current dt:dt="r8">0</Current><DateUtc dt:dt="string">2015-08-10T07:54:23Z</DateUtc></FrequencyChange></FrequencyChanges></Clock>\n	1 ver1_main_procedure-5-1	99.938	1.0.0.880	1	ms	1389899683	lewa	1	2.0.10.182	08-10-2015	2015-08-10 07:54:23	09:54:23	mezczyzna	2.0.10.92	3	2	1	1																							l	{SPACE}		no	BlockProc1		BlockList									70	Cued	l	color_purple.png		-1	7	437816	311																								25	prime_left.png	0	437346	0	0	13	0	437346	0	437346	1	437346	20	0	-1	435847	437346	437345	0		TrialProc1	right	0		0	10	437656	-437656		0	0	TrialList1	target_right.png	1	l	-1	3	437396	260	l	412	437808												6	1	70				incomp			300
1 ver1_main_procedure	5	1	19	<?xml version="1.0"?>\n<Clock xmlns:dt="urn:schemas-microsoft-com:datatypes"><Description dt:dt="string">E-Prime Primary Realtime Clock</Description><StartTime><Timestamp dt:dt="int">0</Timestamp><DateUtc dt:dt="string">2015-08-10T07:54:23Z</DateUtc></StartTime><FrequencyChanges><FrequencyChange><Frequency dt:dt="r8">2612324</Frequency><Timestamp dt:dt="r8">9979341768</Timestamp><Current dt:dt="r8">0</Current><DateUtc dt:dt="string">2015-08-10T07:54:23Z</DateUtc></FrequencyChange></FrequencyChanges></Clock>\n	1 ver1_main_procedure-5-1	99.938	1.0.0.880	1	ms	1389899683	lewa	1	2.0.10.182	08-10-2015	2015-08-10 07:54:23	09:54:23	mezczyzna	2.0.10.92	3	2	1	1																							l	{SPACE}		no	BlockProc1		BlockList									71	Cued	l	color_orange.png		-1	5	440438	310																								75	prime_right.png	1	439938	0	0	13	1	439938	1	439938	0	439937	20	0	-1	438438	439937	439937	0		TrialProc1	right	0		0	11	440248	-440248		0	0	TrialList1	target_right.png	1	l	-1	3	439987	261	l	445	440432												4	1	71				comp			300
1 ver1_main_procedure	5	1	19	<?xml version="1.0"?>\n<Clock xmlns:dt="urn:schemas-microsoft-com:datatypes"><Description dt:dt="string">E-Prime Primary Realtime Clock</Description><StartTime><Timestamp dt:dt="int">0</Timestamp><DateUtc dt:dt="string">2015-08-10T07:54:23Z</DateUtc></StartTime><FrequencyChanges><FrequencyChange><Frequency dt:dt="r8">2612324</Frequency><Timestamp dt:dt="r8">9979341768</Timestamp><Current dt:dt="r8">0</Current><DateUtc dt:dt="string">2015-08-10T07:54:23Z</DateUtc></FrequencyChange></FrequencyChanges></Clock>\n	1 ver1_main_procedure-5-1	99.938	1.0.0.880	1	ms	1389899683	lewa	1	2.0.10.182	08-10-2015	2015-08-10 07:54:23	09:54:23	mezczyzna	2.0.10.92	3	2	1	1																							l	{SPACE}		no	BlockProc1		BlockList									72	Cued	l	color_red.png		-1	14	442999	311																			1					75	prime_left.png	0	442559	0	0	13	0	442559	0	442559	1	442559	20	0	-1	441060	442559	442558	0	prime_left.png	TrialProc1	right	0		0	10	442869	-442869		0	0	TrialList1	target_right.png	1	l	-1	3	442609	260	l	375	442984												5	1	72				neut			300
1 ver1_main_procedure	5	1	19	<?xml version="1.0"?>\n<Clock xmlns:dt="urn:schemas-microsoft-com:datatypes"><Description dt:dt="string">E-Prime Primary Realtime Clock</Description><StartTime><Timestamp dt:dt="int">0</Timestamp><DateUtc dt:dt="string">2015-08-10T07:54:23Z</DateUtc></StartTime><FrequencyChanges><FrequencyChange><Frequency dt:dt="r8">2612324</Frequency><Timestamp dt:dt="r8">9979341768</Timestamp><Current dt:dt="r8">0</Current><DateUtc dt:dt="string">2015-08-10T07:54:23Z</DateUtc></FrequencyChange></FrequencyChanges></Clock>\n	1 ver1_main_procedure-5-1	99.938	1.0.0.880	1	ms	1389899683	lewa	1	2.0.10.182	08-10-2015	2015-08-10 07:54:23	09:54:23	mezczyzna	2.0.10.92	3	2	1	1																							l	{SPACE}		no	BlockProc1		BlockList									73									5	3	4	2	6	1	color_orange.png	color_yellow.png	color_purple.png	color_blue.png	color_red.png	color_green.png	color_green.png	color_blue.png	color_yellow.png	color_purple.png	color_orange.png	color_red.png		1	1	1	23663																						DragProc											Ocena																															
1 ver1_main_procedure	5	1	19	<?xml version="1.0"?>\n<Clock xmlns:dt="urn:schemas-microsoft-com:datatypes"><Description dt:dt="string">E-Prime Primary Realtime Clock</Description><StartTime><Timestamp dt:dt="int">0</Timestamp><DateUtc dt:dt="string">2015-08-10T07:54:23Z</DateUtc></StartTime><FrequencyChanges><FrequencyChange><Frequency dt:dt="r8">2612324</Frequency><Timestamp dt:dt="r8">9979341768</Timestamp><Current dt:dt="r8">0</Current><DateUtc dt:dt="string">2015-08-10T07:54:23Z</DateUtc></FrequencyChange></FrequencyChanges></Clock>\n	1 ver1_main_procedure-5-1	99.938	1.0.0.880	1	ms	1389899683	lewa	1	2.0.10.182	08-10-2015	2015-08-10 07:54:23	09:54:23	mezczyzna	2.0.10.92	3	2	1	1																							l	{SPACE}		no	BlockProc1		BlockList									74															color_orange.png	color_yellow.png	color_purple.png	color_blue.png	color_red.png	color_green.png								2	1	2																							EnterProc											Ocena												01	02	03	04	05	06														
1 ver1_main_procedure	5	1	19	<?xml version="1.0"?>\n<Clock xmlns:dt="urn:schemas-microsoft-com:datatypes"><Description dt:dt="string">E-Prime Primary Realtime Clock</Description><StartTime><Timestamp dt:dt="int">0</Timestamp><DateUtc dt:dt="string">2015-08-10T07:54:23Z</DateUtc></StartTime><FrequencyChanges><FrequencyChange><Frequency dt:dt="r8">2612324</Frequency><Timestamp dt:dt="r8">9979341768</Timestamp><Current dt:dt="r8">0</Current><DateUtc dt:dt="string">2015-08-10T07:54:23Z</DateUtc></FrequencyChange></FrequencyChanges></Clock>\n	1 ver1_main_procedure-5-1	99.938	1.0.0.880	1	ms	1389899683	lewa	1	2.0.10.182	08-10-2015	2015-08-10 07:54:23	09:54:23	mezczyzna	2.0.10.92	4	1	1	2																							l	{SPACE}		no	BlockProc1		BlockList									1	Cued	d	color_green.png		-1	11	572325	160																								25	prime_left.png	0	571955	0	0	13	0	571955	0	571955	1	571955	20	0	-1	570456	571955	571954	0		TrialProc1	left	0		0	10	572265	-572265		0	0	TrialList1	target_left.png	1	d	-1	3	572005	260	d	309	572314												1	2	73				comp			150
1 ver1_main_procedure	5	1	19	<?xml version="1.0"?>\n<Clock xmlns:dt="urn:schemas-microsoft-com:datatypes"><Description dt:dt="string">E-Prime Primary Realtime Clock</Description><StartTime><Timestamp dt:dt="int">0</Timestamp><DateUtc dt:dt="string">2015-08-10T07:54:23Z</DateUtc></StartTime><FrequencyChanges><FrequencyChange><Frequency dt:dt="r8">2612324</Frequency><Timestamp dt:dt="r8">9979341768</Timestamp><Current dt:dt="r8">0</Current><DateUtc dt:dt="string">2015-08-10T07:54:23Z</DateUtc></FrequencyChange></FrequencyChanges></Clock>\n	1 ver1_main_procedure-5-1	99.938	1.0.0.880	1	ms	1389899683	lewa	1	2.0.10.182	08-10-2015	2015-08-10 07:54:23	09:54:23	mezczyzna	2.0.10.92	4	1	1	2																							l	{SPACE}		no	BlockProc1		BlockList									2	Cued	l	color_red.png		-1	11	574717	310																								75	prime_left.png	1	574297	0	0	13	1	574297	1	574297	0	574296	20	0	-1	572797	574296	574296	0		TrialProc1	right	0		0	11	574607	-574607		0	0	TrialList1	target_right.png	1	l	-1	3	574346	261	l	360	574706												6	2	74				incomp			300
1 ver1_main_procedure	5	1	19	<?xml version="1.0"?>\n<Clock xmlns:dt="urn:schemas-microsoft-com:datatypes"><Description dt:dt="string">E-Prime Primary Realtime Clock</Description><StartTime><Timestamp dt:dt="int">0</Timestamp><DateUtc dt:dt="string">2015-08-10T07:54:23Z</DateUtc></StartTime><FrequencyChanges><FrequencyChange><Frequency dt:dt="r8">2612324</Frequency><Timestamp dt:dt="r8">9979341768</Timestamp><Current dt:dt="r8">0</Current><DateUtc dt:dt="string">2015-08-10T07:54:23Z</DateUtc></FrequencyChange></FrequencyChanges></Clock>\n	1 ver1_main_procedure-5-1	99.938	1.0.0.880	1	ms	1389899683	lewa	1	2.0.10.182	08-10-2015	2015-08-10 07:54:23	09:54:23	mezczyzna	2.0.10.92	4	1	1	2																							l	{SPACE}		no	BlockProc1		BlockList									3	Cued	d	color_green.png		-1	6	577168	160																								25	prime_left.png	0	576838	0	0	13	0	576838	0	576838	1	576838	20	0	-1	575339	576838	576837	0		TrialProc1	left	0		0	10	577148	-577148		0	0	TrialList1	target_left.png	1	d	-1	3	576888	260	d	274	577162												1	2	75				comp			150
1 ver1_main_procedure	5	1	19	<?xml version="1.0"?>\n<Clock xmlns:dt="urn:schemas-microsoft-com:datatypes"><Description dt:dt="string">E-Prime Primary Realtime Clock</Description><StartTime><Timestamp dt:dt="int">0</Timestamp><DateUtc dt:dt="string">2015-08-10T07:54:23Z</DateUtc></StartTime><FrequencyChanges><FrequencyChange><Frequency dt:dt="r8">2612324</Frequency><Timestamp dt:dt="r8">9979341768</Timestamp><Current dt:dt="r8">0</Current><DateUtc dt:dt="string">2015-08-10T07:54:23Z</DateUtc></FrequencyChange></FrequencyChanges></Clock>\n	1 ver1_main_procedure-5-1	99.938	1.0.0.880	1	ms	1389899683	lewa	1	2.0.10.182	08-10-2015	2015-08-10 07:54:23	09:54:23	mezczyzna	2.0.10.92	4	1	1	2																							l	{SPACE}		no	BlockProc1		BlockList									4	Cued	l	color_purple.png		-1	5	579479	311																								25	prime_right.png	0	579139	0	0	13	0	579140	0	579139	1	579139	20	0	-1	577640	579139	579138	0		TrialProc1	right	0		1	10	579449	-579449		0	0	TrialList1	target_right.png	1	l	-1	3	579189	260	l	285	579474												4	2	76				comp			300
1 ver1_main_procedure	5	1	19	<?xml version="1.0"?>\n<Clock xmlns:dt="urn:schemas-microsoft-com:datatypes"><Description dt:dt="string">E-Prime Primary Realtime Clock</Description><StartTime><Timestamp dt:dt="int">0</Timestamp><DateUtc dt:dt="string">2015-08-10T07:54:23Z</DateUtc></StartTime><FrequencyChanges><FrequencyChange><Frequency dt:dt="r8">2612324</Frequency><Timestamp dt:dt="r8">9979341768</Timestamp><Current dt:dt="r8">0</Current><DateUtc dt:dt="string">2015-08-10T07:54:23Z</DateUtc></FrequencyChange></FrequencyChanges></Clock>\n	1 ver1_main_procedure-5-1	99.938	1.0.0.880	1	ms	1389899683	lewa	1	2.0.10.182	08-10-2015	2015-08-10 07:54:23	09:54:23	mezczyzna	2.0.10.92	4	1	1	2																							l	{SPACE}		no	BlockProc1		BlockList									5	Free	dl	color_yellow.png		-1	13	581951	310																			2					25	prime_right.png	0	581601	0	0	13	0	581601	0	581601	1	581601	20	0	-1	580102	581601	581600	0	prime_right.png	TrialProc1	right	0		0	10	581911	-581911		0	0	TrialList1	target_both.png	0	dl	-1	3	581651	260	l	287	581938												11	2	77				neut			300
1 ver1_main_procedure	5	1	19	<?xml version="1.0"?>\n<Clock xmlns:dt="urn:schemas-microsoft-com:datatypes"><Description dt:dt="string">E-Prime Primary Realtime Clock</Description><StartTime><Timestamp dt:dt="int">0</Timestamp><DateUtc dt:dt="string">2015-08-10T07:54:23Z</DateUtc></StartTime><FrequencyChanges><FrequencyChange><Frequency dt:dt="r8">2612324</Frequency><Timestamp dt:dt="r8">9979341768</Timestamp><Current dt:dt="r8">0</Current><DateUtc dt:dt="string">2015-08-10T07:54:23Z</DateUtc></FrequencyChange></FrequencyChanges></Clock>\n	1 ver1_main_procedure-5-1	99.938	1.0.0.880	1	ms	1389899683	lewa	1	2.0.10.182	08-10-2015	2015-08-10 07:54:23	09:54:23	mezczyzna	2.0.10.92	4	1	1	2																							l	{SPACE}		no	BlockProc1		BlockList									6	Free	dl	color_orange.png		-1	8	584522	311																			1					75	prime_left.png	0	584072	0	0	13	0	584072	0	584072	1	584072	20	0	-1	582573	584072	584071	0	prime_left.png	TrialProc1	right	0		1	10	584382	-584382		0	0	TrialList1	target_both.png	0	dl	-1	3	584122	260	d	392	584514												11	2	78				neut			300
1 ver1_main_procedure	5	1	19	<?xml version="1.0"?>\n<Clock xmlns:dt="urn:schemas-microsoft-com:datatypes"><Description dt:dt="string">E-Prime Primary Realtime Clock</Description><StartTime><Timestamp dt:dt="int">0</Timestamp><DateUtc dt:dt="string">2015-08-10T07:54:23Z</DateUtc></StartTime><FrequencyChanges><FrequencyChange><Frequency dt:dt="r8">2612324</Frequency><Timestamp dt:dt="r8">9979341768</Timestamp><Current dt:dt="r8">0</Current><DateUtc dt:dt="string">2015-08-10T07:54:23Z</DateUtc></FrequencyChange></FrequencyChanges></Clock>\n	1 ver1_main_procedure-5-1	99.938	1.0.0.880	1	ms	1389899683	lewa	1	2.0.10.182	08-10-2015	2015-08-10 07:54:23	09:54:23	mezczyzna	2.0.10.92	4	1	1	2																							l	{SPACE}		no	BlockProc1		BlockList									7	Cued	d	color_blue.png		-1	12	587014	160																								75	prime_right.png	0	586644	0	0	13	0	586644	0	586644	1	586644	20	0	-1	585144	586644	586643	0		TrialProc1	left	0		0	10	586954	-586954		0	0	TrialList1	target_left.png	1	d	-1	3	586694	260	d	308	587002												3	2	79				incomp			150
1 ver1_main_procedure	5	1	19	<?xml version="1.0"?>\n<Clock xmlns:dt="urn:schemas-microsoft-com:datatypes"><Description dt:dt="string">E-Prime Primary Realtime Clock</Description><StartTime><Timestamp dt:dt="int">0</Timestamp><DateUtc dt:dt="string">2015-08-10T07:54:23Z</DateUtc></StartTime><FrequencyChanges><FrequencyChange><Frequency dt:dt="r8">2612324</Frequency><Timestamp dt:dt="r8">9979341768</Timestamp><Current dt:dt="r8">0</Current><DateUtc dt:dt="string">2015-08-10T07:54:23Z</DateUtc></FrequencyChange></FrequencyChanges></Clock>\n	1 ver1_main_procedure-5-1	99.938	1.0.0.880	1	ms	1389899683	lewa	1	2.0.10.182	08-10-2015	2015-08-10 07:54:23	09:54:23	mezczyzna	2.0.10.92	4	1	1	2																							l	{SPACE}		no	BlockProc1		BlockList									8	Cued	d	color_orange.png		-1	13	589335	310																			2					25	prime_right.png	0	588985	0	0	13	0	588985	0	588985	1	588985	20	0	-1	587486	588985	588984	0	prime_right.png	TrialProc1	left	0		0	10	589295	-589295		0	0	TrialList1	target_left.png	1	d	-1	3	589035	260	d	287	589322												2	2	80				neut			300
1 ver1_main_procedure	5	1	19	<?xml version="1.0"?>\n<Clock xmlns:dt="urn:schemas-microsoft-com:datatypes"><Description dt:dt="string">E-Prime Primary Realtime Clock</Description><StartTime><Timestamp dt:dt="int">0</Timestamp><DateUtc dt:dt="string">2015-08-10T07:54:23Z</DateUtc></StartTime><FrequencyChanges><FrequencyChange><Frequency dt:dt="r8">2612324</Frequency><Timestamp dt:dt="r8">9979341768</Timestamp><Current dt:dt="r8">0</Current><DateUtc dt:dt="string">2015-08-10T07:54:23Z</DateUtc></FrequencyChange></FrequencyChanges></Clock>\n	1 ver1_main_procedure-5-1	99.938	1.0.0.880	1	ms	1389899683	lewa	1	2.0.10.182	08-10-2015	2015-08-10 07:54:23	09:54:23	mezczyzna	2.0.10.92	4	1	1	2																							l	{SPACE}		no	BlockProc1		BlockList									9	Cued	d	color_green.png		-1	10	591777	160																								25	prime_left.png	1	591457	0	0	13	1	591457	1	591457	0	591456	21	0	-1	589957	591456	591456	0		TrialProc1	left	0		-999999	10	591767	0		0	0	TrialList1	target_left.png	1	d	-1	3	591507	0	d	255	591762												1	2	81				comp			150
1 ver1_main_procedure	5	1	19	<?xml version="1.0"?>\n<Clock xmlns:dt="urn:schemas-microsoft-com:datatypes"><Description dt:dt="string">E-Prime Primary Realtime Clock</Description><StartTime><Timestamp dt:dt="int">0</Timestamp><DateUtc dt:dt="string">2015-08-10T07:54:23Z</DateUtc></StartTime><FrequencyChanges><FrequencyChange><Frequency dt:dt="r8">2612324</Frequency><Timestamp dt:dt="r8">9979341768</Timestamp><Current dt:dt="r8">0</Current><DateUtc dt:dt="string">2015-08-10T07:54:23Z</DateUtc></FrequencyChange></FrequencyChanges></Clock>\n	1 ver1_main_procedure-5-1	99.938	1.0.0.880	1	ms	1389899683	lewa	1	2.0.10.182	08-10-2015	2015-08-10 07:54:23	09:54:23	mezczyzna	2.0.10.92	4	1	1	2																							l	{SPACE}		no	BlockProc1		BlockList									10	Cued	d	color_orange.png		-1	5	594128	310																			1					75	prime_left.png	0	593748	0	0	13	0	593748	0	593748	1	593748	20	0	-1	592249	593748	593747	0	prime_left.png	TrialProc1	left	0		0	10	594058	-594058		0	0	TrialList1	target_left.png	1	d	-1	3	593798	260	d	324	594122												2	2	82				neut			300
