ExperimentName	Subject	Session	Age	Clock.Information	DataFile.Basename	Display.RefreshRate	ExperimentVersion	Group	Name	RandomSeed	Recznosc	ResearcherID	RuntimeVersion	SessionDate	SessionStartDateTimeUtc	SessionTime	Sex	StudioVersion	Block	BlockList	BlockList.Cycle	BlockList.Sample	BlockNumber	GoodBye.RESP	GoodBye2.RESP	GoodByeList	GoodByeList.Cycle	GoodByeList.Sample	InstrList	InstrList.Cycle	InstrList.Sample	Instructions3.RESP	Instructions4.RESP	Instructions5.RESP	kobieta_S1	kobieta_S2	kobieta_S3	kobieta_S4	kobieta_S5	mezczyzna_S1	mezczyzna_S2	mezczyzna_S3	mezczyzna_S4	mezczyzna_S5	NextBlock.RESP	NextBlock0.RESP	planowanie	PracticeMode	Procedure[Block]	proszenie	Running[Block]	TrainingList	TrainingList.Cycle	TrainingList.Sample	WordList	WordList1	wykonanie	zauwazenie	zrozumienie	Trial	ChoiceType	CorrectRespon	Effect	ErrorText	Fixation2.DurationError	Fixation2.OnsetDelay	Fixation2.OnsetTime	Fixation2.OnsetToOnsetTime	GoalRespInd1	GoalRespInd2	GoalRespInd3	GoalRespInd4	GoalRespInd5	GoalRespInd6	GoalRespName1	GoalRespName2	GoalRespName3	GoalRespName4	GoalRespName5	GoalRespName6	kol1	kol2	kol3	kol4	kol5	kol6	NeutralPrimeList1	Ocena	Ocena.Cycle	Ocena.Sample	OverallRT	Posit	Prime	Prime.ActionDelay	Prime.ActionTime	Prime.CustomOffsetTime	Prime.CustomOnsetTime	Prime.Duration	Prime.DurationError	Prime.FinishTime	Prime.OffsetDelay	Prime.OffsetTime	Prime.OnsetDelay	Prime.OnsetTime	Prime.OnsetToOnsetTime	Prime.PendingInputMasks	Prime.PreRelease	Prime.StartTime	Prime.TargetOffsetTime	Prime.TargetOnsetTime	Prime.TimingMode	PrimeChoice	Procedure[Trial]	Resp	RespWin.ACC	RespWin.CRESP	RespWin.DurationError	RespWin.OnsetDelay	RespWin.OnsetTime	RespWin.OnsetToOnsetTime	RespWin.RESP	RespWin.RT	RespWin.RTTime	Running[Trial]	Target	TargetSlide.ACC	TargetSlide.CRESP	TargetSlide.DurationError	TargetSlide.OnsetDelay	TargetSlide.OnsetTime	TargetSlide.OnsetToOnsetTime	TargetSlide.RESP	TargetSlide.RT	TargetSlide.RTTime	TargetTraining	TBox1	TBox2	TBox3	TBox4	TBox5	TBox6	TrainingList1	TrainingList1.Cycle	TrainingList1.Sample	TrCorrectResp	TrialList1	TrialList1.Cycle	TrialList1.Sample	TrialList2	TrialList2.Cycle	TrialList2.Sample	TrialType	TrPosit	TrWaitTime	WaitTime
1 ver1_main_procedure	6	1	20	<?xml version="1.0"?>\n<Clock xmlns:dt="urn:schemas-microsoft-com:datatypes"><Description dt:dt="string">E-Prime Primary Realtime Clock</Description><StartTime><Timestamp dt:dt="int">0</Timestamp><DateUtc dt:dt="string">2015-08-10T09:53:30Z</DateUtc></StartTime><FrequencyChanges><FrequencyChange><Frequency dt:dt="r8">2612324</Frequency><Timestamp dt:dt="r8">28649475972</Timestamp><Current dt:dt="r8">0</Current><DateUtc dt:dt="string">2015-08-10T09:53:30Z</DateUtc></FrequencyChange></FrequencyChanges></Clock>\n	1 ver1_main_procedure-6-1	99.938	1.0.0.880	2	tm	-1414793926	prawa	1	2.0.10.182	08-10-2015	2015-08-10 09:53:30	11:53:30	mezczyzna	2.0.10.92	1										1	1	1	{SPACE}	{SPACE}	l	poproszona	planowała	zrozumiałaś	wykonała		poproszony	planował	zrozumiałeś	wykonał				planował		InstrProc	poproszony	InstrList				1		wykonał		zrozumiałeś																																																																																																
1 ver1_main_procedure	6	1	20	<?xml version="1.0"?>\n<Clock xmlns:dt="urn:schemas-microsoft-com:datatypes"><Description dt:dt="string">E-Prime Primary Realtime Clock</Description><StartTime><Timestamp dt:dt="int">0</Timestamp><DateUtc dt:dt="string">2015-08-10T09:53:30Z</DateUtc></StartTime><FrequencyChanges><FrequencyChange><Frequency dt:dt="r8">2612324</Frequency><Timestamp dt:dt="r8">28649475972</Timestamp><Current dt:dt="r8">0</Current><DateUtc dt:dt="string">2015-08-10T09:53:30Z</DateUtc></FrequencyChange></FrequencyChanges></Clock>\n	1 ver1_main_procedure-6-1	99.938	1.0.0.880	2	tm	-1414793926	prawa	1	2.0.10.182	08-10-2015	2015-08-10 09:53:30	11:53:30	mezczyzna	2.0.10.92	2																														TrainingProc1		TrainingList	1	1	1						1																																																					TrainProc											TrainingList1											target_both.png							3	1	1	dl								25	300	
1 ver1_main_procedure	6	1	20	<?xml version="1.0"?>\n<Clock xmlns:dt="urn:schemas-microsoft-com:datatypes"><Description dt:dt="string">E-Prime Primary Realtime Clock</Description><StartTime><Timestamp dt:dt="int">0</Timestamp><DateUtc dt:dt="string">2015-08-10T09:53:30Z</DateUtc></StartTime><FrequencyChanges><FrequencyChange><Frequency dt:dt="r8">2612324</Frequency><Timestamp dt:dt="r8">28649475972</Timestamp><Current dt:dt="r8">0</Current><DateUtc dt:dt="string">2015-08-10T09:53:30Z</DateUtc></FrequencyChange></FrequencyChanges></Clock>\n	1 ver1_main_procedure-6-1	99.938	1.0.0.880	2	tm	-1414793926	prawa	1	2.0.10.182	08-10-2015	2015-08-10 09:53:30	11:53:30	mezczyzna	2.0.10.92	2																														TrainingProc1		TrainingList	1	1	1						2																																																					TrainProc											TrainingList1											target_left.png							1	1	2	d								75	300	
1 ver1_main_procedure	6	1	20	<?xml version="1.0"?>\n<Clock xmlns:dt="urn:schemas-microsoft-com:datatypes"><Description dt:dt="string">E-Prime Primary Realtime Clock</Description><StartTime><Timestamp dt:dt="int">0</Timestamp><DateUtc dt:dt="string">2015-08-10T09:53:30Z</DateUtc></StartTime><FrequencyChanges><FrequencyChange><Frequency dt:dt="r8">2612324</Frequency><Timestamp dt:dt="r8">28649475972</Timestamp><Current dt:dt="r8">0</Current><DateUtc dt:dt="string">2015-08-10T09:53:30Z</DateUtc></FrequencyChange></FrequencyChanges></Clock>\n	1 ver1_main_procedure-6-1	99.938	1.0.0.880	2	tm	-1414793926	prawa	1	2.0.10.182	08-10-2015	2015-08-10 09:53:30	11:53:30	mezczyzna	2.0.10.92	2																														TrainingProc1		TrainingList	1	1	1						3																																																					TrainProc											TrainingList1											target_left.png							1	1	3	d								75	450	
1 ver1_main_procedure	6	1	20	<?xml version="1.0"?>\n<Clock xmlns:dt="urn:schemas-microsoft-com:datatypes"><Description dt:dt="string">E-Prime Primary Realtime Clock</Description><StartTime><Timestamp dt:dt="int">0</Timestamp><DateUtc dt:dt="string">2015-08-10T09:53:30Z</DateUtc></StartTime><FrequencyChanges><FrequencyChange><Frequency dt:dt="r8">2612324</Frequency><Timestamp dt:dt="r8">28649475972</Timestamp><Current dt:dt="r8">0</Current><DateUtc dt:dt="string">2015-08-10T09:53:30Z</DateUtc></FrequencyChange></FrequencyChanges></Clock>\n	1 ver1_main_procedure-6-1	99.938	1.0.0.880	2	tm	-1414793926	prawa	1	2.0.10.182	08-10-2015	2015-08-10 09:53:30	11:53:30	mezczyzna	2.0.10.92	2																														TrainingProc1		TrainingList	1	1	1						4																																																					TrainProc											TrainingList1											target_both.png							3	1	4	dl								25	300	
1 ver1_main_procedure	6	1	20	<?xml version="1.0"?>\n<Clock xmlns:dt="urn:schemas-microsoft-com:datatypes"><Description dt:dt="string">E-Prime Primary Realtime Clock</Description><StartTime><Timestamp dt:dt="int">0</Timestamp><DateUtc dt:dt="string">2015-08-10T09:53:30Z</DateUtc></StartTime><FrequencyChanges><FrequencyChange><Frequency dt:dt="r8">2612324</Frequency><Timestamp dt:dt="r8">28649475972</Timestamp><Current dt:dt="r8">0</Current><DateUtc dt:dt="string">2015-08-10T09:53:30Z</DateUtc></FrequencyChange></FrequencyChanges></Clock>\n	1 ver1_main_procedure-6-1	99.938	1.0.0.880	2	tm	-1414793926	prawa	1	2.0.10.182	08-10-2015	2015-08-10 09:53:30	11:53:30	mezczyzna	2.0.10.92	2																														TrainingProc1		TrainingList	1	1	1						5																																																					TrainProc											TrainingList1											target_right.png							2	1	5	l								25	150	
1 ver1_main_procedure	6	1	20	<?xml version="1.0"?>\n<Clock xmlns:dt="urn:schemas-microsoft-com:datatypes"><Description dt:dt="string">E-Prime Primary Realtime Clock</Description><StartTime><Timestamp dt:dt="int">0</Timestamp><DateUtc dt:dt="string">2015-08-10T09:53:30Z</DateUtc></StartTime><FrequencyChanges><FrequencyChange><Frequency dt:dt="r8">2612324</Frequency><Timestamp dt:dt="r8">28649475972</Timestamp><Current dt:dt="r8">0</Current><DateUtc dt:dt="string">2015-08-10T09:53:30Z</DateUtc></FrequencyChange></FrequencyChanges></Clock>\n	1 ver1_main_procedure-6-1	99.938	1.0.0.880	2	tm	-1414793926	prawa	1	2.0.10.182	08-10-2015	2015-08-10 09:53:30	11:53:30	mezczyzna	2.0.10.92	2																														TrainingProc1		TrainingList	1	1	1						6																																																					TrainProc											TrainingList1											target_right.png							2	1	6	l								25	300	
1 ver1_main_procedure	6	1	20	<?xml version="1.0"?>\n<Clock xmlns:dt="urn:schemas-microsoft-com:datatypes"><Description dt:dt="string">E-Prime Primary Realtime Clock</Description><StartTime><Timestamp dt:dt="int">0</Timestamp><DateUtc dt:dt="string">2015-08-10T09:53:30Z</DateUtc></StartTime><FrequencyChanges><FrequencyChange><Frequency dt:dt="r8">2612324</Frequency><Timestamp dt:dt="r8">28649475972</Timestamp><Current dt:dt="r8">0</Current><DateUtc dt:dt="string">2015-08-10T09:53:30Z</DateUtc></FrequencyChange></FrequencyChanges></Clock>\n	1 ver1_main_procedure-6-1	99.938	1.0.0.880	2	tm	-1414793926	prawa	1	2.0.10.182	08-10-2015	2015-08-10 09:53:30	11:53:30	mezczyzna	2.0.10.92	2																														TrainingProc1		TrainingList	1	1	1						7																																																					TrainProc											TrainingList1											target_left.png							1	1	7	d								25	450	
1 ver1_main_procedure	6	1	20	<?xml version="1.0"?>\n<Clock xmlns:dt="urn:schemas-microsoft-com:datatypes"><Description dt:dt="string">E-Prime Primary Realtime Clock</Description><StartTime><Timestamp dt:dt="int">0</Timestamp><DateUtc dt:dt="string">2015-08-10T09:53:30Z</DateUtc></StartTime><FrequencyChanges><FrequencyChange><Frequency dt:dt="r8">2612324</Frequency><Timestamp dt:dt="r8">28649475972</Timestamp><Current dt:dt="r8">0</Current><DateUtc dt:dt="string">2015-08-10T09:53:30Z</DateUtc></FrequencyChange></FrequencyChanges></Clock>\n	1 ver1_main_procedure-6-1	99.938	1.0.0.880	2	tm	-1414793926	prawa	1	2.0.10.182	08-10-2015	2015-08-10 09:53:30	11:53:30	mezczyzna	2.0.10.92	2																														TrainingProc1		TrainingList	1	1	1						8																																																					TrainProc											TrainingList1											target_right.png							2	1	8	l								75	300	
1 ver1_main_procedure	6	1	20	<?xml version="1.0"?>\n<Clock xmlns:dt="urn:schemas-microsoft-com:datatypes"><Description dt:dt="string">E-Prime Primary Realtime Clock</Description><StartTime><Timestamp dt:dt="int">0</Timestamp><DateUtc dt:dt="string">2015-08-10T09:53:30Z</DateUtc></StartTime><FrequencyChanges><FrequencyChange><Frequency dt:dt="r8">2612324</Frequency><Timestamp dt:dt="r8">28649475972</Timestamp><Current dt:dt="r8">0</Current><DateUtc dt:dt="string">2015-08-10T09:53:30Z</DateUtc></FrequencyChange></FrequencyChanges></Clock>\n	1 ver1_main_procedure-6-1	99.938	1.0.0.880	2	tm	-1414793926	prawa	1	2.0.10.182	08-10-2015	2015-08-10 09:53:30	11:53:30	mezczyzna	2.0.10.92	2																														TrainingProc1		TrainingList	1	1	1						9																																																					TrainProc											TrainingList1											target_both.png							3	1	9	dl								25	150	
1 ver1_main_procedure	6	1	20	<?xml version="1.0"?>\n<Clock xmlns:dt="urn:schemas-microsoft-com:datatypes"><Description dt:dt="string">E-Prime Primary Realtime Clock</Description><StartTime><Timestamp dt:dt="int">0</Timestamp><DateUtc dt:dt="string">2015-08-10T09:53:30Z</DateUtc></StartTime><FrequencyChanges><FrequencyChange><Frequency dt:dt="r8">2612324</Frequency><Timestamp dt:dt="r8">28649475972</Timestamp><Current dt:dt="r8">0</Current><DateUtc dt:dt="string">2015-08-10T09:53:30Z</DateUtc></FrequencyChange></FrequencyChanges></Clock>\n	1 ver1_main_procedure-6-1	99.938	1.0.0.880	2	tm	-1414793926	prawa	1	2.0.10.182	08-10-2015	2015-08-10 09:53:30	11:53:30	mezczyzna	2.0.10.92	3	4	1	1																							l	{SPACE}		no	BlockProc2		BlockList									1	Free	dl	color_yellow.png		-1	8	819663	310																								75	prime_left.png	1	818763	0	0	13	1	818763	1	818763	0	818762	21	0	-1	817263	818762	818762	0		TrialProc1	right	0		0	21	819083	-819083		0	0	TrialList2	target_both.png	0	dl	-1	2	818812	271	l	842	819654															12	1	1	incomp			300
1 ver1_main_procedure	6	1	20	<?xml version="1.0"?>\n<Clock xmlns:dt="urn:schemas-microsoft-com:datatypes"><Description dt:dt="string">E-Prime Primary Realtime Clock</Description><StartTime><Timestamp dt:dt="int">0</Timestamp><DateUtc dt:dt="string">2015-08-10T09:53:30Z</DateUtc></StartTime><FrequencyChanges><FrequencyChange><Frequency dt:dt="r8">2612324</Frequency><Timestamp dt:dt="r8">28649475972</Timestamp><Current dt:dt="r8">0</Current><DateUtc dt:dt="string">2015-08-10T09:53:30Z</DateUtc></FrequencyChange></FrequencyChanges></Clock>\n	1 ver1_main_procedure-6-1	99.938	1.0.0.880	2	tm	-1414793926	prawa	1	2.0.10.182	08-10-2015	2015-08-10 09:53:30	11:53:30	mezczyzna	2.0.10.92	3	4	1	1																							l	{SPACE}		no	BlockProc2		BlockList									2	Cued	l	color_orange.png		-1	12	822234	461																								25	prime_right.png	0	821784	0	0	13	0	821784	0	821784	1	821784	20	0	-1	820285	821784	821783	0		TrialProc1	right	0		1	10	822094	-822094		0	0	TrialList2	target_right.png	1	l	-1	3	821834	260	l	388	822222															4	1	2	comp			450
1 ver1_main_procedure	6	1	20	<?xml version="1.0"?>\n<Clock xmlns:dt="urn:schemas-microsoft-com:datatypes"><Description dt:dt="string">E-Prime Primary Realtime Clock</Description><StartTime><Timestamp dt:dt="int">0</Timestamp><DateUtc dt:dt="string">2015-08-10T09:53:30Z</DateUtc></StartTime><FrequencyChanges><FrequencyChange><Frequency dt:dt="r8">2612324</Frequency><Timestamp dt:dt="r8">28649475972</Timestamp><Current dt:dt="r8">0</Current><DateUtc dt:dt="string">2015-08-10T09:53:30Z</DateUtc></FrequencyChange></FrequencyChanges></Clock>\n	1 ver1_main_procedure-6-1	99.938	1.0.0.880	2	tm	-1414793926	prawa	1	2.0.10.182	08-10-2015	2015-08-10 09:53:30	11:53:30	mezczyzna	2.0.10.92	3	4	1	1																							l	{SPACE}		no	BlockProc2		BlockList									3	Free	dl	color_yellow.png		-1	14	825236	461																								75	prime_left.png	0	824506	0	0	13	0	824506	0	824506	1	824506	20	0	-1	823007	824506	824505	0		TrialProc1	right	0		0	10	824816	-824816		0	0	TrialList2	target_both.png	0	dl	-1	3	824556	260	l	666	825222															12	1	3	incomp			450
1 ver1_main_procedure	6	1	20	<?xml version="1.0"?>\n<Clock xmlns:dt="urn:schemas-microsoft-com:datatypes"><Description dt:dt="string">E-Prime Primary Realtime Clock</Description><StartTime><Timestamp dt:dt="int">0</Timestamp><DateUtc dt:dt="string">2015-08-10T09:53:30Z</DateUtc></StartTime><FrequencyChanges><FrequencyChange><Frequency dt:dt="r8">2612324</Frequency><Timestamp dt:dt="r8">28649475972</Timestamp><Current dt:dt="r8">0</Current><DateUtc dt:dt="string">2015-08-10T09:53:30Z</DateUtc></FrequencyChange></FrequencyChanges></Clock>\n	1 ver1_main_procedure-6-1	99.938	1.0.0.880	2	tm	-1414793926	prawa	1	2.0.10.182	08-10-2015	2015-08-10 09:53:30	11:53:30	mezczyzna	2.0.10.92	3	4	1	1																							l	{SPACE}		no	BlockProc2		BlockList									4	Free	dl	color_purple.png		-1	12	828178	310																			2					25	prime_right.png	0	827508	0	0	13	0	827508	0	827508	1	827508	20	0	-1	826008	827508	827507	0	prime_right.png	TrialProc1	left	0		0	10	827818	-827818		0	0	TrialList2	target_both.png	0	dl	-1	3	827558	260	d	608	828166															8	1	4	neut			300
1 ver1_main_procedure	6	1	20	<?xml version="1.0"?>\n<Clock xmlns:dt="urn:schemas-microsoft-com:datatypes"><Description dt:dt="string">E-Prime Primary Realtime Clock</Description><StartTime><Timestamp dt:dt="int">0</Timestamp><DateUtc dt:dt="string">2015-08-10T09:53:30Z</DateUtc></StartTime><FrequencyChanges><FrequencyChange><Frequency dt:dt="r8">2612324</Frequency><Timestamp dt:dt="r8">28649475972</Timestamp><Current dt:dt="r8">0</Current><DateUtc dt:dt="string">2015-08-10T09:53:30Z</DateUtc></FrequencyChange></FrequencyChanges></Clock>\n	1 ver1_main_procedure-6-1	99.938	1.0.0.880	2	tm	-1414793926	prawa	1	2.0.10.182	08-10-2015	2015-08-10 09:53:30	11:53:30	mezczyzna	2.0.10.92	3	4	1	1																							l	{SPACE}		no	BlockProc2		BlockList									5	Free	dl	color_blue.png		-1	6	830980	460																								25	prime_right.png	0	830299	0	0	13	0	830299	0	830299	1	830299	20	0	-1	828800	830299	830298	0		TrialProc1	left	0		1	10	830609	-830609		0	0	TrialList2	target_both.png	0	dl	-1	3	830349	260	d	625	830974															9	1	5	incomp			450
1 ver1_main_procedure	6	1	20	<?xml version="1.0"?>\n<Clock xmlns:dt="urn:schemas-microsoft-com:datatypes"><Description dt:dt="string">E-Prime Primary Realtime Clock</Description><StartTime><Timestamp dt:dt="int">0</Timestamp><DateUtc dt:dt="string">2015-08-10T09:53:30Z</DateUtc></StartTime><FrequencyChanges><FrequencyChange><Frequency dt:dt="r8">2612324</Frequency><Timestamp dt:dt="r8">28649475972</Timestamp><Current dt:dt="r8">0</Current><DateUtc dt:dt="string">2015-08-10T09:53:30Z</DateUtc></FrequencyChange></FrequencyChanges></Clock>\n	1 ver1_main_procedure-6-1	99.938	1.0.0.880	2	tm	-1414793926	prawa	1	2.0.10.182	08-10-2015	2015-08-10 09:53:30	11:53:30	mezczyzna	2.0.10.92	3	4	1	1																							l	{SPACE}		no	BlockProc2		BlockList									6	Free	dl	color_green.png		-1	13	833891	311																								75	prime_left.png	0	833251	0	0	13	0	833251	0	833251	1	833251	20	0	-1	831752	833251	833250	0		TrialProc1	left	0		0	10	833561	-833561		0	0	TrialList2	target_both.png	0	dl	-1	3	833301	260	d	577	833878															7	1	6	comp			300
1 ver1_main_procedure	6	1	20	<?xml version="1.0"?>\n<Clock xmlns:dt="urn:schemas-microsoft-com:datatypes"><Description dt:dt="string">E-Prime Primary Realtime Clock</Description><StartTime><Timestamp dt:dt="int">0</Timestamp><DateUtc dt:dt="string">2015-08-10T09:53:30Z</DateUtc></StartTime><FrequencyChanges><FrequencyChange><Frequency dt:dt="r8">2612324</Frequency><Timestamp dt:dt="r8">28649475972</Timestamp><Current dt:dt="r8">0</Current><DateUtc dt:dt="string">2015-08-10T09:53:30Z</DateUtc></FrequencyChange></FrequencyChanges></Clock>\n	1 ver1_main_procedure-6-1	99.938	1.0.0.880	2	tm	-1414793926	prawa	1	2.0.10.182	08-10-2015	2015-08-10 09:53:30	11:53:30	mezczyzna	2.0.10.92	3	4	1	1																							l	{SPACE}		no	BlockProc2		BlockList									7	Free	dl	color_red.png		-1	9	836623	310																			1					75	prime_left.png	0	836013	0	0	13	0	836013	0	836013	1	836013	20	0	-1	834513	836013	836012	0	prime_left.png	TrialProc1	right	0		0	10	836323	-836323		0	0	TrialList2	target_both.png	0	dl	-1	3	836063	260	l	551	836614															11	1	7	neut			300
1 ver1_main_procedure	6	1	20	<?xml version="1.0"?>\n<Clock xmlns:dt="urn:schemas-microsoft-com:datatypes"><Description dt:dt="string">E-Prime Primary Realtime Clock</Description><StartTime><Timestamp dt:dt="int">0</Timestamp><DateUtc dt:dt="string">2015-08-10T09:53:30Z</DateUtc></StartTime><FrequencyChanges><FrequencyChange><Frequency dt:dt="r8">2612324</Frequency><Timestamp dt:dt="r8">28649475972</Timestamp><Current dt:dt="r8">0</Current><DateUtc dt:dt="string">2015-08-10T09:53:30Z</DateUtc></FrequencyChange></FrequencyChanges></Clock>\n	1 ver1_main_procedure-6-1	99.938	1.0.0.880	2	tm	-1414793926	prawa	1	2.0.10.182	08-10-2015	2015-08-10 09:53:30	11:53:30	mezczyzna	2.0.10.92	3	4	1	1																							l	{SPACE}		no	BlockProc2		BlockList									8	Cued	d	color_purple.png		-1	8	839214	461																			2					75	prime_right.png	0	838744	0	0	13	0	838744	0	838744	1	838744	20	0	-1	837245	838744	838743	0	prime_right.png	TrialProc1	left	0		1	10	839054	-839054		0	0	TrialList2	target_left.png	1	d	-1	3	838794	260	d	412	839206															2	1	8	neut			450
1 ver1_main_procedure	6	1	20	<?xml version="1.0"?>\n<Clock xmlns:dt="urn:schemas-microsoft-com:datatypes"><Description dt:dt="string">E-Prime Primary Realtime Clock</Description><StartTime><Timestamp dt:dt="int">0</Timestamp><DateUtc dt:dt="string">2015-08-10T09:53:30Z</DateUtc></StartTime><FrequencyChanges><FrequencyChange><Frequency dt:dt="r8">2612324</Frequency><Timestamp dt:dt="r8">28649475972</Timestamp><Current dt:dt="r8">0</Current><DateUtc dt:dt="string">2015-08-10T09:53:30Z</DateUtc></FrequencyChange></FrequencyChanges></Clock>\n	1 ver1_main_procedure-6-1	99.938	1.0.0.880	2	tm	-1414793926	prawa	1	2.0.10.182	08-10-2015	2015-08-10 09:53:30	11:53:30	mezczyzna	2.0.10.92	3	4	1	1																							l	{SPACE}		no	BlockProc2		BlockList									9	Cued	d	color_purple.png		-1	7	841926	460																			1					25	prime_left.png	0	841486	0	0	13	0	841486	0	841486	1	841486	20	0	-1	839987	841486	841485	0	prime_left.png	TrialProc1	left	0		0	10	841796	-841796		0	0	TrialList2	target_left.png	1	d	-1	3	841536	260	d	382	841918															2	1	9	neut			450
1 ver1_main_procedure	6	1	20	<?xml version="1.0"?>\n<Clock xmlns:dt="urn:schemas-microsoft-com:datatypes"><Description dt:dt="string">E-Prime Primary Realtime Clock</Description><StartTime><Timestamp dt:dt="int">0</Timestamp><DateUtc dt:dt="string">2015-08-10T09:53:30Z</DateUtc></StartTime><FrequencyChanges><FrequencyChange><Frequency dt:dt="r8">2612324</Frequency><Timestamp dt:dt="r8">28649475972</Timestamp><Current dt:dt="r8">0</Current><DateUtc dt:dt="string">2015-08-10T09:53:30Z</DateUtc></FrequencyChange></FrequencyChanges></Clock>\n	1 ver1_main_procedure-6-1	99.938	1.0.0.880	2	tm	-1414793926	prawa	1	2.0.10.182	08-10-2015	2015-08-10 09:53:30	11:53:30	mezczyzna	2.0.10.92	3	4	1	1																							l	{SPACE}		no	BlockProc2		BlockList									10	Free	dl	color_orange.png		-1	11	844898	460																								75	prime_right.png	0	844197	0	0	13	1	844198	1	844198	1	844197	20	0	-1	842698	844197	844196	0		TrialProc1	left	0		0	11	844508	-844508		0	0	TrialList2	target_both.png	0	dl	-1	3	844247	261	l	639	844886															9	1	10	incomp			450
1 ver1_main_procedure	6	1	20	<?xml version="1.0"?>\n<Clock xmlns:dt="urn:schemas-microsoft-com:datatypes"><Description dt:dt="string">E-Prime Primary Realtime Clock</Description><StartTime><Timestamp dt:dt="int">0</Timestamp><DateUtc dt:dt="string">2015-08-10T09:53:30Z</DateUtc></StartTime><FrequencyChanges><FrequencyChange><Frequency dt:dt="r8">2612324</Frequency><Timestamp dt:dt="r8">28649475972</Timestamp><Current dt:dt="r8">0</Current><DateUtc dt:dt="string">2015-08-10T09:53:30Z</DateUtc></FrequencyChange></FrequencyChanges></Clock>\n	1 ver1_main_procedure-6-1	99.938	1.0.0.880	2	tm	-1414793926	prawa	1	2.0.10.182	08-10-2015	2015-08-10 09:53:30	11:53:30	mezczyzna	2.0.10.92	3	4	1	1																							l	{SPACE}		no	BlockProc2		BlockList									11	Free	dl	color_purple.png		-1	10	847649	161																			2					75	prime_right.png	0	847169	0	0	13	0	847169	0	847169	1	847169	20	0	-1	845670	847169	847168	0	prime_right.png	TrialProc1	left	0		0	10	847479	-847479		0	0	TrialList2	target_both.png	0	dl	-1	3	847219	260	d	419	847638															8	1	11	neut			150
1 ver1_main_procedure	6	1	20	<?xml version="1.0"?>\n<Clock xmlns:dt="urn:schemas-microsoft-com:datatypes"><Description dt:dt="string">E-Prime Primary Realtime Clock</Description><StartTime><Timestamp dt:dt="int">0</Timestamp><DateUtc dt:dt="string">2015-08-10T09:53:30Z</DateUtc></StartTime><FrequencyChanges><FrequencyChange><Frequency dt:dt="r8">2612324</Frequency><Timestamp dt:dt="r8">28649475972</Timestamp><Current dt:dt="r8">0</Current><DateUtc dt:dt="string">2015-08-10T09:53:30Z</DateUtc></FrequencyChange></FrequencyChanges></Clock>\n	1 ver1_main_procedure-6-1	99.938	1.0.0.880	2	tm	-1414793926	prawa	1	2.0.10.182	08-10-2015	2015-08-10 09:53:30	11:53:30	mezczyzna	2.0.10.92	3	4	1	1																							l	{SPACE}		no	BlockProc2		BlockList									12	Cued	d	color_green.png		-1	12	850131	160																								75	prime_left.png	0	849621	0	0	13	0	849621	0	849621	1	849621	20	0	-1	848121	849621	849620	0		TrialProc1	left	0		0	10	849931	-849931		0	0	TrialList2	target_left.png	1	d	-1	3	849671	260	d	447	850118															1	1	12	comp			150
1 ver1_main_procedure	6	1	20	<?xml version="1.0"?>\n<Clock xmlns:dt="urn:schemas-microsoft-com:datatypes"><Description dt:dt="string">E-Prime Primary Realtime Clock</Description><StartTime><Timestamp dt:dt="int">0</Timestamp><DateUtc dt:dt="string">2015-08-10T09:53:30Z</DateUtc></StartTime><FrequencyChanges><FrequencyChange><Frequency dt:dt="r8">2612324</Frequency><Timestamp dt:dt="r8">28649475972</Timestamp><Current dt:dt="r8">0</Current><DateUtc dt:dt="string">2015-08-10T09:53:30Z</DateUtc></FrequencyChange></FrequencyChanges></Clock>\n	1 ver1_main_procedure-6-1	99.938	1.0.0.880	2	tm	-1414793926	prawa	1	2.0.10.182	08-10-2015	2015-08-10 09:53:30	11:53:30	mezczyzna	2.0.10.92	3	4	1	1																							l	{SPACE}		no	BlockProc2		BlockList									13	Free	dl	color_yellow.png		-1	12	852803	310																								25	prime_left.png	0	852102	0	0	13	0	852102	0	852102	1	852102	20	0	-1	850603	852102	852101	0		TrialProc1	right	0		1	10	852412	-852412		0	0	TrialList2	target_both.png	0	dl	-1	3	852152	260	l	638	852790															12	1	13	incomp			300
1 ver1_main_procedure	6	1	20	<?xml version="1.0"?>\n<Clock xmlns:dt="urn:schemas-microsoft-com:datatypes"><Description dt:dt="string">E-Prime Primary Realtime Clock</Description><StartTime><Timestamp dt:dt="int">0</Timestamp><DateUtc dt:dt="string">2015-08-10T09:53:30Z</DateUtc></StartTime><FrequencyChanges><FrequencyChange><Frequency dt:dt="r8">2612324</Frequency><Timestamp dt:dt="r8">28649475972</Timestamp><Current dt:dt="r8">0</Current><DateUtc dt:dt="string">2015-08-10T09:53:30Z</DateUtc></FrequencyChange></FrequencyChanges></Clock>\n	1 ver1_main_procedure-6-1	99.938	1.0.0.880	2	tm	-1414793926	prawa	1	2.0.10.182	08-10-2015	2015-08-10 09:53:30	11:53:30	mezczyzna	2.0.10.92	3	4	1	1																							l	{SPACE}		no	BlockProc2		BlockList									14	Free	dl	color_yellow.png		-1	13	855484	460																								25	prime_left.png	0	854924	0	0	13	0	854924	0	854924	1	854924	20	0	-1	853424	854924	854923	0		TrialProc1	left	0		0	10	855234	-855234		0	0	TrialList2	target_both.png	0	dl	-1	3	854974	260	l	496	855470															7	1	14	comp			450
1 ver1_main_procedure	6	1	20	<?xml version="1.0"?>\n<Clock xmlns:dt="urn:schemas-microsoft-com:datatypes"><Description dt:dt="string">E-Prime Primary Realtime Clock</Description><StartTime><Timestamp dt:dt="int">0</Timestamp><DateUtc dt:dt="string">2015-08-10T09:53:30Z</DateUtc></StartTime><FrequencyChanges><FrequencyChange><Frequency dt:dt="r8">2612324</Frequency><Timestamp dt:dt="r8">28649475972</Timestamp><Current dt:dt="r8">0</Current><DateUtc dt:dt="string">2015-08-10T09:53:30Z</DateUtc></FrequencyChange></FrequencyChanges></Clock>\n	1 ver1_main_procedure-6-1	99.938	1.0.0.880	2	tm	-1414793926	prawa	1	2.0.10.182	08-10-2015	2015-08-10 09:53:30	11:53:30	mezczyzna	2.0.10.92	3	4	1	1																							l	{SPACE}		no	BlockProc2		BlockList									15	Free	dl	color_blue.png		-1	7	858246	460																								75	prime_right.png	0	857755	0	0	13	0	857756	0	857755	1	857755	20	0	-1	856256	857755	857754	0		TrialProc1	right	0		0	11	858066	-858066		0	0	TrialList2	target_both.png	0	dl	-1	3	857805	261	d	433	858238															10	1	15	comp			450
1 ver1_main_procedure	6	1	20	<?xml version="1.0"?>\n<Clock xmlns:dt="urn:schemas-microsoft-com:datatypes"><Description dt:dt="string">E-Prime Primary Realtime Clock</Description><StartTime><Timestamp dt:dt="int">0</Timestamp><DateUtc dt:dt="string">2015-08-10T09:53:30Z</DateUtc></StartTime><FrequencyChanges><FrequencyChange><Frequency dt:dt="r8">2612324</Frequency><Timestamp dt:dt="r8">28649475972</Timestamp><Current dt:dt="r8">0</Current><DateUtc dt:dt="string">2015-08-10T09:53:30Z</DateUtc></FrequencyChange></FrequencyChanges></Clock>\n	1 ver1_main_procedure-6-1	99.938	1.0.0.880	2	tm	-1414793926	prawa	1	2.0.10.182	08-10-2015	2015-08-10 09:53:30	11:53:30	mezczyzna	2.0.10.92	3	4	1	1																							l	{SPACE}		no	BlockProc2		BlockList									16	Free	dl	color_yellow.png		-1	8	861047	461																								75	prime_left.png	0	860517	0	0	13	0	860517	0	860517	1	860517	20	0	-1	859018	860517	860516	0		TrialProc1	left	0		0	10	860827	-860827		0	0	TrialList2	target_both.png	0	dl	-1	3	860567	260	l	471	861038															7	1	16	comp			450
1 ver1_main_procedure	6	1	20	<?xml version="1.0"?>\n<Clock xmlns:dt="urn:schemas-microsoft-com:datatypes"><Description dt:dt="string">E-Prime Primary Realtime Clock</Description><StartTime><Timestamp dt:dt="int">0</Timestamp><DateUtc dt:dt="string">2015-08-10T09:53:30Z</DateUtc></StartTime><FrequencyChanges><FrequencyChange><Frequency dt:dt="r8">2612324</Frequency><Timestamp dt:dt="r8">28649475972</Timestamp><Current dt:dt="r8">0</Current><DateUtc dt:dt="string">2015-08-10T09:53:30Z</DateUtc></FrequencyChange></FrequencyChanges></Clock>\n	1 ver1_main_procedure-6-1	99.938	1.0.0.880	2	tm	-1414793926	prawa	1	2.0.10.182	08-10-2015	2015-08-10 09:53:30	11:53:30	mezczyzna	2.0.10.92	3	4	1	1																							l	{SPACE}		no	BlockProc2		BlockList									17	Free	dl	color_purple.png		-1	14	863709	160																			1					75	prime_left.png	0	863319	0	0	13	0	863319	0	863319	1	863319	20	0	-1	861819	863319	863318	0	prime_left.png	TrialProc1	left	0		0	10	863629	-863629		0	0	TrialList2	target_both.png	0	dl	-1	3	863369	260	d	325	863694															8	1	17	neut			150
1 ver1_main_procedure	6	1	20	<?xml version="1.0"?>\n<Clock xmlns:dt="urn:schemas-microsoft-com:datatypes"><Description dt:dt="string">E-Prime Primary Realtime Clock</Description><StartTime><Timestamp dt:dt="int">0</Timestamp><DateUtc dt:dt="string">2015-08-10T09:53:30Z</DateUtc></StartTime><FrequencyChanges><FrequencyChange><Frequency dt:dt="r8">2612324</Frequency><Timestamp dt:dt="r8">28649475972</Timestamp><Current dt:dt="r8">0</Current><DateUtc dt:dt="string">2015-08-10T09:53:30Z</DateUtc></FrequencyChange></FrequencyChanges></Clock>\n	1 ver1_main_procedure-6-1	99.938	1.0.0.880	2	tm	-1414793926	prawa	1	2.0.10.182	08-10-2015	2015-08-10 09:53:30	11:53:30	mezczyzna	2.0.10.92	3	4	1	1																							l	{SPACE}		no	BlockProc2		BlockList									18	Free	dl	color_red.png		-1	7	866390	461																			2					25	prime_right.png	0	865680	0	0	13	0	865680	0	865680	1	865680	20	0	-1	864181	865680	865679	0	prime_right.png	TrialProc1	right	0		0	10	865990	-865990		0	0	TrialList2	target_both.png	0	dl	-1	3	865730	260	l	652	866382															11	1	18	neut			450
1 ver1_main_procedure	6	1	20	<?xml version="1.0"?>\n<Clock xmlns:dt="urn:schemas-microsoft-com:datatypes"><Description dt:dt="string">E-Prime Primary Realtime Clock</Description><StartTime><Timestamp dt:dt="int">0</Timestamp><DateUtc dt:dt="string">2015-08-10T09:53:30Z</DateUtc></StartTime><FrequencyChanges><FrequencyChange><Frequency dt:dt="r8">2612324</Frequency><Timestamp dt:dt="r8">28649475972</Timestamp><Current dt:dt="r8">0</Current><DateUtc dt:dt="string">2015-08-10T09:53:30Z</DateUtc></FrequencyChange></FrequencyChanges></Clock>\n	1 ver1_main_procedure-6-1	99.938	1.0.0.880	2	tm	-1414793926	prawa	1	2.0.10.182	08-10-2015	2015-08-10 09:53:30	11:53:30	mezczyzna	2.0.10.92	3	4	1	1																							l	{SPACE}		no	BlockProc2		BlockList									19	Free	dl	color_purple.png		-1	13	869012	160																			1					25	prime_left.png	0	868662	0	0	13	0	868662	0	868662	1	868662	20	0	-1	867163	868662	868661	0	prime_left.png	TrialProc1	right	0		0	10	868972	-868972		0	0	TrialList2	target_both.png	0	dl	-1	3	868712	260	d	286	868998															11	1	19	neut			150
1 ver1_main_procedure	6	1	20	<?xml version="1.0"?>\n<Clock xmlns:dt="urn:schemas-microsoft-com:datatypes"><Description dt:dt="string">E-Prime Primary Realtime Clock</Description><StartTime><Timestamp dt:dt="int">0</Timestamp><DateUtc dt:dt="string">2015-08-10T09:53:30Z</DateUtc></StartTime><FrequencyChanges><FrequencyChange><Frequency dt:dt="r8">2612324</Frequency><Timestamp dt:dt="r8">28649475972</Timestamp><Current dt:dt="r8">0</Current><DateUtc dt:dt="string">2015-08-10T09:53:30Z</DateUtc></FrequencyChange></FrequencyChanges></Clock>\n	1 ver1_main_procedure-6-1	99.938	1.0.0.880	2	tm	-1414793926	prawa	1	2.0.10.182	08-10-2015	2015-08-10 09:53:30	11:53:30	mezczyzna	2.0.10.92	3	4	1	1																							l	{SPACE}		no	BlockProc2		BlockList									20	Cued	d	color_purple.png		-1	10	871473	461																			2					75	prime_right.png	0	870983	0	0	13	0	870983	0	870983	1	870983	20	0	-1	869484	870983	870982	0	prime_right.png	TrialProc1	left	0		0	10	871293	-871293		0	0	TrialList2	target_left.png	1	d	-1	3	871033	260	d	429	871462															2	1	20	neut			450
1 ver1_main_procedure	6	1	20	<?xml version="1.0"?>\n<Clock xmlns:dt="urn:schemas-microsoft-com:datatypes"><Description dt:dt="string">E-Prime Primary Realtime Clock</Description><StartTime><Timestamp dt:dt="int">0</Timestamp><DateUtc dt:dt="string">2015-08-10T09:53:30Z</DateUtc></StartTime><FrequencyChanges><FrequencyChange><Frequency dt:dt="r8">2612324</Frequency><Timestamp dt:dt="r8">28649475972</Timestamp><Current dt:dt="r8">0</Current><DateUtc dt:dt="string">2015-08-10T09:53:30Z</DateUtc></FrequencyChange></FrequencyChanges></Clock>\n	1 ver1_main_procedure-6-1	99.938	1.0.0.880	2	tm	-1414793926	prawa	1	2.0.10.182	08-10-2015	2015-08-10 09:53:30	11:53:30	mezczyzna	2.0.10.92	3	4	1	1																							l	{SPACE}		no	BlockProc2		BlockList									21	Free	dl	color_green.png		-1	6	874245	310																								25	prime_left.png	0	873745	0	0	13	0	873745	0	873745	1	873745	20	0	-1	872246	873745	873744	0		TrialProc1	left	0		0	10	874055	-874055		0	0	TrialList2	target_both.png	0	dl	-1	3	873795	260	d	443	874238															7	1	21	comp			300
1 ver1_main_procedure	6	1	20	<?xml version="1.0"?>\n<Clock xmlns:dt="urn:schemas-microsoft-com:datatypes"><Description dt:dt="string">E-Prime Primary Realtime Clock</Description><StartTime><Timestamp dt:dt="int">0</Timestamp><DateUtc dt:dt="string">2015-08-10T09:53:30Z</DateUtc></StartTime><FrequencyChanges><FrequencyChange><Frequency dt:dt="r8">2612324</Frequency><Timestamp dt:dt="r8">28649475972</Timestamp><Current dt:dt="r8">0</Current><DateUtc dt:dt="string">2015-08-10T09:53:30Z</DateUtc></FrequencyChange></FrequencyChanges></Clock>\n	1 ver1_main_procedure-6-1	99.938	1.0.0.880	2	tm	-1414793926	prawa	1	2.0.10.182	08-10-2015	2015-08-10 09:53:30	11:53:30	mezczyzna	2.0.10.92	3	4	1	1																							l	{SPACE}		no	BlockProc2		BlockList									22	Free	dl	color_red.png		-1	9	876696	311																			1					25	prime_left.png	0	876366	0	0	13	0	876367	0	876366	1	876366	20	0	-1	874867	876366	876365	0	prime_left.png	TrialProc1	left	0		1	10	876676	-876676		0	0	TrialList2	target_both.png	0	dl	-1	3	876416	260	l	270	876686															8	1	22	neut			300
1 ver1_main_procedure	6	1	20	<?xml version="1.0"?>\n<Clock xmlns:dt="urn:schemas-microsoft-com:datatypes"><Description dt:dt="string">E-Prime Primary Realtime Clock</Description><StartTime><Timestamp dt:dt="int">0</Timestamp><DateUtc dt:dt="string">2015-08-10T09:53:30Z</DateUtc></StartTime><FrequencyChanges><FrequencyChange><Frequency dt:dt="r8">2612324</Frequency><Timestamp dt:dt="r8">28649475972</Timestamp><Current dt:dt="r8">0</Current><DateUtc dt:dt="string">2015-08-10T09:53:30Z</DateUtc></FrequencyChange></FrequencyChanges></Clock>\n	1 ver1_main_procedure-6-1	99.938	1.0.0.880	2	tm	-1414793926	prawa	1	2.0.10.182	08-10-2015	2015-08-10 09:53:30	11:53:30	mezczyzna	2.0.10.92	3	4	1	1																							l	{SPACE}		no	BlockProc2		BlockList									23	Free	dl	color_red.png		-1	5	879228	160																			2					75	prime_right.png	0	878818	0	0	13	0	878818	0	878818	1	878818	20	0	-1	877318	878818	878817	0	prime_right.png	TrialProc1	right	0		0	10	879128	-879128		0	0	TrialList2	target_both.png	0	dl	-1	3	878868	260	l	354	879222															11	1	23	neut			150
1 ver1_main_procedure	6	1	20	<?xml version="1.0"?>\n<Clock xmlns:dt="urn:schemas-microsoft-com:datatypes"><Description dt:dt="string">E-Prime Primary Realtime Clock</Description><StartTime><Timestamp dt:dt="int">0</Timestamp><DateUtc dt:dt="string">2015-08-10T09:53:30Z</DateUtc></StartTime><FrequencyChanges><FrequencyChange><Frequency dt:dt="r8">2612324</Frequency><Timestamp dt:dt="r8">28649475972</Timestamp><Current dt:dt="r8">0</Current><DateUtc dt:dt="string">2015-08-10T09:53:30Z</DateUtc></FrequencyChange></FrequencyChanges></Clock>\n	1 ver1_main_procedure-6-1	99.938	1.0.0.880	2	tm	-1414793926	prawa	1	2.0.10.182	08-10-2015	2015-08-10 09:53:30	11:53:30	mezczyzna	2.0.10.92	3	4	1	1																							l	{SPACE}		no	BlockProc2		BlockList									24	Free	dl	color_blue.png		-1	12	881699	461																								25	prime_right.png	0	881199	0	0	13	0	881199	0	881199	1	881199	20	0	-1	879700	881199	881198	0		TrialProc1	left	0		0	10	881509	-881509		0	0	TrialList2	target_both.png	0	dl	-1	3	881249	260	d	437	881686															9	1	24	incomp			450
1 ver1_main_procedure	6	1	20	<?xml version="1.0"?>\n<Clock xmlns:dt="urn:schemas-microsoft-com:datatypes"><Description dt:dt="string">E-Prime Primary Realtime Clock</Description><StartTime><Timestamp dt:dt="int">0</Timestamp><DateUtc dt:dt="string">2015-08-10T09:53:30Z</DateUtc></StartTime><FrequencyChanges><FrequencyChange><Frequency dt:dt="r8">2612324</Frequency><Timestamp dt:dt="r8">28649475972</Timestamp><Current dt:dt="r8">0</Current><DateUtc dt:dt="string">2015-08-10T09:53:30Z</DateUtc></FrequencyChange></FrequencyChanges></Clock>\n	1 ver1_main_procedure-6-1	99.938	1.0.0.880	2	tm	-1414793926	prawa	1	2.0.10.182	08-10-2015	2015-08-10 09:53:30	11:53:30	mezczyzna	2.0.10.92	3	4	1	1																							l	{SPACE}		no	BlockProc2		BlockList									25	Free	dl	color_red.png		-1	6	884381	460																			1					75	prime_left.png	0	883971	0	0	13	0	883971	0	883971	1	883971	20	0	-1	882472	883971	883970	0	prime_left.png	TrialProc1	left	0		0	10	884281	-884281		0	0	TrialList2	target_both.png	0	dl	-1	3	884021	260	l	353	884374															8	1	25	neut			450
1 ver1_main_procedure	6	1	20	<?xml version="1.0"?>\n<Clock xmlns:dt="urn:schemas-microsoft-com:datatypes"><Description dt:dt="string">E-Prime Primary Realtime Clock</Description><StartTime><Timestamp dt:dt="int">0</Timestamp><DateUtc dt:dt="string">2015-08-10T09:53:30Z</DateUtc></StartTime><FrequencyChanges><FrequencyChange><Frequency dt:dt="r8">2612324</Frequency><Timestamp dt:dt="r8">28649475972</Timestamp><Current dt:dt="r8">0</Current><DateUtc dt:dt="string">2015-08-10T09:53:30Z</DateUtc></FrequencyChange></FrequencyChanges></Clock>\n	1 ver1_main_procedure-6-1	99.938	1.0.0.880	2	tm	-1414793926	prawa	1	2.0.10.182	08-10-2015	2015-08-10 09:53:30	11:53:30	mezczyzna	2.0.10.92	3	4	1	1																							l	{SPACE}		no	BlockProc2		BlockList									26	Cued	d	color_blue.png		-1	12	887043	460																								75	prime_right.png	0	886652	0	0	13	0	886653	0	886652	1	886652	20	0	-1	885153	886652	886651	0		TrialProc1	left	0		0	11	886963	-886963		0	0	TrialList2	target_left.png	1	d	-1	3	886702	261	d	328	887030															3	1	26	incomp			450
1 ver1_main_procedure	6	1	20	<?xml version="1.0"?>\n<Clock xmlns:dt="urn:schemas-microsoft-com:datatypes"><Description dt:dt="string">E-Prime Primary Realtime Clock</Description><StartTime><Timestamp dt:dt="int">0</Timestamp><DateUtc dt:dt="string">2015-08-10T09:53:30Z</DateUtc></StartTime><FrequencyChanges><FrequencyChange><Frequency dt:dt="r8">2612324</Frequency><Timestamp dt:dt="r8">28649475972</Timestamp><Current dt:dt="r8">0</Current><DateUtc dt:dt="string">2015-08-10T09:53:30Z</DateUtc></FrequencyChange></FrequencyChanges></Clock>\n	1 ver1_main_procedure-6-1	99.938	1.0.0.880	2	tm	-1414793926	prawa	1	2.0.10.182	08-10-2015	2015-08-10 09:53:30	11:53:30	mezczyzna	2.0.10.92	3	4	1	1																							l	{SPACE}		no	BlockProc2		BlockList									27	Free	dl	color_red.png		-1	11	889754	160																			2					25	prime_right.png	0	889314	0	0	13	0	889314	0	889314	1	889314	20	0	-1	887815	889314	889313	0	prime_right.png	TrialProc1	right	0		0	10	889624	-889624		0	0	TrialList2	target_both.png	0	dl	-1	3	889364	260	l	378	889742															11	1	27	neut			150
1 ver1_main_procedure	6	1	20	<?xml version="1.0"?>\n<Clock xmlns:dt="urn:schemas-microsoft-com:datatypes"><Description dt:dt="string">E-Prime Primary Realtime Clock</Description><StartTime><Timestamp dt:dt="int">0</Timestamp><DateUtc dt:dt="string">2015-08-10T09:53:30Z</DateUtc></StartTime><FrequencyChanges><FrequencyChange><Frequency dt:dt="r8">2612324</Frequency><Timestamp dt:dt="r8">28649475972</Timestamp><Current dt:dt="r8">0</Current><DateUtc dt:dt="string">2015-08-10T09:53:30Z</DateUtc></FrequencyChange></FrequencyChanges></Clock>\n	1 ver1_main_procedure-6-1	99.938	1.0.0.880	2	tm	-1414793926	prawa	1	2.0.10.182	08-10-2015	2015-08-10 09:53:30	11:53:30	mezczyzna	2.0.10.92	3	4	1	1																							l	{SPACE}		no	BlockProc2		BlockList									28	Free	dl	color_blue.png		-1	7	892126	310																								75	prime_right.png	0	891725	0	0	13	0	891725	0	891725	1	891725	20	0	-1	890226	891725	891724	0		TrialProc1	right	0		1	10	892035	-892035		0	0	TrialList2	target_both.png	0	dl	-1	3	891775	260	d	343	892118															10	1	28	comp			300
1 ver1_main_procedure	6	1	20	<?xml version="1.0"?>\n<Clock xmlns:dt="urn:schemas-microsoft-com:datatypes"><Description dt:dt="string">E-Prime Primary Realtime Clock</Description><StartTime><Timestamp dt:dt="int">0</Timestamp><DateUtc dt:dt="string">2015-08-10T09:53:30Z</DateUtc></StartTime><FrequencyChanges><FrequencyChange><Frequency dt:dt="r8">2612324</Frequency><Timestamp dt:dt="r8">28649475972</Timestamp><Current dt:dt="r8">0</Current><DateUtc dt:dt="string">2015-08-10T09:53:30Z</DateUtc></FrequencyChange></FrequencyChanges></Clock>\n	1 ver1_main_procedure-6-1	99.938	1.0.0.880	2	tm	-1414793926	prawa	1	2.0.10.182	08-10-2015	2015-08-10 09:53:30	11:53:30	mezczyzna	2.0.10.92	3	4	1	1																							l	{SPACE}		no	BlockProc2		BlockList									29	Cued	l	color_orange.png		-1	8	894647	310																								25	prime_right.png	0	894247	0	0	13	0	894247	0	894247	1	894247	20	0	-1	892748	894247	894246	0		TrialProc1	right	0		0	10	894557	-894557		0	0	TrialList2	target_right.png	1	l	-1	3	894297	260	l	341	894638															4	1	29	comp			300
1 ver1_main_procedure	6	1	20	<?xml version="1.0"?>\n<Clock xmlns:dt="urn:schemas-microsoft-com:datatypes"><Description dt:dt="string">E-Prime Primary Realtime Clock</Description><StartTime><Timestamp dt:dt="int">0</Timestamp><DateUtc dt:dt="string">2015-08-10T09:53:30Z</DateUtc></StartTime><FrequencyChanges><FrequencyChange><Frequency dt:dt="r8">2612324</Frequency><Timestamp dt:dt="r8">28649475972</Timestamp><Current dt:dt="r8">0</Current><DateUtc dt:dt="string">2015-08-10T09:53:30Z</DateUtc></FrequencyChange></FrequencyChanges></Clock>\n	1 ver1_main_procedure-6-1	99.938	1.0.0.880	2	tm	-1414793926	prawa	1	2.0.10.182	08-10-2015	2015-08-10 09:53:30	11:53:30	mezczyzna	2.0.10.92	3	4	1	1																							l	{SPACE}		no	BlockProc2		BlockList									30	Cued	l	color_yellow.png		-1	6	897269	160																								25	prime_left.png	0	896768	0	0	13	0	896769	0	896768	1	896768	20	0	-1	895269	896768	896767	0		TrialProc1	right	0		1	10	897078	-897078		0	0	TrialList2	target_right.png	1	l	-1	3	896818	260	l	445	897263															6	1	30	incomp			150
1 ver1_main_procedure	6	1	20	<?xml version="1.0"?>\n<Clock xmlns:dt="urn:schemas-microsoft-com:datatypes"><Description dt:dt="string">E-Prime Primary Realtime Clock</Description><StartTime><Timestamp dt:dt="int">0</Timestamp><DateUtc dt:dt="string">2015-08-10T09:53:30Z</DateUtc></StartTime><FrequencyChanges><FrequencyChange><Frequency dt:dt="r8">2612324</Frequency><Timestamp dt:dt="r8">28649475972</Timestamp><Current dt:dt="r8">0</Current><DateUtc dt:dt="string">2015-08-10T09:53:30Z</DateUtc></FrequencyChange></FrequencyChanges></Clock>\n	1 ver1_main_procedure-6-1	99.938	1.0.0.880	2	tm	-1414793926	prawa	1	2.0.10.182	08-10-2015	2015-08-10 09:53:30	11:53:30	mezczyzna	2.0.10.92	3	4	1	1																							l	{SPACE}		no	BlockProc2		BlockList									31	Cued	d	color_blue.png		-1	5	899660	310																								75	prime_right.png	0	899240	0	0	13	0	899240	0	899240	1	899240	20	0	-1	897741	899240	899239	0		TrialProc1	left	0		0	10	899550	-899550		0	0	TrialList2	target_left.png	1	d	-1	3	899290	260	d	365	899655															3	1	31	incomp			300
1 ver1_main_procedure	6	1	20	<?xml version="1.0"?>\n<Clock xmlns:dt="urn:schemas-microsoft-com:datatypes"><Description dt:dt="string">E-Prime Primary Realtime Clock</Description><StartTime><Timestamp dt:dt="int">0</Timestamp><DateUtc dt:dt="string">2015-08-10T09:53:30Z</DateUtc></StartTime><FrequencyChanges><FrequencyChange><Frequency dt:dt="r8">2612324</Frequency><Timestamp dt:dt="r8">28649475972</Timestamp><Current dt:dt="r8">0</Current><DateUtc dt:dt="string">2015-08-10T09:53:30Z</DateUtc></FrequencyChange></FrequencyChanges></Clock>\n	1 ver1_main_procedure-6-1	99.938	1.0.0.880	2	tm	-1414793926	prawa	1	2.0.10.182	08-10-2015	2015-08-10 09:53:30	11:53:30	mezczyzna	2.0.10.92	3	4	1	1																							l	{SPACE}		no	BlockProc2		BlockList									32	Free	dl	color_orange.png		-1	14	902141	161																								25	prime_right.png	0	901781	0	0	13	0	901781	0	901781	1	901781	20	0	-1	900282	901781	901780	0		TrialProc1	right	0		1	10	902091	-902091		0	0	TrialList2	target_both.png	0	dl	-1	3	901831	260	l	296	902127															10	1	32	comp			150
1 ver1_main_procedure	6	1	20	<?xml version="1.0"?>\n<Clock xmlns:dt="urn:schemas-microsoft-com:datatypes"><Description dt:dt="string">E-Prime Primary Realtime Clock</Description><StartTime><Timestamp dt:dt="int">0</Timestamp><DateUtc dt:dt="string">2015-08-10T09:53:30Z</DateUtc></StartTime><FrequencyChanges><FrequencyChange><Frequency dt:dt="r8">2612324</Frequency><Timestamp dt:dt="r8">28649475972</Timestamp><Current dt:dt="r8">0</Current><DateUtc dt:dt="string">2015-08-10T09:53:30Z</DateUtc></FrequencyChange></FrequencyChanges></Clock>\n	1 ver1_main_procedure-6-1	99.938	1.0.0.880	2	tm	-1414793926	prawa	1	2.0.10.182	08-10-2015	2015-08-10 09:53:30	11:53:30	mezczyzna	2.0.10.92	3	4	1	1																							l	{SPACE}		no	BlockProc2		BlockList									33	Free	dl	color_blue.png		-1	12	904523	460																								75	prime_right.png	0	904113	0	0	13	0	904113	0	904113	1	904113	20	0	-1	902613	904113	904112	0		TrialProc1	left	0		0	10	904423	-904423		0	0	TrialList2	target_both.png	0	dl	-1	3	904163	260	d	348	904511															9	1	33	incomp			450
1 ver1_main_procedure	6	1	20	<?xml version="1.0"?>\n<Clock xmlns:dt="urn:schemas-microsoft-com:datatypes"><Description dt:dt="string">E-Prime Primary Realtime Clock</Description><StartTime><Timestamp dt:dt="int">0</Timestamp><DateUtc dt:dt="string">2015-08-10T09:53:30Z</DateUtc></StartTime><FrequencyChanges><FrequencyChange><Frequency dt:dt="r8">2612324</Frequency><Timestamp dt:dt="r8">28649475972</Timestamp><Current dt:dt="r8">0</Current><DateUtc dt:dt="string">2015-08-10T09:53:30Z</DateUtc></FrequencyChange></FrequencyChanges></Clock>\n	1 ver1_main_procedure-6-1	99.938	1.0.0.880	2	tm	-1414793926	prawa	1	2.0.10.182	08-10-2015	2015-08-10 09:53:30	11:53:30	mezczyzna	2.0.10.92	3	4	1	1																							l	{SPACE}		no	BlockProc2		BlockList									34	Free	dl	color_orange.png		-1	13	907324	161																								75	prime_right.png	0	906794	0	0	13	0	906794	0	906794	1	906794	20	0	-1	905295	906794	906793	0		TrialProc1	right	0		0	10	907104	-907104		0	0	TrialList2	target_both.png	0	dl	-1	3	906844	260	l	467	907311															10	1	34	comp			150
1 ver1_main_procedure	6	1	20	<?xml version="1.0"?>\n<Clock xmlns:dt="urn:schemas-microsoft-com:datatypes"><Description dt:dt="string">E-Prime Primary Realtime Clock</Description><StartTime><Timestamp dt:dt="int">0</Timestamp><DateUtc dt:dt="string">2015-08-10T09:53:30Z</DateUtc></StartTime><FrequencyChanges><FrequencyChange><Frequency dt:dt="r8">2612324</Frequency><Timestamp dt:dt="r8">28649475972</Timestamp><Current dt:dt="r8">0</Current><DateUtc dt:dt="string">2015-08-10T09:53:30Z</DateUtc></FrequencyChange></FrequencyChanges></Clock>\n	1 ver1_main_procedure-6-1	99.938	1.0.0.880	2	tm	-1414793926	prawa	1	2.0.10.182	08-10-2015	2015-08-10 09:53:30	11:53:30	mezczyzna	2.0.10.92	3	4	1	1																							l	{SPACE}		no	BlockProc2		BlockList									35	Free	dl	color_blue.png		-1	15	909886	310																								75	prime_right.png	0	909296	0	0	13	0	909296	0	909296	1	909296	20	0	-1	907796	909296	909295	0		TrialProc1	left	0		0	10	909606	-909606		0	0	TrialList2	target_both.png	0	dl	-1	3	909346	260	d	525	909871															9	1	35	incomp			300
1 ver1_main_procedure	6	1	20	<?xml version="1.0"?>\n<Clock xmlns:dt="urn:schemas-microsoft-com:datatypes"><Description dt:dt="string">E-Prime Primary Realtime Clock</Description><StartTime><Timestamp dt:dt="int">0</Timestamp><DateUtc dt:dt="string">2015-08-10T09:53:30Z</DateUtc></StartTime><FrequencyChanges><FrequencyChange><Frequency dt:dt="r8">2612324</Frequency><Timestamp dt:dt="r8">28649475972</Timestamp><Current dt:dt="r8">0</Current><DateUtc dt:dt="string">2015-08-10T09:53:30Z</DateUtc></FrequencyChange></FrequencyChanges></Clock>\n	1 ver1_main_procedure-6-1	99.938	1.0.0.880	2	tm	-1414793926	prawa	1	2.0.10.182	08-10-2015	2015-08-10 09:53:30	11:53:30	mezczyzna	2.0.10.92	3	4	1	1																							l	{SPACE}		no	BlockProc2		BlockList									36	Free	dl	color_red.png		-1	7	912598	460																			1					25	prime_left.png	0	912007	0	0	13	0	912007	0	912007	1	912007	20	0	-1	910508	912007	912006	0	prime_left.png	TrialProc1	left	0		1	10	912317	-912317		0	0	TrialList2	target_both.png	0	dl	-1	3	912057	260	l	534	912591															8	1	36	neut			450
1 ver1_main_procedure	6	1	20	<?xml version="1.0"?>\n<Clock xmlns:dt="urn:schemas-microsoft-com:datatypes"><Description dt:dt="string">E-Prime Primary Realtime Clock</Description><StartTime><Timestamp dt:dt="int">0</Timestamp><DateUtc dt:dt="string">2015-08-10T09:53:30Z</DateUtc></StartTime><FrequencyChanges><FrequencyChange><Frequency dt:dt="r8">2612324</Frequency><Timestamp dt:dt="r8">28649475972</Timestamp><Current dt:dt="r8">0</Current><DateUtc dt:dt="string">2015-08-10T09:53:30Z</DateUtc></FrequencyChange></FrequencyChanges></Clock>\n	1 ver1_main_procedure-6-1	99.938	1.0.0.880	2	tm	-1414793926	prawa	1	2.0.10.182	08-10-2015	2015-08-10 09:53:30	11:53:30	mezczyzna	2.0.10.92	3	4	1	1																							l	{SPACE}		no	BlockProc2		BlockList									37	Free	dl	color_blue.png		-1	14	915349	310																								75	prime_right.png	0	914869	0	0	13	0	914869	0	914869	1	914869	20	0	-1	913370	914869	914868	0		TrialProc1	left	0		0	10	915179	-915179		0	0	TrialList2	target_both.png	0	dl	-1	3	914919	260	d	416	915335															9	1	37	incomp			300
1 ver1_main_procedure	6	1	20	<?xml version="1.0"?>\n<Clock xmlns:dt="urn:schemas-microsoft-com:datatypes"><Description dt:dt="string">E-Prime Primary Realtime Clock</Description><StartTime><Timestamp dt:dt="int">0</Timestamp><DateUtc dt:dt="string">2015-08-10T09:53:30Z</DateUtc></StartTime><FrequencyChanges><FrequencyChange><Frequency dt:dt="r8">2612324</Frequency><Timestamp dt:dt="r8">28649475972</Timestamp><Current dt:dt="r8">0</Current><DateUtc dt:dt="string">2015-08-10T09:53:30Z</DateUtc></FrequencyChange></FrequencyChanges></Clock>\n	1 ver1_main_procedure-6-1	99.938	1.0.0.880	2	tm	-1414793926	prawa	1	2.0.10.182	08-10-2015	2015-08-10 09:53:30	11:53:30	mezczyzna	2.0.10.92	3	4	1	1																							l	{SPACE}		no	BlockProc2		BlockList									38	Free	dl	color_green.png		-1	8	917831	160																								75	prime_left.png	1	917471	0	0	13	1	917471	1	917471	0	917470	20	0	-1	915971	917470	917470	0		TrialProc1	left	0		0	11	917781	-917781		0	0	TrialList2	target_both.png	0	dl	-1	3	917520	261	d	303	917823															7	1	38	comp			150
1 ver1_main_procedure	6	1	20	<?xml version="1.0"?>\n<Clock xmlns:dt="urn:schemas-microsoft-com:datatypes"><Description dt:dt="string">E-Prime Primary Realtime Clock</Description><StartTime><Timestamp dt:dt="int">0</Timestamp><DateUtc dt:dt="string">2015-08-10T09:53:30Z</DateUtc></StartTime><FrequencyChanges><FrequencyChange><Frequency dt:dt="r8">2612324</Frequency><Timestamp dt:dt="r8">28649475972</Timestamp><Current dt:dt="r8">0</Current><DateUtc dt:dt="string">2015-08-10T09:53:30Z</DateUtc></FrequencyChange></FrequencyChanges></Clock>\n	1 ver1_main_procedure-6-1	99.938	1.0.0.880	2	tm	-1414793926	prawa	1	2.0.10.182	08-10-2015	2015-08-10 09:53:30	11:53:30	mezczyzna	2.0.10.92	3	4	1	1																							l	{SPACE}		no	BlockProc2		BlockList									39	Free	dl	color_red.png		-1	12	920412	460																			2					75	prime_right.png	0	919802	0	0	13	0	919802	0	919802	1	919802	20	0	-1	918303	919802	919801	0	prime_right.png	TrialProc1	right	0		0	10	920112	-920112		0	0	TrialList2	target_both.png	0	dl	-1	3	919852	260	l	547	920399															11	1	39	neut			450
1 ver1_main_procedure	6	1	20	<?xml version="1.0"?>\n<Clock xmlns:dt="urn:schemas-microsoft-com:datatypes"><Description dt:dt="string">E-Prime Primary Realtime Clock</Description><StartTime><Timestamp dt:dt="int">0</Timestamp><DateUtc dt:dt="string">2015-08-10T09:53:30Z</DateUtc></StartTime><FrequencyChanges><FrequencyChange><Frequency dt:dt="r8">2612324</Frequency><Timestamp dt:dt="r8">28649475972</Timestamp><Current dt:dt="r8">0</Current><DateUtc dt:dt="string">2015-08-10T09:53:30Z</DateUtc></FrequencyChange></FrequencyChanges></Clock>\n	1 ver1_main_procedure-6-1	99.938	1.0.0.880	2	tm	-1414793926	prawa	1	2.0.10.182	08-10-2015	2015-08-10 09:53:30	11:53:30	mezczyzna	2.0.10.92	3	4	1	1																							l	{SPACE}		no	BlockProc2		BlockList									40	Cued	d	color_blue.png		-1	12	923284	460																								75	prime_right.png	0	922684	0	0	13	0	922684	0	922684	1	922684	20	0	-1	921184	922684	922683	0		TrialProc1	left	0		0	10	922994	-922994		0	0	TrialList2	target_left.png	1	d	-1	3	922734	260	d	537	923271															3	1	40	incomp			450
1 ver1_main_procedure	6	1	20	<?xml version="1.0"?>\n<Clock xmlns:dt="urn:schemas-microsoft-com:datatypes"><Description dt:dt="string">E-Prime Primary Realtime Clock</Description><StartTime><Timestamp dt:dt="int">0</Timestamp><DateUtc dt:dt="string">2015-08-10T09:53:30Z</DateUtc></StartTime><FrequencyChanges><FrequencyChange><Frequency dt:dt="r8">2612324</Frequency><Timestamp dt:dt="r8">28649475972</Timestamp><Current dt:dt="r8">0</Current><DateUtc dt:dt="string">2015-08-10T09:53:30Z</DateUtc></FrequencyChange></FrequencyChanges></Clock>\n	1 ver1_main_procedure-6-1	99.938	1.0.0.880	2	tm	-1414793926	prawa	1	2.0.10.182	08-10-2015	2015-08-10 09:53:30	11:53:30	mezczyzna	2.0.10.92	3	4	1	1																							l	{SPACE}		no	BlockProc2		BlockList									41	Free	dl	color_orange.png		-1	9	926025	161																								75	prime_right.png	0	925555	0	0	13	0	925555	0	925555	1	925555	20	0	-1	924056	925555	925554	0		TrialProc1	right	0		1	10	925865	-925865		0	0	TrialList2	target_both.png	0	dl	-1	3	925605	260	l	410	926015															10	1	41	comp			150
1 ver1_main_procedure	6	1	20	<?xml version="1.0"?>\n<Clock xmlns:dt="urn:schemas-microsoft-com:datatypes"><Description dt:dt="string">E-Prime Primary Realtime Clock</Description><StartTime><Timestamp dt:dt="int">0</Timestamp><DateUtc dt:dt="string">2015-08-10T09:53:30Z</DateUtc></StartTime><FrequencyChanges><FrequencyChange><Frequency dt:dt="r8">2612324</Frequency><Timestamp dt:dt="r8">28649475972</Timestamp><Current dt:dt="r8">0</Current><DateUtc dt:dt="string">2015-08-10T09:53:30Z</DateUtc></FrequencyChange></FrequencyChanges></Clock>\n	1 ver1_main_procedure-6-1	99.938	1.0.0.880	2	tm	-1414793926	prawa	1	2.0.10.182	08-10-2015	2015-08-10 09:53:30	11:53:30	mezczyzna	2.0.10.92	3	4	1	1																							l	{SPACE}		no	BlockProc2		BlockList									42	Free	dl	color_purple.png		-1	5	928517	460																			1					25	prime_left.png	0	927997	0	0	13	0	927997	0	927997	1	927997	20	0	-1	926497	927997	927996	0	prime_left.png	TrialProc1	right	0		0	10	928307	-928307		0	0	TrialList2	target_both.png	0	dl	-1	3	928047	260	d	464	928511															11	1	42	neut			450
1 ver1_main_procedure	6	1	20	<?xml version="1.0"?>\n<Clock xmlns:dt="urn:schemas-microsoft-com:datatypes"><Description dt:dt="string">E-Prime Primary Realtime Clock</Description><StartTime><Timestamp dt:dt="int">0</Timestamp><DateUtc dt:dt="string">2015-08-10T09:53:30Z</DateUtc></StartTime><FrequencyChanges><FrequencyChange><Frequency dt:dt="r8">2612324</Frequency><Timestamp dt:dt="r8">28649475972</Timestamp><Current dt:dt="r8">0</Current><DateUtc dt:dt="string">2015-08-10T09:53:30Z</DateUtc></FrequencyChange></FrequencyChanges></Clock>\n	1 ver1_main_procedure-6-1	99.938	1.0.0.880	2	tm	-1414793926	prawa	1	2.0.10.182	08-10-2015	2015-08-10 09:53:30	11:53:30	mezczyzna	2.0.10.92	3	4	1	1																							l	{SPACE}		no	BlockProc2		BlockList									43	Free	dl	color_yellow.png		-1	11	931299	310																								25	prime_left.png	0	930788	0	0	13	0	930788	0	930788	1	930788	20	0	-1	929289	930788	930787	0		TrialProc1	right	0		1	10	931098	-931098		0	0	TrialList2	target_both.png	0	dl	-1	3	930838	260	l	449	931287															12	1	43	incomp			300
1 ver1_main_procedure	6	1	20	<?xml version="1.0"?>\n<Clock xmlns:dt="urn:schemas-microsoft-com:datatypes"><Description dt:dt="string">E-Prime Primary Realtime Clock</Description><StartTime><Timestamp dt:dt="int">0</Timestamp><DateUtc dt:dt="string">2015-08-10T09:53:30Z</DateUtc></StartTime><FrequencyChanges><FrequencyChange><Frequency dt:dt="r8">2612324</Frequency><Timestamp dt:dt="r8">28649475972</Timestamp><Current dt:dt="r8">0</Current><DateUtc dt:dt="string">2015-08-10T09:53:30Z</DateUtc></FrequencyChange></FrequencyChanges></Clock>\n	1 ver1_main_procedure-6-1	99.938	1.0.0.880	2	tm	-1414793926	prawa	1	2.0.10.182	08-10-2015	2015-08-10 09:53:30	11:53:30	mezczyzna	2.0.10.92	3	4	1	1																							l	{SPACE}		no	BlockProc2		BlockList									44	Free	dl	color_green.png		-1	6	933950	310																								25	prime_left.png	0	933420	0	0	13	0	933420	0	933420	1	933420	20	0	-1	931921	933420	933419	0		TrialProc1	right	0		0	10	933730	-933730		0	0	TrialList2	target_both.png	0	dl	-1	3	933470	260	d	473	933943															12	1	44	incomp			300
1 ver1_main_procedure	6	1	20	<?xml version="1.0"?>\n<Clock xmlns:dt="urn:schemas-microsoft-com:datatypes"><Description dt:dt="string">E-Prime Primary Realtime Clock</Description><StartTime><Timestamp dt:dt="int">0</Timestamp><DateUtc dt:dt="string">2015-08-10T09:53:30Z</DateUtc></StartTime><FrequencyChanges><FrequencyChange><Frequency dt:dt="r8">2612324</Frequency><Timestamp dt:dt="r8">28649475972</Timestamp><Current dt:dt="r8">0</Current><DateUtc dt:dt="string">2015-08-10T09:53:30Z</DateUtc></FrequencyChange></FrequencyChanges></Clock>\n	1 ver1_main_procedure-6-1	99.938	1.0.0.880	2	tm	-1414793926	prawa	1	2.0.10.182	08-10-2015	2015-08-10 09:53:30	11:53:30	mezczyzna	2.0.10.92	3	4	1	1																							l	{SPACE}		no	BlockProc2		BlockList									45	Free	dl	color_yellow.png		-1	14	936542	310																								75	prime_left.png	0	936071	0	0	13	1	936072	1	936072	1	936071	20	0	-1	934572	936071	936070	0		TrialProc1	left	0		0	11	936382	-936382		0	0	TrialList2	target_both.png	0	dl	-1	3	936121	261	l	406	936527															7	1	45	comp			300
1 ver1_main_procedure	6	1	20	<?xml version="1.0"?>\n<Clock xmlns:dt="urn:schemas-microsoft-com:datatypes"><Description dt:dt="string">E-Prime Primary Realtime Clock</Description><StartTime><Timestamp dt:dt="int">0</Timestamp><DateUtc dt:dt="string">2015-08-10T09:53:30Z</DateUtc></StartTime><FrequencyChanges><FrequencyChange><Frequency dt:dt="r8">2612324</Frequency><Timestamp dt:dt="r8">28649475972</Timestamp><Current dt:dt="r8">0</Current><DateUtc dt:dt="string">2015-08-10T09:53:30Z</DateUtc></FrequencyChange></FrequencyChanges></Clock>\n	1 ver1_main_procedure-6-1	99.938	1.0.0.880	2	tm	-1414793926	prawa	1	2.0.10.182	08-10-2015	2015-08-10 09:53:30	11:53:30	mezczyzna	2.0.10.92	3	4	1	1																							l	{SPACE}		no	BlockProc2		BlockList									46	Free	dl	color_blue.png		-1	13	939133	310																								75	prime_right.png	0	938663	0	0	13	0	938663	0	938663	1	938663	20	0	-1	937164	938663	938662	0		TrialProc1	right	0		0	10	938973	-938973		0	0	TrialList2	target_both.png	0	dl	-1	3	938713	260	d	406	939119															10	1	46	comp			300
1 ver1_main_procedure	6	1	20	<?xml version="1.0"?>\n<Clock xmlns:dt="urn:schemas-microsoft-com:datatypes"><Description dt:dt="string">E-Prime Primary Realtime Clock</Description><StartTime><Timestamp dt:dt="int">0</Timestamp><DateUtc dt:dt="string">2015-08-10T09:53:30Z</DateUtc></StartTime><FrequencyChanges><FrequencyChange><Frequency dt:dt="r8">2612324</Frequency><Timestamp dt:dt="r8">28649475972</Timestamp><Current dt:dt="r8">0</Current><DateUtc dt:dt="string">2015-08-10T09:53:30Z</DateUtc></FrequencyChange></FrequencyChanges></Clock>\n	1 ver1_main_procedure-6-1	99.938	1.0.0.880	2	tm	-1414793926	prawa	1	2.0.10.182	08-10-2015	2015-08-10 09:53:30	11:53:30	mezczyzna	2.0.10.92	3	4	1	1																							l	{SPACE}		no	BlockProc2		BlockList									47	Free	dl	color_red.png		-1	13	941645	160																			2					25	prime_right.png	0	941254	0	0	13	1	941255	1	941255	0	941254	20	0	-1	939755	941254	941254	0	prime_right.png	TrialProc1	left	0		0	11	941565	-941565		0	0	TrialList2	target_both.png	0	dl	-1	3	941304	261	l	327	941631															8	1	47	neut			150
1 ver1_main_procedure	6	1	20	<?xml version="1.0"?>\n<Clock xmlns:dt="urn:schemas-microsoft-com:datatypes"><Description dt:dt="string">E-Prime Primary Realtime Clock</Description><StartTime><Timestamp dt:dt="int">0</Timestamp><DateUtc dt:dt="string">2015-08-10T09:53:30Z</DateUtc></StartTime><FrequencyChanges><FrequencyChange><Frequency dt:dt="r8">2612324</Frequency><Timestamp dt:dt="r8">28649475972</Timestamp><Current dt:dt="r8">0</Current><DateUtc dt:dt="string">2015-08-10T09:53:30Z</DateUtc></FrequencyChange></FrequencyChanges></Clock>\n	1 ver1_main_procedure-6-1	99.938	1.0.0.880	2	tm	-1414793926	prawa	1	2.0.10.182	08-10-2015	2015-08-10 09:53:30	11:53:30	mezczyzna	2.0.10.92	3	4	1	1																							l	{SPACE}		no	BlockProc2		BlockList									48	Free	dl	color_blue.png		-1	12	944076	310																								25	prime_right.png	0	943616	0	0	13	0	943616	0	943616	1	943616	20	0	-1	942117	943616	943615	0		TrialProc1	right	0		0	10	943926	-943926		0	0	TrialList2	target_both.png	0	dl	-1	3	943666	260	d	397	944063															10	1	48	comp			300
1 ver1_main_procedure	6	1	20	<?xml version="1.0"?>\n<Clock xmlns:dt="urn:schemas-microsoft-com:datatypes"><Description dt:dt="string">E-Prime Primary Realtime Clock</Description><StartTime><Timestamp dt:dt="int">0</Timestamp><DateUtc dt:dt="string">2015-08-10T09:53:30Z</DateUtc></StartTime><FrequencyChanges><FrequencyChange><Frequency dt:dt="r8">2612324</Frequency><Timestamp dt:dt="r8">28649475972</Timestamp><Current dt:dt="r8">0</Current><DateUtc dt:dt="string">2015-08-10T09:53:30Z</DateUtc></FrequencyChange></FrequencyChanges></Clock>\n	1 ver1_main_procedure-6-1	99.938	1.0.0.880	2	tm	-1414793926	prawa	1	2.0.10.182	08-10-2015	2015-08-10 09:53:30	11:53:30	mezczyzna	2.0.10.92	3	4	1	1																							l	{SPACE}		no	BlockProc2		BlockList									49	Free	dl	color_yellow.png		-1	14	946558	460																								75	prime_left.png	0	946197	0	0	13	0	946198	0	946197	1	946197	20	0	-1	944698	946197	946196	0		TrialProc1	right	0		0	11	946508	-946508		0	0	TrialList2	target_both.png	0	dl	-1	3	946247	261	l	296	946543															12	1	49	incomp			450
1 ver1_main_procedure	6	1	20	<?xml version="1.0"?>\n<Clock xmlns:dt="urn:schemas-microsoft-com:datatypes"><Description dt:dt="string">E-Prime Primary Realtime Clock</Description><StartTime><Timestamp dt:dt="int">0</Timestamp><DateUtc dt:dt="string">2015-08-10T09:53:30Z</DateUtc></StartTime><FrequencyChanges><FrequencyChange><Frequency dt:dt="r8">2612324</Frequency><Timestamp dt:dt="r8">28649475972</Timestamp><Current dt:dt="r8">0</Current><DateUtc dt:dt="string">2015-08-10T09:53:30Z</DateUtc></FrequencyChange></FrequencyChanges></Clock>\n	1 ver1_main_procedure-6-1	99.938	1.0.0.880	2	tm	-1414793926	prawa	1	2.0.10.182	08-10-2015	2015-08-10 09:53:30	11:53:30	mezczyzna	2.0.10.92	3	4	1	1																							l	{SPACE}		no	BlockProc2		BlockList									50	Free	dl	color_blue.png		-1	5	949349	160																								25	prime_right.png	0	948829	0	0	13	0	948829	0	948829	1	948829	20	0	-1	947330	948829	948828	0		TrialProc1	left	0		0	10	949139	-949139		0	0	TrialList2	target_both.png	0	dl	-1	3	948879	260	d	464	949343															9	1	50	incomp			150
1 ver1_main_procedure	6	1	20	<?xml version="1.0"?>\n<Clock xmlns:dt="urn:schemas-microsoft-com:datatypes"><Description dt:dt="string">E-Prime Primary Realtime Clock</Description><StartTime><Timestamp dt:dt="int">0</Timestamp><DateUtc dt:dt="string">2015-08-10T09:53:30Z</DateUtc></StartTime><FrequencyChanges><FrequencyChange><Frequency dt:dt="r8">2612324</Frequency><Timestamp dt:dt="r8">28649475972</Timestamp><Current dt:dt="r8">0</Current><DateUtc dt:dt="string">2015-08-10T09:53:30Z</DateUtc></FrequencyChange></FrequencyChanges></Clock>\n	1 ver1_main_procedure-6-1	99.938	1.0.0.880	2	tm	-1414793926	prawa	1	2.0.10.182	08-10-2015	2015-08-10 09:53:30	11:53:30	mezczyzna	2.0.10.92	3	4	1	1																							l	{SPACE}		no	BlockProc2		BlockList									51	Free	dl	color_red.png		-1	9	951801	460																			1					25	prime_left.png	0	951320	0	0	13	0	951321	0	951320	1	951320	20	0	-1	949821	951320	951319	0	prime_left.png	TrialProc1	right	0		0	11	951631	-951631		0	0	TrialList2	target_both.png	0	dl	-1	3	951370	261	l	421	951791															11	1	51	neut			450
1 ver1_main_procedure	6	1	20	<?xml version="1.0"?>\n<Clock xmlns:dt="urn:schemas-microsoft-com:datatypes"><Description dt:dt="string">E-Prime Primary Realtime Clock</Description><StartTime><Timestamp dt:dt="int">0</Timestamp><DateUtc dt:dt="string">2015-08-10T09:53:30Z</DateUtc></StartTime><FrequencyChanges><FrequencyChange><Frequency dt:dt="r8">2612324</Frequency><Timestamp dt:dt="r8">28649475972</Timestamp><Current dt:dt="r8">0</Current><DateUtc dt:dt="string">2015-08-10T09:53:30Z</DateUtc></FrequencyChange></FrequencyChanges></Clock>\n	1 ver1_main_procedure-6-1	99.938	1.0.0.880	2	tm	-1414793926	prawa	1	2.0.10.182	08-10-2015	2015-08-10 09:53:30	11:53:30	mezczyzna	2.0.10.92	3	4	1	1																							l	{SPACE}		no	BlockProc2		BlockList									52	Free	dl	color_purple.png		-1	10	954522	460																			2					25	prime_right.png	0	954072	0	0	13	0	954072	0	954072	1	954072	20	0	-1	952573	954072	954071	0	prime_right.png	TrialProc1	right	0		0	10	954382	-954382		0	0	TrialList2	target_both.png	0	dl	-1	3	954122	260	d	389	954511															11	1	52	neut			450
1 ver1_main_procedure	6	1	20	<?xml version="1.0"?>\n<Clock xmlns:dt="urn:schemas-microsoft-com:datatypes"><Description dt:dt="string">E-Prime Primary Realtime Clock</Description><StartTime><Timestamp dt:dt="int">0</Timestamp><DateUtc dt:dt="string">2015-08-10T09:53:30Z</DateUtc></StartTime><FrequencyChanges><FrequencyChange><Frequency dt:dt="r8">2612324</Frequency><Timestamp dt:dt="r8">28649475972</Timestamp><Current dt:dt="r8">0</Current><DateUtc dt:dt="string">2015-08-10T09:53:30Z</DateUtc></FrequencyChange></FrequencyChanges></Clock>\n	1 ver1_main_procedure-6-1	99.938	1.0.0.880	2	tm	-1414793926	prawa	1	2.0.10.182	08-10-2015	2015-08-10 09:53:30	11:53:30	mezczyzna	2.0.10.92	3	4	1	1																							l	{SPACE}		no	BlockProc2		BlockList									53	Cued	l	color_red.png		-1	14	957174	460																			1					25	prime_left.png	0	956794	0	0	13	0	956794	0	956794	1	956794	20	0	-1	955294	956794	956793	0	prime_left.png	TrialProc1	right	0		0	10	957104	-957104		0	0	TrialList2	target_right.png	1	l	-1	3	956844	260	l	315	957159															5	1	53	neut			450
1 ver1_main_procedure	6	1	20	<?xml version="1.0"?>\n<Clock xmlns:dt="urn:schemas-microsoft-com:datatypes"><Description dt:dt="string">E-Prime Primary Realtime Clock</Description><StartTime><Timestamp dt:dt="int">0</Timestamp><DateUtc dt:dt="string">2015-08-10T09:53:30Z</DateUtc></StartTime><FrequencyChanges><FrequencyChange><Frequency dt:dt="r8">2612324</Frequency><Timestamp dt:dt="r8">28649475972</Timestamp><Current dt:dt="r8">0</Current><DateUtc dt:dt="string">2015-08-10T09:53:30Z</DateUtc></FrequencyChange></FrequencyChanges></Clock>\n	1 ver1_main_procedure-6-1	99.938	1.0.0.880	2	tm	-1414793926	prawa	1	2.0.10.182	08-10-2015	2015-08-10 09:53:30	11:53:30	mezczyzna	2.0.10.92	3	4	1	1																							l	{SPACE}		no	BlockProc2		BlockList									54	Cued	l	color_yellow.png		-1	7	960015	161																								75	prime_left.png	0	959445	0	0	13	0	959445	0	959445	1	959445	20	0	-1	957946	959445	959444	0		TrialProc1	right	0		0	10	959755	-959755		0	0	TrialList2	target_right.png	1	l	-1	3	959495	260	l	512	960007															6	1	54	incomp			150
1 ver1_main_procedure	6	1	20	<?xml version="1.0"?>\n<Clock xmlns:dt="urn:schemas-microsoft-com:datatypes"><Description dt:dt="string">E-Prime Primary Realtime Clock</Description><StartTime><Timestamp dt:dt="int">0</Timestamp><DateUtc dt:dt="string">2015-08-10T09:53:30Z</DateUtc></StartTime><FrequencyChanges><FrequencyChange><Frequency dt:dt="r8">2612324</Frequency><Timestamp dt:dt="r8">28649475972</Timestamp><Current dt:dt="r8">0</Current><DateUtc dt:dt="string">2015-08-10T09:53:30Z</DateUtc></FrequencyChange></FrequencyChanges></Clock>\n	1 ver1_main_procedure-6-1	99.938	1.0.0.880	2	tm	-1414793926	prawa	1	2.0.10.182	08-10-2015	2015-08-10 09:53:30	11:53:30	mezczyzna	2.0.10.92	3	4	1	1																							l	{SPACE}		no	BlockProc2		BlockList									55	Free	dl	color_blue.png		-1	9	962457	160																								75	prime_right.png	0	961987	0	0	13	0	961987	0	961987	1	961987	20	0	-1	960487	961987	961986	0		TrialProc1	left	0		0	10	962297	-962297		0	0	TrialList2	target_both.png	0	dl	-1	3	962037	260	d	410	962447															9	1	55	incomp			150
1 ver1_main_procedure	6	1	20	<?xml version="1.0"?>\n<Clock xmlns:dt="urn:schemas-microsoft-com:datatypes"><Description dt:dt="string">E-Prime Primary Realtime Clock</Description><StartTime><Timestamp dt:dt="int">0</Timestamp><DateUtc dt:dt="string">2015-08-10T09:53:30Z</DateUtc></StartTime><FrequencyChanges><FrequencyChange><Frequency dt:dt="r8">2612324</Frequency><Timestamp dt:dt="r8">28649475972</Timestamp><Current dt:dt="r8">0</Current><DateUtc dt:dt="string">2015-08-10T09:53:30Z</DateUtc></FrequencyChange></FrequencyChanges></Clock>\n	1 ver1_main_procedure-6-1	99.938	1.0.0.880	2	tm	-1414793926	prawa	1	2.0.10.182	08-10-2015	2015-08-10 09:53:30	11:53:30	mezczyzna	2.0.10.92	3	4	1	1																							l	{SPACE}		no	BlockProc2		BlockList									56	Free	dl	color_orange.png		-1	10	964858	160																								25	prime_right.png	0	964428	0	0	13	0	964428	0	964428	1	964428	20	0	-1	962929	964428	964427	0		TrialProc1	left	0		0	10	964738	-964738		0	0	TrialList2	target_both.png	0	dl	-1	3	964478	260	l	369	964847															9	1	56	incomp			150
1 ver1_main_procedure	6	1	20	<?xml version="1.0"?>\n<Clock xmlns:dt="urn:schemas-microsoft-com:datatypes"><Description dt:dt="string">E-Prime Primary Realtime Clock</Description><StartTime><Timestamp dt:dt="int">0</Timestamp><DateUtc dt:dt="string">2015-08-10T09:53:30Z</DateUtc></StartTime><FrequencyChanges><FrequencyChange><Frequency dt:dt="r8">2612324</Frequency><Timestamp dt:dt="r8">28649475972</Timestamp><Current dt:dt="r8">0</Current><DateUtc dt:dt="string">2015-08-10T09:53:30Z</DateUtc></FrequencyChange></FrequencyChanges></Clock>\n	1 ver1_main_procedure-6-1	99.938	1.0.0.880	2	tm	-1414793926	prawa	1	2.0.10.182	08-10-2015	2015-08-10 09:53:30	11:53:30	mezczyzna	2.0.10.92	3	4	1	1																							l	{SPACE}		no	BlockProc2		BlockList									57	Free	dl	color_green.png		-1	14	967190	310																								25	prime_left.png	0	966830	0	0	13	0	966830	0	966830	1	966830	19	0	-1	965330	966830	966829	0		TrialProc1	left	0		0	11	967140	-967140		0	0	TrialList2	target_both.png	0	dl	-1	3	966879	261	d	296	967175															7	1	57	comp			300
1 ver1_main_procedure	6	1	20	<?xml version="1.0"?>\n<Clock xmlns:dt="urn:schemas-microsoft-com:datatypes"><Description dt:dt="string">E-Prime Primary Realtime Clock</Description><StartTime><Timestamp dt:dt="int">0</Timestamp><DateUtc dt:dt="string">2015-08-10T09:53:30Z</DateUtc></StartTime><FrequencyChanges><FrequencyChange><Frequency dt:dt="r8">2612324</Frequency><Timestamp dt:dt="r8">28649475972</Timestamp><Current dt:dt="r8">0</Current><DateUtc dt:dt="string">2015-08-10T09:53:30Z</DateUtc></FrequencyChange></FrequencyChanges></Clock>\n	1 ver1_main_procedure-6-1	99.938	1.0.0.880	2	tm	-1414793926	prawa	1	2.0.10.182	08-10-2015	2015-08-10 09:53:30	11:53:30	mezczyzna	2.0.10.92	3	4	1	1																							l	{SPACE}		no	BlockProc2		BlockList									58	Free	dl	color_yellow.png		-1	7	969791	310																								25	prime_left.png	0	969311	0	0	13	0	969311	0	969311	1	969311	20	0	-1	967812	969311	969310	0		TrialProc1	left	0		0	10	969621	-969621		0	0	TrialList2	target_both.png	0	dl	-1	3	969361	260	l	422	969783															7	1	58	comp			300
1 ver1_main_procedure	6	1	20	<?xml version="1.0"?>\n<Clock xmlns:dt="urn:schemas-microsoft-com:datatypes"><Description dt:dt="string">E-Prime Primary Realtime Clock</Description><StartTime><Timestamp dt:dt="int">0</Timestamp><DateUtc dt:dt="string">2015-08-10T09:53:30Z</DateUtc></StartTime><FrequencyChanges><FrequencyChange><Frequency dt:dt="r8">2612324</Frequency><Timestamp dt:dt="r8">28649475972</Timestamp><Current dt:dt="r8">0</Current><DateUtc dt:dt="string">2015-08-10T09:53:30Z</DateUtc></FrequencyChange></FrequencyChanges></Clock>\n	1 ver1_main_procedure-6-1	99.938	1.0.0.880	2	tm	-1414793926	prawa	1	2.0.10.182	08-10-2015	2015-08-10 09:53:30	11:53:30	mezczyzna	2.0.10.92	3	4	1	1																							l	{SPACE}		no	BlockProc2		BlockList									59	Free	dl	color_green.png		-1	13	972333	310																								25	prime_left.png	1	971913	0	0	13	1	971913	1	971913	0	971912	20	0	-1	970413	971912	971912	0		TrialProc1	left	0		0	11	972223	-972223		0	0	TrialList2	target_both.png	0	dl	-1	3	971962	261	d	357	972319															7	1	59	comp			300
1 ver1_main_procedure	6	1	20	<?xml version="1.0"?>\n<Clock xmlns:dt="urn:schemas-microsoft-com:datatypes"><Description dt:dt="string">E-Prime Primary Realtime Clock</Description><StartTime><Timestamp dt:dt="int">0</Timestamp><DateUtc dt:dt="string">2015-08-10T09:53:30Z</DateUtc></StartTime><FrequencyChanges><FrequencyChange><Frequency dt:dt="r8">2612324</Frequency><Timestamp dt:dt="r8">28649475972</Timestamp><Current dt:dt="r8">0</Current><DateUtc dt:dt="string">2015-08-10T09:53:30Z</DateUtc></FrequencyChange></FrequencyChanges></Clock>\n	1 ver1_main_procedure-6-1	99.938	1.0.0.880	2	tm	-1414793926	prawa	1	2.0.10.182	08-10-2015	2015-08-10 09:53:30	11:53:30	mezczyzna	2.0.10.92	3	4	1	1																							l	{SPACE}		no	BlockProc2		BlockList									60	Free	dl	color_orange.png		-1	8	974824	310																								25	prime_right.png	0	974454	0	0	13	0	974454	0	974454	1	974454	20	0	-1	972955	974454	974453	0		TrialProc1	right	0		0	10	974764	-974764		0	0	TrialList2	target_both.png	0	dl	-1	3	974504	260	l	311	974815															10	1	60	comp			300
1 ver1_main_procedure	6	1	20	<?xml version="1.0"?>\n<Clock xmlns:dt="urn:schemas-microsoft-com:datatypes"><Description dt:dt="string">E-Prime Primary Realtime Clock</Description><StartTime><Timestamp dt:dt="int">0</Timestamp><DateUtc dt:dt="string">2015-08-10T09:53:30Z</DateUtc></StartTime><FrequencyChanges><FrequencyChange><Frequency dt:dt="r8">2612324</Frequency><Timestamp dt:dt="r8">28649475972</Timestamp><Current dt:dt="r8">0</Current><DateUtc dt:dt="string">2015-08-10T09:53:30Z</DateUtc></FrequencyChange></FrequencyChanges></Clock>\n	1 ver1_main_procedure-6-1	99.938	1.0.0.880	2	tm	-1414793926	prawa	1	2.0.10.182	08-10-2015	2015-08-10 09:53:30	11:53:30	mezczyzna	2.0.10.92	3	4	1	1																							l	{SPACE}		no	BlockProc2		BlockList									61	Free	dl	color_purple.png		-1	8	977456	310																			2					75	prime_right.png	1	976946	0	0	13	1	976946	1	976946	0	976945	20	0	-1	975446	976945	976945	0	prime_right.png	TrialProc1	left	0		0	11	977256	-977256		0	0	TrialList2	target_both.png	0	dl	-1	3	976995	261	d	453	977448															8	1	61	neut			300
1 ver1_main_procedure	6	1	20	<?xml version="1.0"?>\n<Clock xmlns:dt="urn:schemas-microsoft-com:datatypes"><Description dt:dt="string">E-Prime Primary Realtime Clock</Description><StartTime><Timestamp dt:dt="int">0</Timestamp><DateUtc dt:dt="string">2015-08-10T09:53:30Z</DateUtc></StartTime><FrequencyChanges><FrequencyChange><Frequency dt:dt="r8">2612324</Frequency><Timestamp dt:dt="r8">28649475972</Timestamp><Current dt:dt="r8">0</Current><DateUtc dt:dt="string">2015-08-10T09:53:30Z</DateUtc></FrequencyChange></FrequencyChanges></Clock>\n	1 ver1_main_procedure-6-1	99.938	1.0.0.880	2	tm	-1414793926	prawa	1	2.0.10.182	08-10-2015	2015-08-10 09:53:30	11:53:30	mezczyzna	2.0.10.92	3	4	1	1																							l	{SPACE}		no	BlockProc2		BlockList									62	Cued	l	color_red.png		-1	10	979897	160																			1					25	prime_left.png	0	979577	0	0	13	0	979577	0	979577	1	979577	20	0	-1	978078	979577	979576	0	prime_left.png	TrialProc1	right	0		-999999	10	979887	0		0	0	TrialList2	target_right.png	1	l	-1	3	979627	0	l	253	979880															5	1	62	neut			150
1 ver1_main_procedure	6	1	20	<?xml version="1.0"?>\n<Clock xmlns:dt="urn:schemas-microsoft-com:datatypes"><Description dt:dt="string">E-Prime Primary Realtime Clock</Description><StartTime><Timestamp dt:dt="int">0</Timestamp><DateUtc dt:dt="string">2015-08-10T09:53:30Z</DateUtc></StartTime><FrequencyChanges><FrequencyChange><Frequency dt:dt="r8">2612324</Frequency><Timestamp dt:dt="r8">28649475972</Timestamp><Current dt:dt="r8">0</Current><DateUtc dt:dt="string">2015-08-10T09:53:30Z</DateUtc></FrequencyChange></FrequencyChanges></Clock>\n	1 ver1_main_procedure-6-1	99.938	1.0.0.880	2	tm	-1414793926	prawa	1	2.0.10.182	08-10-2015	2015-08-10 09:53:30	11:53:30	mezczyzna	2.0.10.92	3	4	1	1																							l	{SPACE}		no	BlockProc2		BlockList									63	Free	dl	color_yellow.png		-1	9	982289	310																								75	prime_left.png	0	981868	0	0	13	0	981868	0	981868	1	981868	20	0	-1	980369	981868	981867	0		TrialProc1	right	0		0	11	982179	-982179		0	0	TrialList2	target_both.png	0	dl	-1	3	981918	261	l	362	982280															12	1	63	incomp			300
1 ver1_main_procedure	6	1	20	<?xml version="1.0"?>\n<Clock xmlns:dt="urn:schemas-microsoft-com:datatypes"><Description dt:dt="string">E-Prime Primary Realtime Clock</Description><StartTime><Timestamp dt:dt="int">0</Timestamp><DateUtc dt:dt="string">2015-08-10T09:53:30Z</DateUtc></StartTime><FrequencyChanges><FrequencyChange><Frequency dt:dt="r8">2612324</Frequency><Timestamp dt:dt="r8">28649475972</Timestamp><Current dt:dt="r8">0</Current><DateUtc dt:dt="string">2015-08-10T09:53:30Z</DateUtc></FrequencyChange></FrequencyChanges></Clock>\n	1 ver1_main_procedure-6-1	99.938	1.0.0.880	2	tm	-1414793926	prawa	1	2.0.10.182	08-10-2015	2015-08-10 09:53:30	11:53:30	mezczyzna	2.0.10.92	3	4	1	1																							l	{SPACE}		no	BlockProc2		BlockList									64	Free	dl	color_green.png		-1	6	984750	460																								25	prime_left.png	0	984410	0	0	13	0	984410	0	984410	1	984410	20	0	-1	982911	984410	984409	0		TrialProc1	right	0		0	10	984720	-984720		0	0	TrialList2	target_both.png	0	dl	-1	3	984460	260	d	284	984744															12	1	64	incomp			450
1 ver1_main_procedure	6	1	20	<?xml version="1.0"?>\n<Clock xmlns:dt="urn:schemas-microsoft-com:datatypes"><Description dt:dt="string">E-Prime Primary Realtime Clock</Description><StartTime><Timestamp dt:dt="int">0</Timestamp><DateUtc dt:dt="string">2015-08-10T09:53:30Z</DateUtc></StartTime><FrequencyChanges><FrequencyChange><Frequency dt:dt="r8">2612324</Frequency><Timestamp dt:dt="r8">28649475972</Timestamp><Current dt:dt="r8">0</Current><DateUtc dt:dt="string">2015-08-10T09:53:30Z</DateUtc></FrequencyChange></FrequencyChanges></Clock>\n	1 ver1_main_procedure-6-1	99.938	1.0.0.880	2	tm	-1414793926	prawa	1	2.0.10.182	08-10-2015	2015-08-10 09:53:30	11:53:30	mezczyzna	2.0.10.92	3	4	1	1																							l	{SPACE}		no	BlockProc2		BlockList									65	Cued	l	color_orange.png		-1	6	987342	310																								75	prime_right.png	0	987021	0	0	13	0	987022	0	987021	1	987021	20	0	-1	985522	987021	987020	0		TrialProc1	right	0		1	10	987331	-987331		0	0	TrialList2	target_right.png	1	l	-1	3	987071	260	l	265	987336															4	1	65	comp			300
1 ver1_main_procedure	6	1	20	<?xml version="1.0"?>\n<Clock xmlns:dt="urn:schemas-microsoft-com:datatypes"><Description dt:dt="string">E-Prime Primary Realtime Clock</Description><StartTime><Timestamp dt:dt="int">0</Timestamp><DateUtc dt:dt="string">2015-08-10T09:53:30Z</DateUtc></StartTime><FrequencyChanges><FrequencyChange><Frequency dt:dt="r8">2612324</Frequency><Timestamp dt:dt="r8">28649475972</Timestamp><Current dt:dt="r8">0</Current><DateUtc dt:dt="string">2015-08-10T09:53:30Z</DateUtc></FrequencyChange></FrequencyChanges></Clock>\n	1 ver1_main_procedure-6-1	99.938	1.0.0.880	2	tm	-1414793926	prawa	1	2.0.10.182	08-10-2015	2015-08-10 09:53:30	11:53:30	mezczyzna	2.0.10.92	3	4	1	1																							l	{SPACE}		no	BlockProc2		BlockList									66	Cued	l	color_red.png		-1	13	989933	460																			2					25	prime_right.png	0	989463	0	0	13	0	989463	0	989463	1	989463	20	0	-1	987964	989463	989462	0	prime_right.png	TrialProc1	right	0		0	10	989773	-989773		0	0	TrialList2	target_right.png	1	l	-1	3	989513	260	l	407	989920															5	1	66	neut			450
1 ver1_main_procedure	6	1	20	<?xml version="1.0"?>\n<Clock xmlns:dt="urn:schemas-microsoft-com:datatypes"><Description dt:dt="string">E-Prime Primary Realtime Clock</Description><StartTime><Timestamp dt:dt="int">0</Timestamp><DateUtc dt:dt="string">2015-08-10T09:53:30Z</DateUtc></StartTime><FrequencyChanges><FrequencyChange><Frequency dt:dt="r8">2612324</Frequency><Timestamp dt:dt="r8">28649475972</Timestamp><Current dt:dt="r8">0</Current><DateUtc dt:dt="string">2015-08-10T09:53:30Z</DateUtc></FrequencyChange></FrequencyChanges></Clock>\n	1 ver1_main_procedure-6-1	99.938	1.0.0.880	2	tm	-1414793926	prawa	1	2.0.10.182	08-10-2015	2015-08-10 09:53:30	11:53:30	mezczyzna	2.0.10.92	3	4	1	1																							l	{SPACE}		no	BlockProc2		BlockList									67	Cued	l			-1	10	992525	160																								75	prime_left.png	0	992204	0	0	13	1	992205	1	992205	0	992204	20	0	-1	990705	992204	992204	0		TrialProc1	right	0		-999999	11	992515	0		0	0	TrialList2	target_right.png	0	l	-1	3	992254	0	d	251	992505															6	1	67	incomp			150
1 ver1_main_procedure	6	1	20	<?xml version="1.0"?>\n<Clock xmlns:dt="urn:schemas-microsoft-com:datatypes"><Description dt:dt="string">E-Prime Primary Realtime Clock</Description><StartTime><Timestamp dt:dt="int">0</Timestamp><DateUtc dt:dt="string">2015-08-10T09:53:30Z</DateUtc></StartTime><FrequencyChanges><FrequencyChange><Frequency dt:dt="r8">2612324</Frequency><Timestamp dt:dt="r8">28649475972</Timestamp><Current dt:dt="r8">0</Current><DateUtc dt:dt="string">2015-08-10T09:53:30Z</DateUtc></FrequencyChange></FrequencyChanges></Clock>\n	1 ver1_main_procedure-6-1	99.938	1.0.0.880	2	tm	-1414793926	prawa	1	2.0.10.182	08-10-2015	2015-08-10 09:53:30	11:53:30	mezczyzna	2.0.10.92	3	4	1	1																							l	{SPACE}		no	BlockProc2		BlockList									68	Cued	d	color_green.png		-1	8	994856	310																								75	prime_left.png	0	994496	0	0	13	0	994496	0	994496	1	994496	20	0	-1	992997	994496	994495	0		TrialProc1	left	0		0	10	994806	-994806		0	0	TrialList2	target_left.png	1	d	-1	3	994546	260	d	302	994848															1	1	68	comp			300
1 ver1_main_procedure	6	1	20	<?xml version="1.0"?>\n<Clock xmlns:dt="urn:schemas-microsoft-com:datatypes"><Description dt:dt="string">E-Prime Primary Realtime Clock</Description><StartTime><Timestamp dt:dt="int">0</Timestamp><DateUtc dt:dt="string">2015-08-10T09:53:30Z</DateUtc></StartTime><FrequencyChanges><FrequencyChange><Frequency dt:dt="r8">2612324</Frequency><Timestamp dt:dt="r8">28649475972</Timestamp><Current dt:dt="r8">0</Current><DateUtc dt:dt="string">2015-08-10T09:53:30Z</DateUtc></FrequencyChange></FrequencyChanges></Clock>\n	1 ver1_main_procedure-6-1	99.938	1.0.0.880	2	tm	-1414793926	prawa	1	2.0.10.182	08-10-2015	2015-08-10 09:53:30	11:53:30	mezczyzna	2.0.10.92	3	4	1	1																							l	{SPACE}		no	BlockProc2		BlockList									69	Free	dl	color_red.png		-1	13	997437	461																			1					75	prime_left.png	0	996977	0	0	13	0	996977	0	996977	1	996977	20	0	-1	995478	996977	996976	0	prime_left.png	TrialProc1	left	0		0	10	997287	-997287		0	0	TrialList2	target_both.png	0	dl	-1	3	997027	260	l	397	997424															8	1	69	neut			450
1 ver1_main_procedure	6	1	20	<?xml version="1.0"?>\n<Clock xmlns:dt="urn:schemas-microsoft-com:datatypes"><Description dt:dt="string">E-Prime Primary Realtime Clock</Description><StartTime><Timestamp dt:dt="int">0</Timestamp><DateUtc dt:dt="string">2015-08-10T09:53:30Z</DateUtc></StartTime><FrequencyChanges><FrequencyChange><Frequency dt:dt="r8">2612324</Frequency><Timestamp dt:dt="r8">28649475972</Timestamp><Current dt:dt="r8">0</Current><DateUtc dt:dt="string">2015-08-10T09:53:30Z</DateUtc></FrequencyChange></FrequencyChanges></Clock>\n	1 ver1_main_procedure-6-1	99.938	1.0.0.880	2	tm	-1414793926	prawa	1	2.0.10.182	08-10-2015	2015-08-10 09:53:30	11:53:30	mezczyzna	2.0.10.92	3	4	1	1																							l	{SPACE}		no	BlockProc2		BlockList									70	Free	dl	color_orange.png		-1	13	1000149	310																								25	prime_right.png	0	999709	0	0	13	0	999709	0	999709	1	999709	20	0	-1	998210	999709	999708	0		TrialProc1	right	0		0	10	1000019	-1000019		0	0	TrialList2	target_both.png	0	dl	-1	3	999759	260	l	377	1000136															10	1	70	comp			300
1 ver1_main_procedure	6	1	20	<?xml version="1.0"?>\n<Clock xmlns:dt="urn:schemas-microsoft-com:datatypes"><Description dt:dt="string">E-Prime Primary Realtime Clock</Description><StartTime><Timestamp dt:dt="int">0</Timestamp><DateUtc dt:dt="string">2015-08-10T09:53:30Z</DateUtc></StartTime><FrequencyChanges><FrequencyChange><Frequency dt:dt="r8">2612324</Frequency><Timestamp dt:dt="r8">28649475972</Timestamp><Current dt:dt="r8">0</Current><DateUtc dt:dt="string">2015-08-10T09:53:30Z</DateUtc></FrequencyChange></FrequencyChanges></Clock>\n	1 ver1_main_procedure-6-1	99.938	1.0.0.880	2	tm	-1414793926	prawa	1	2.0.10.182	08-10-2015	2015-08-10 09:53:30	11:53:30	mezczyzna	2.0.10.92	3	4	1	1																							l	{SPACE}		no	BlockProc2		BlockList									71	Cued	d	color_green.png		-1	10	1002610	461																								75	prime_left.png	0	1002270	0	0	13	0	1002270	0	1002270	1	1002270	20	0	-1	1000771	1002270	1002269	0		TrialProc1	left	0		1	10	1002580	-1002580		0	0	TrialList2	target_left.png	1	d	-1	3	1002320	260	d	280	1002600															1	1	71	comp			450
1 ver1_main_procedure	6	1	20	<?xml version="1.0"?>\n<Clock xmlns:dt="urn:schemas-microsoft-com:datatypes"><Description dt:dt="string">E-Prime Primary Realtime Clock</Description><StartTime><Timestamp dt:dt="int">0</Timestamp><DateUtc dt:dt="string">2015-08-10T09:53:30Z</DateUtc></StartTime><FrequencyChanges><FrequencyChange><Frequency dt:dt="r8">2612324</Frequency><Timestamp dt:dt="r8">28649475972</Timestamp><Current dt:dt="r8">0</Current><DateUtc dt:dt="string">2015-08-10T09:53:30Z</DateUtc></FrequencyChange></FrequencyChanges></Clock>\n	1 ver1_main_procedure-6-1	99.938	1.0.0.880	2	tm	-1414793926	prawa	1	2.0.10.182	08-10-2015	2015-08-10 09:53:30	11:53:30	mezczyzna	2.0.10.92	3	4	1	1																							l	{SPACE}		no	BlockProc2		BlockList									72	Free	dl	color_green.png		-1	7	1005312	460																								25	prime_left.png	0	1004882	0	0	13	0	1004882	0	1004882	1	1004882	20	0	-1	1003383	1004882	1004881	0		TrialProc1	right	0		0	10	1005192	-1005192		0	0	TrialList2	target_both.png	0	dl	-1	3	1004932	260	d	372	1005304															12	1	72	incomp			450
1 ver1_main_procedure	6	1	20	<?xml version="1.0"?>\n<Clock xmlns:dt="urn:schemas-microsoft-com:datatypes"><Description dt:dt="string">E-Prime Primary Realtime Clock</Description><StartTime><Timestamp dt:dt="int">0</Timestamp><DateUtc dt:dt="string">2015-08-10T09:53:30Z</DateUtc></StartTime><FrequencyChanges><FrequencyChange><Frequency dt:dt="r8">2612324</Frequency><Timestamp dt:dt="r8">28649475972</Timestamp><Current dt:dt="r8">0</Current><DateUtc dt:dt="string">2015-08-10T09:53:30Z</DateUtc></FrequencyChange></FrequencyChanges></Clock>\n	1 ver1_main_procedure-6-1	99.938	1.0.0.880	2	tm	-1414793926	prawa	1	2.0.10.182	08-10-2015	2015-08-10 09:53:30	11:53:30	mezczyzna	2.0.10.92	3	4	1	1																							l	{SPACE}		no	BlockProc2		BlockList									73									2	6	1	4	5	3	color_green.png	color_purple.png	color_red.png	color_blue.png	color_orange.png	color_yellow.png	color_red.png	color_green.png	color_yellow.png	color_blue.png	color_orange.png	color_purple.png		1	1	1	58424																						DragProc											Ocena																															
1 ver1_main_procedure	6	1	20	<?xml version="1.0"?>\n<Clock xmlns:dt="urn:schemas-microsoft-com:datatypes"><Description dt:dt="string">E-Prime Primary Realtime Clock</Description><StartTime><Timestamp dt:dt="int">0</Timestamp><DateUtc dt:dt="string">2015-08-10T09:53:30Z</DateUtc></StartTime><FrequencyChanges><FrequencyChange><Frequency dt:dt="r8">2612324</Frequency><Timestamp dt:dt="r8">28649475972</Timestamp><Current dt:dt="r8">0</Current><DateUtc dt:dt="string">2015-08-10T09:53:30Z</DateUtc></FrequencyChange></FrequencyChanges></Clock>\n	1 ver1_main_procedure-6-1	99.938	1.0.0.880	2	tm	-1414793926	prawa	1	2.0.10.182	08-10-2015	2015-08-10 09:53:30	11:53:30	mezczyzna	2.0.10.92	3	4	1	1																							l	{SPACE}		no	BlockProc2		BlockList									74				Liczby muszą być przypisane w sposób rosnący.											color_green.png	color_purple.png	color_red.png	color_blue.png	color_orange.png	color_yellow.png								2	1	2																							EnterProc											Ocena												5	40	69	70	80	95														
1 ver1_main_procedure	6	1	20	<?xml version="1.0"?>\n<Clock xmlns:dt="urn:schemas-microsoft-com:datatypes"><Description dt:dt="string">E-Prime Primary Realtime Clock</Description><StartTime><Timestamp dt:dt="int">0</Timestamp><DateUtc dt:dt="string">2015-08-10T09:53:30Z</DateUtc></StartTime><FrequencyChanges><FrequencyChange><Frequency dt:dt="r8">2612324</Frequency><Timestamp dt:dt="r8">28649475972</Timestamp><Current dt:dt="r8">0</Current><DateUtc dt:dt="string">2015-08-10T09:53:30Z</DateUtc></FrequencyChange></FrequencyChanges></Clock>\n	1 ver1_main_procedure-6-1	99.938	1.0.0.880	2	tm	-1414793926	prawa	1	2.0.10.182	08-10-2015	2015-08-10 09:53:30	11:53:30	mezczyzna	2.0.10.92	4	6	1	2																							l	{SPACE}		no	BlockProc2		BlockList									1	Cued	l	color_red.png		-1	10	1260062	460																								75	prime_left.png	0	1259652	0	0	13	0	1259652	0	1259652	1	1259652	20	0	-1	1258153	1259652	1259651	0		TrialProc1	right	0		0	10	1259962	-1259962		0	0	TrialList2	target_right.png	1	l	-1	3	1259702	260	l	349	1260051															6	2	73	incomp			450
1 ver1_main_procedure	6	1	20	<?xml version="1.0"?>\n<Clock xmlns:dt="urn:schemas-microsoft-com:datatypes"><Description dt:dt="string">E-Prime Primary Realtime Clock</Description><StartTime><Timestamp dt:dt="int">0</Timestamp><DateUtc dt:dt="string">2015-08-10T09:53:30Z</DateUtc></StartTime><FrequencyChanges><FrequencyChange><Frequency dt:dt="r8">2612324</Frequency><Timestamp dt:dt="r8">28649475972</Timestamp><Current dt:dt="r8">0</Current><DateUtc dt:dt="string">2015-08-10T09:53:30Z</DateUtc></FrequencyChange></FrequencyChanges></Clock>\n	1 ver1_main_procedure-6-1	99.938	1.0.0.880	2	tm	-1414793926	prawa	1	2.0.10.182	08-10-2015	2015-08-10 09:53:30	11:53:30	mezczyzna	2.0.10.92	4	6	1	2																							l	{SPACE}		no	BlockProc2		BlockList									2	Cued	d	color_green.png		-1	9	1262773	461																								25	prime_right.png	0	1262333	0	0	13	0	1262333	0	1262333	1	1262333	20	0	-1	1260834	1262333	1262332	0		TrialProc1	left	0		0	10	1262643	-1262643		0	0	TrialList2	target_left.png	1	d	-1	3	1262383	260	d	380	1262763															3	2	74	incomp			450
1 ver1_main_procedure	6	1	20	<?xml version="1.0"?>\n<Clock xmlns:dt="urn:schemas-microsoft-com:datatypes"><Description dt:dt="string">E-Prime Primary Realtime Clock</Description><StartTime><Timestamp dt:dt="int">0</Timestamp><DateUtc dt:dt="string">2015-08-10T09:53:30Z</DateUtc></StartTime><FrequencyChanges><FrequencyChange><Frequency dt:dt="r8">2612324</Frequency><Timestamp dt:dt="r8">28649475972</Timestamp><Current dt:dt="r8">0</Current><DateUtc dt:dt="string">2015-08-10T09:53:30Z</DateUtc></FrequencyChange></FrequencyChanges></Clock>\n	1 ver1_main_procedure-6-1	99.938	1.0.0.880	2	tm	-1414793926	prawa	1	2.0.10.182	08-10-2015	2015-08-10 09:53:30	11:53:30	mezczyzna	2.0.10.92	4	6	1	2																							l	{SPACE}		no	BlockProc2		BlockList									3	Free	dl	color_yellow.png		-1	13	1265425	460																								75	prime_right.png	0	1265045	0	0	13	0	1265045	0	1265045	1	1265045	20	0	-1	1263546	1265045	1265044	0		TrialProc1	left	0		0	10	1265355	-1265355		0	0	TrialList2	target_both.png	0	dl	-1	3	1265095	260	l	316	1265411															9	2	75	incomp			450
1 ver1_main_procedure	6	1	20	<?xml version="1.0"?>\n<Clock xmlns:dt="urn:schemas-microsoft-com:datatypes"><Description dt:dt="string">E-Prime Primary Realtime Clock</Description><StartTime><Timestamp dt:dt="int">0</Timestamp><DateUtc dt:dt="string">2015-08-10T09:53:30Z</DateUtc></StartTime><FrequencyChanges><FrequencyChange><Frequency dt:dt="r8">2612324</Frequency><Timestamp dt:dt="r8">28649475972</Timestamp><Current dt:dt="r8">0</Current><DateUtc dt:dt="string">2015-08-10T09:53:30Z</DateUtc></FrequencyChange></FrequencyChanges></Clock>\n	1 ver1_main_procedure-6-1	99.938	1.0.0.880	2	tm	-1414793926	prawa	1	2.0.10.182	08-10-2015	2015-08-10 09:53:30	11:53:30	mezczyzna	2.0.10.92	4	6	1	2																							l	{SPACE}		no	BlockProc2		BlockList									4	Free	dl	color_orange.png		-1	11	1268167	160																			2					25	prime_right.png	0	1267696	0	0	13	0	1267696	0	1267696	1	1267696	20	0	-1	1266197	1267696	1267695	0	prime_right.png	TrialProc1	left	0		1	10	1268006	-1268006		0	0	TrialList2	target_both.png	0	dl	-1	3	1267746	260	d	409	1268155															8	2	76	neut			150
1 ver1_main_procedure	6	1	20	<?xml version="1.0"?>\n<Clock xmlns:dt="urn:schemas-microsoft-com:datatypes"><Description dt:dt="string">E-Prime Primary Realtime Clock</Description><StartTime><Timestamp dt:dt="int">0</Timestamp><DateUtc dt:dt="string">2015-08-10T09:53:30Z</DateUtc></StartTime><FrequencyChanges><FrequencyChange><Frequency dt:dt="r8">2612324</Frequency><Timestamp dt:dt="r8">28649475972</Timestamp><Current dt:dt="r8">0</Current><DateUtc dt:dt="string">2015-08-10T09:53:30Z</DateUtc></FrequencyChange></FrequencyChanges></Clock>\n	1 ver1_main_procedure-6-1	99.938	1.0.0.880	2	tm	-1414793926	prawa	1	2.0.10.182	08-10-2015	2015-08-10 09:53:30	11:53:30	mezczyzna	2.0.10.92	4	6	1	2																							l	{SPACE}		no	BlockProc2		BlockList									5	Free	dl	color_yellow.png		-1	10	1270838	460																								75	prime_right.png	0	1270138	0	0	13	0	1270138	0	1270138	1	1270138	20	0	-1	1268639	1270138	1270137	0		TrialProc1	left	0		0	10	1270448	-1270448		0	0	TrialList2	target_both.png	0	dl	-1	3	1270188	260	l	639	1270827															9	2	77	incomp			450
1 ver1_main_procedure	6	1	20	<?xml version="1.0"?>\n<Clock xmlns:dt="urn:schemas-microsoft-com:datatypes"><Description dt:dt="string">E-Prime Primary Realtime Clock</Description><StartTime><Timestamp dt:dt="int">0</Timestamp><DateUtc dt:dt="string">2015-08-10T09:53:30Z</DateUtc></StartTime><FrequencyChanges><FrequencyChange><Frequency dt:dt="r8">2612324</Frequency><Timestamp dt:dt="r8">28649475972</Timestamp><Current dt:dt="r8">0</Current><DateUtc dt:dt="string">2015-08-10T09:53:30Z</DateUtc></FrequencyChange></FrequencyChanges></Clock>\n	1 ver1_main_procedure-6-1	99.938	1.0.0.880	2	tm	-1414793926	prawa	1	2.0.10.182	08-10-2015	2015-08-10 09:53:30	11:53:30	mezczyzna	2.0.10.92	4	6	1	2																							l	{SPACE}		no	BlockProc2		BlockList									6	Free	dl	color_purple.png		-1	12	1273440	460																								75	prime_left.png	1	1273110	0	0	13	1	1273110	1	1273110	0	1273109	20	0	-1	1271610	1273109	1273109	0		TrialProc1	left	0		0	11	1273420	-1273420		0	0	TrialList2	target_both.png	0	dl	-1	3	1273159	261	d	268	1273427															7	2	78	comp			450
1 ver1_main_procedure	6	1	20	<?xml version="1.0"?>\n<Clock xmlns:dt="urn:schemas-microsoft-com:datatypes"><Description dt:dt="string">E-Prime Primary Realtime Clock</Description><StartTime><Timestamp dt:dt="int">0</Timestamp><DateUtc dt:dt="string">2015-08-10T09:53:30Z</DateUtc></StartTime><FrequencyChanges><FrequencyChange><Frequency dt:dt="r8">2612324</Frequency><Timestamp dt:dt="r8">28649475972</Timestamp><Current dt:dt="r8">0</Current><DateUtc dt:dt="string">2015-08-10T09:53:30Z</DateUtc></FrequencyChange></FrequencyChanges></Clock>\n	1 ver1_main_procedure-6-1	99.938	1.0.0.880	2	tm	-1414793926	prawa	1	2.0.10.182	08-10-2015	2015-08-10 09:53:30	11:53:30	mezczyzna	2.0.10.92	4	6	1	2																							l	{SPACE}		no	BlockProc2		BlockList									7	Cued	d	color_green.png		-1	5	1276161	160																								25	prime_right.png	0	1275711	0	0	13	0	1275711	0	1275711	1	1275711	20	0	-1	1274212	1275711	1275710	0		TrialProc1	left	0		0	10	1276021	-1276021		0	0	TrialList2	target_left.png	1	d	-1	3	1275761	260	d	394	1276155															3	2	79	incomp			150
1 ver1_main_procedure	6	1	20	<?xml version="1.0"?>\n<Clock xmlns:dt="urn:schemas-microsoft-com:datatypes"><Description dt:dt="string">E-Prime Primary Realtime Clock</Description><StartTime><Timestamp dt:dt="int">0</Timestamp><DateUtc dt:dt="string">2015-08-10T09:53:30Z</DateUtc></StartTime><FrequencyChanges><FrequencyChange><Frequency dt:dt="r8">2612324</Frequency><Timestamp dt:dt="r8">28649475972</Timestamp><Current dt:dt="r8">0</Current><DateUtc dt:dt="string">2015-08-10T09:53:30Z</DateUtc></FrequencyChange></FrequencyChanges></Clock>\n	1 ver1_main_procedure-6-1	99.938	1.0.0.880	2	tm	-1414793926	prawa	1	2.0.10.182	08-10-2015	2015-08-10 09:53:30	11:53:30	mezczyzna	2.0.10.92	4	6	1	2																							l	{SPACE}		no	BlockProc2		BlockList									8	Free	dl	color_blue.png		-1	13	1278633	460																			1					75	prime_left.png	1	1278133	0	0	13	1	1278133	1	1278133	0	1278132	21	0	-1	1276633	1278132	1278132	0	prime_left.png	TrialProc1	left	0		0	10	1278443	-1278443		0	0	TrialList2	target_both.png	0	dl	-1	3	1278183	260	l	436	1278619															8	2	80	neut			450
1 ver1_main_procedure	6	1	20	<?xml version="1.0"?>\n<Clock xmlns:dt="urn:schemas-microsoft-com:datatypes"><Description dt:dt="string">E-Prime Primary Realtime Clock</Description><StartTime><Timestamp dt:dt="int">0</Timestamp><DateUtc dt:dt="string">2015-08-10T09:53:30Z</DateUtc></StartTime><FrequencyChanges><FrequencyChange><Frequency dt:dt="r8">2612324</Frequency><Timestamp dt:dt="r8">28649475972</Timestamp><Current dt:dt="r8">0</Current><DateUtc dt:dt="string">2015-08-10T09:53:30Z</DateUtc></FrequencyChange></FrequencyChanges></Clock>\n	1 ver1_main_procedure-6-1	99.938	1.0.0.880	2	tm	-1414793926	prawa	1	2.0.10.182	08-10-2015	2015-08-10 09:53:30	11:53:30	mezczyzna	2.0.10.92	4	6	1	2																							l	{SPACE}		no	BlockProc2		BlockList									9	Free	dl	color_purple.png		-1	8	1281244	461																								75	prime_left.png	0	1280904	0	0	13	0	1280904	0	1280904	1	1280904	20	0	-1	1279405	1280904	1280903	0		TrialProc1	right	0		0	10	1281214	-1281214		0	0	TrialList2	target_both.png	0	dl	-1	3	1280954	260	d	281	1281235															12	2	81	incomp			450
