ExperimentName	Subject	Session	Age	Clock.Information	DataFile.Basename	Display.RefreshRate	ExperimentVersion	Group	Name	RandomSeed	Recznosc	ResearcherID	RuntimeVersion	SessionDate	SessionStartDateTimeUtc	SessionTime	Sex	StudioVersion	Block	BlockList	BlockList.Cycle	BlockList.Sample	BlockNumber	GoodBye.RESP	GoodBye2.RESP	GoodByeList	GoodByeList.Cycle	GoodByeList.Sample	InstrList	InstrList.Cycle	InstrList.Sample	Instructions3.RESP	Instructions4.RESP	Instructions5.RESP	kobieta_S1	kobieta_S2	kobieta_S3	kobieta_S4	kobieta_S5	mezczyzna_S1	mezczyzna_S2	mezczyzna_S3	mezczyzna_S4	mezczyzna_S5	NextBlock.RESP	NextBlock0.RESP	planowanie	PracticeMode	Procedure[Block]	proszenie	Running[Block]	TrainingList	TrainingList.Cycle	TrainingList.Sample	WordList	WordList1	wykonanie	zauwazenie	zrozumienie	Trial	ChoiceType	CorrectRespon	Effect	ErrorText	Fixation2.DurationError	Fixation2.OnsetDelay	Fixation2.OnsetTime	Fixation2.OnsetToOnsetTime	GoalRespInd1	GoalRespInd2	GoalRespInd3	GoalRespInd4	GoalRespInd5	GoalRespInd6	GoalRespName1	GoalRespName2	GoalRespName3	GoalRespName4	GoalRespName5	GoalRespName6	kol1	kol2	kol3	kol4	kol5	kol6	NeutralPrimeList1	Ocena	Ocena.Cycle	Ocena.Sample	OverallRT	Posit	Prime	Prime.ActionDelay	Prime.ActionTime	Prime.CustomOffsetTime	Prime.CustomOnsetTime	Prime.Duration	Prime.DurationError	Prime.FinishTime	Prime.OffsetDelay	Prime.OffsetTime	Prime.OnsetDelay	Prime.OnsetTime	Prime.OnsetToOnsetTime	Prime.PendingInputMasks	Prime.PreRelease	Prime.StartTime	Prime.TargetOffsetTime	Prime.TargetOnsetTime	Prime.TimingMode	PrimeChoice	Procedure[Trial]	Resp	RespWin.ACC	RespWin.CRESP	RespWin.DurationError	RespWin.OnsetDelay	RespWin.OnsetTime	RespWin.OnsetToOnsetTime	RespWin.RESP	RespWin.RT	RespWin.RTTime	Running[Trial]	Target	TargetSlide.ACC	TargetSlide.CRESP	TargetSlide.DurationError	TargetSlide.OnsetDelay	TargetSlide.OnsetTime	TargetSlide.OnsetToOnsetTime	TargetSlide.RESP	TargetSlide.RT	TargetSlide.RTTime	TargetTraining	TBox1	TBox2	TBox3	TBox4	TBox5	TBox6	TrainingList1	TrainingList1.Cycle	TrainingList1.Sample	TrCorrectResp	TrialList1	TrialList1.Cycle	TrialList1.Sample	TrialList2	TrialList2.Cycle	TrialList2.Sample	TrialType	TrPosit	TrWaitTime	WaitTime
1 ver1_main_procedure	1	1	24	<?xml version="1.0"?>\n<Clock xmlns:dt="urn:schemas-microsoft-com:datatypes"><Description dt:dt="string">E-Prime Primary Realtime Clock</Description><StartTime><Timestamp dt:dt="int">0</Timestamp><DateUtc dt:dt="string">2015-08-07T12:55:43Z</DateUtc></StartTime><FrequencyChanges><FrequencyChange><Frequency dt:dt="r8">2612324</Frequency><Timestamp dt:dt="r8">41128746538</Timestamp><Current dt:dt="r8">0</Current><DateUtc dt:dt="string">2015-08-07T12:55:43Z</DateUtc></FrequencyChange></FrequencyChanges></Clock>\n	1 ver1_main_procedure-1-1	99.933	1.0.0.880	1	kg	-1820394410	prawa	1	2.0.10.182	08-07-2015	2015-08-07 12:55:43	14:55:43	kobieta	2.0.10.92	1										1	1	1	{SPACE}	{SPACE}	d	poproszona	planowała	zrozumiałaś	wykonała		poproszony	planował	zrozumiałeś	wykonał				planowała		InstrProc	poproszona	InstrList				1		wykonała		zrozumiałaś																																																																																																
1 ver1_main_procedure	1	1	24	<?xml version="1.0"?>\n<Clock xmlns:dt="urn:schemas-microsoft-com:datatypes"><Description dt:dt="string">E-Prime Primary Realtime Clock</Description><StartTime><Timestamp dt:dt="int">0</Timestamp><DateUtc dt:dt="string">2015-08-07T12:55:43Z</DateUtc></StartTime><FrequencyChanges><FrequencyChange><Frequency dt:dt="r8">2612324</Frequency><Timestamp dt:dt="r8">41128746538</Timestamp><Current dt:dt="r8">0</Current><DateUtc dt:dt="string">2015-08-07T12:55:43Z</DateUtc></FrequencyChange></FrequencyChanges></Clock>\n	1 ver1_main_procedure-1-1	99.933	1.0.0.880	1	kg	-1820394410	prawa	1	2.0.10.182	08-07-2015	2015-08-07 12:55:43	14:55:43	kobieta	2.0.10.92	2																														TrainingProc1		TrainingList	1	1	1						1																																																					TrainProc											TrainingList1											target_both.png							3	1	1	dl								75	150	
1 ver1_main_procedure	1	1	24	<?xml version="1.0"?>\n<Clock xmlns:dt="urn:schemas-microsoft-com:datatypes"><Description dt:dt="string">E-Prime Primary Realtime Clock</Description><StartTime><Timestamp dt:dt="int">0</Timestamp><DateUtc dt:dt="string">2015-08-07T12:55:43Z</DateUtc></StartTime><FrequencyChanges><FrequencyChange><Frequency dt:dt="r8">2612324</Frequency><Timestamp dt:dt="r8">41128746538</Timestamp><Current dt:dt="r8">0</Current><DateUtc dt:dt="string">2015-08-07T12:55:43Z</DateUtc></FrequencyChange></FrequencyChanges></Clock>\n	1 ver1_main_procedure-1-1	99.933	1.0.0.880	1	kg	-1820394410	prawa	1	2.0.10.182	08-07-2015	2015-08-07 12:55:43	14:55:43	kobieta	2.0.10.92	2																														TrainingProc1		TrainingList	1	1	1						2																																																					TrainProc											TrainingList1											target_left.png							1	1	2	d								25	150	
1 ver1_main_procedure	1	1	24	<?xml version="1.0"?>\n<Clock xmlns:dt="urn:schemas-microsoft-com:datatypes"><Description dt:dt="string">E-Prime Primary Realtime Clock</Description><StartTime><Timestamp dt:dt="int">0</Timestamp><DateUtc dt:dt="string">2015-08-07T12:55:43Z</DateUtc></StartTime><FrequencyChanges><FrequencyChange><Frequency dt:dt="r8">2612324</Frequency><Timestamp dt:dt="r8">41128746538</Timestamp><Current dt:dt="r8">0</Current><DateUtc dt:dt="string">2015-08-07T12:55:43Z</DateUtc></FrequencyChange></FrequencyChanges></Clock>\n	1 ver1_main_procedure-1-1	99.933	1.0.0.880	1	kg	-1820394410	prawa	1	2.0.10.182	08-07-2015	2015-08-07 12:55:43	14:55:43	kobieta	2.0.10.92	2																														TrainingProc1		TrainingList	1	1	1						3																																																					TrainProc											TrainingList1											target_left.png							1	1	3	d								25	300	
1 ver1_main_procedure	1	1	24	<?xml version="1.0"?>\n<Clock xmlns:dt="urn:schemas-microsoft-com:datatypes"><Description dt:dt="string">E-Prime Primary Realtime Clock</Description><StartTime><Timestamp dt:dt="int">0</Timestamp><DateUtc dt:dt="string">2015-08-07T12:55:43Z</DateUtc></StartTime><FrequencyChanges><FrequencyChange><Frequency dt:dt="r8">2612324</Frequency><Timestamp dt:dt="r8">41128746538</Timestamp><Current dt:dt="r8">0</Current><DateUtc dt:dt="string">2015-08-07T12:55:43Z</DateUtc></FrequencyChange></FrequencyChanges></Clock>\n	1 ver1_main_procedure-1-1	99.933	1.0.0.880	1	kg	-1820394410	prawa	1	2.0.10.182	08-07-2015	2015-08-07 12:55:43	14:55:43	kobieta	2.0.10.92	2																														TrainingProc1		TrainingList	1	1	1						4																																																					TrainProc											TrainingList1											target_right.png							2	1	4	l								25	150	
1 ver1_main_procedure	1	1	24	<?xml version="1.0"?>\n<Clock xmlns:dt="urn:schemas-microsoft-com:datatypes"><Description dt:dt="string">E-Prime Primary Realtime Clock</Description><StartTime><Timestamp dt:dt="int">0</Timestamp><DateUtc dt:dt="string">2015-08-07T12:55:43Z</DateUtc></StartTime><FrequencyChanges><FrequencyChange><Frequency dt:dt="r8">2612324</Frequency><Timestamp dt:dt="r8">41128746538</Timestamp><Current dt:dt="r8">0</Current><DateUtc dt:dt="string">2015-08-07T12:55:43Z</DateUtc></FrequencyChange></FrequencyChanges></Clock>\n	1 ver1_main_procedure-1-1	99.933	1.0.0.880	1	kg	-1820394410	prawa	1	2.0.10.182	08-07-2015	2015-08-07 12:55:43	14:55:43	kobieta	2.0.10.92	2																														TrainingProc1		TrainingList	1	1	1						5																																																					TrainProc											TrainingList1											target_right.png							2	1	5	l								25	300	
1 ver1_main_procedure	1	1	24	<?xml version="1.0"?>\n<Clock xmlns:dt="urn:schemas-microsoft-com:datatypes"><Description dt:dt="string">E-Prime Primary Realtime Clock</Description><StartTime><Timestamp dt:dt="int">0</Timestamp><DateUtc dt:dt="string">2015-08-07T12:55:43Z</DateUtc></StartTime><FrequencyChanges><FrequencyChange><Frequency dt:dt="r8">2612324</Frequency><Timestamp dt:dt="r8">41128746538</Timestamp><Current dt:dt="r8">0</Current><DateUtc dt:dt="string">2015-08-07T12:55:43Z</DateUtc></FrequencyChange></FrequencyChanges></Clock>\n	1 ver1_main_procedure-1-1	99.933	1.0.0.880	1	kg	-1820394410	prawa	1	2.0.10.182	08-07-2015	2015-08-07 12:55:43	14:55:43	kobieta	2.0.10.92	2																														TrainingProc1		TrainingList	1	1	1						6																																																					TrainProc											TrainingList1											target_both.png							3	1	6	dl								75	450	
1 ver1_main_procedure	1	1	24	<?xml version="1.0"?>\n<Clock xmlns:dt="urn:schemas-microsoft-com:datatypes"><Description dt:dt="string">E-Prime Primary Realtime Clock</Description><StartTime><Timestamp dt:dt="int">0</Timestamp><DateUtc dt:dt="string">2015-08-07T12:55:43Z</DateUtc></StartTime><FrequencyChanges><FrequencyChange><Frequency dt:dt="r8">2612324</Frequency><Timestamp dt:dt="r8">41128746538</Timestamp><Current dt:dt="r8">0</Current><DateUtc dt:dt="string">2015-08-07T12:55:43Z</DateUtc></FrequencyChange></FrequencyChanges></Clock>\n	1 ver1_main_procedure-1-1	99.933	1.0.0.880	1	kg	-1820394410	prawa	1	2.0.10.182	08-07-2015	2015-08-07 12:55:43	14:55:43	kobieta	2.0.10.92	2																														TrainingProc1		TrainingList	1	1	1						7																																																					TrainProc											TrainingList1											target_right.png							2	1	7	l								25	300	
1 ver1_main_procedure	1	1	24	<?xml version="1.0"?>\n<Clock xmlns:dt="urn:schemas-microsoft-com:datatypes"><Description dt:dt="string">E-Prime Primary Realtime Clock</Description><StartTime><Timestamp dt:dt="int">0</Timestamp><DateUtc dt:dt="string">2015-08-07T12:55:43Z</DateUtc></StartTime><FrequencyChanges><FrequencyChange><Frequency dt:dt="r8">2612324</Frequency><Timestamp dt:dt="r8">41128746538</Timestamp><Current dt:dt="r8">0</Current><DateUtc dt:dt="string">2015-08-07T12:55:43Z</DateUtc></FrequencyChange></FrequencyChanges></Clock>\n	1 ver1_main_procedure-1-1	99.933	1.0.0.880	1	kg	-1820394410	prawa	1	2.0.10.182	08-07-2015	2015-08-07 12:55:43	14:55:43	kobieta	2.0.10.92	2																														TrainingProc1		TrainingList	1	1	1						8																																																					TrainProc											TrainingList1											target_left.png							1	1	8	d								25	300	
1 ver1_main_procedure	1	1	24	<?xml version="1.0"?>\n<Clock xmlns:dt="urn:schemas-microsoft-com:datatypes"><Description dt:dt="string">E-Prime Primary Realtime Clock</Description><StartTime><Timestamp dt:dt="int">0</Timestamp><DateUtc dt:dt="string">2015-08-07T12:55:43Z</DateUtc></StartTime><FrequencyChanges><FrequencyChange><Frequency dt:dt="r8">2612324</Frequency><Timestamp dt:dt="r8">41128746538</Timestamp><Current dt:dt="r8">0</Current><DateUtc dt:dt="string">2015-08-07T12:55:43Z</DateUtc></FrequencyChange></FrequencyChanges></Clock>\n	1 ver1_main_procedure-1-1	99.933	1.0.0.880	1	kg	-1820394410	prawa	1	2.0.10.182	08-07-2015	2015-08-07 12:55:43	14:55:43	kobieta	2.0.10.92	2																														TrainingProc1		TrainingList	1	1	1						9																																																					TrainProc											TrainingList1											target_both.png							3	1	9	dl								25	150	
1 ver1_main_procedure	1	1	24	<?xml version="1.0"?>\n<Clock xmlns:dt="urn:schemas-microsoft-com:datatypes"><Description dt:dt="string">E-Prime Primary Realtime Clock</Description><StartTime><Timestamp dt:dt="int">0</Timestamp><DateUtc dt:dt="string">2015-08-07T12:55:43Z</DateUtc></StartTime><FrequencyChanges><FrequencyChange><Frequency dt:dt="r8">2612324</Frequency><Timestamp dt:dt="r8">41128746538</Timestamp><Current dt:dt="r8">0</Current><DateUtc dt:dt="string">2015-08-07T12:55:43Z</DateUtc></FrequencyChange></FrequencyChanges></Clock>\n	1 ver1_main_procedure-1-1	99.933	1.0.0.880	1	kg	-1820394410	prawa	1	2.0.10.182	08-07-2015	2015-08-07 12:55:43	14:55:43	kobieta	2.0.10.92	3	3	1	1																							d	{SPACE}		no	BlockProc1		BlockList									1	Cued	l	color_yellow.png		-1	12	235981	160																								75	prime_right.png	0	235361	0	0	13	0	235361	0	235361	1	235361	20	0	-1	233862	235361	235360	0		TrialProc1	right	0		0	20	235681	-235681		0	0	TrialList1	target_right.png	1	l	-1	3	235411	270	l	556	235967												4	1	1				comp			150
1 ver1_main_procedure	1	1	24	<?xml version="1.0"?>\n<Clock xmlns:dt="urn:schemas-microsoft-com:datatypes"><Description dt:dt="string">E-Prime Primary Realtime Clock</Description><StartTime><Timestamp dt:dt="int">0</Timestamp><DateUtc dt:dt="string">2015-08-07T12:55:43Z</DateUtc></StartTime><FrequencyChanges><FrequencyChange><Frequency dt:dt="r8">2612324</Frequency><Timestamp dt:dt="r8">41128746538</Timestamp><Current dt:dt="r8">0</Current><DateUtc dt:dt="string">2015-08-07T12:55:43Z</DateUtc></FrequencyChange></FrequencyChanges></Clock>\n	1 ver1_main_procedure-1-1	99.933	1.0.0.880	1	kg	-1820394410	prawa	1	2.0.10.182	08-07-2015	2015-08-07 12:55:43	14:55:43	kobieta	2.0.10.92	3	3	1	1																							d	{SPACE}		no	BlockProc1		BlockList									2	Cued	d	color_green.png		-1	11	238363	310																			1					25	prime_left.png	1	237953	0	0	13	1	237953	1	237953	0	237952	20	0	-1	236453	237952	237952	0	prime_left.png	TrialProc1	left	0		0	11	238263	-238263		0	0	TrialList1	target_left.png	1	d	-1	3	238002	261	d	350	238352												2	1	2				neut			300
1 ver1_main_procedure	1	1	24	<?xml version="1.0"?>\n<Clock xmlns:dt="urn:schemas-microsoft-com:datatypes"><Description dt:dt="string">E-Prime Primary Realtime Clock</Description><StartTime><Timestamp dt:dt="int">0</Timestamp><DateUtc dt:dt="string">2015-08-07T12:55:43Z</DateUtc></StartTime><FrequencyChanges><FrequencyChange><Frequency dt:dt="r8">2612324</Frequency><Timestamp dt:dt="r8">41128746538</Timestamp><Current dt:dt="r8">0</Current><DateUtc dt:dt="string">2015-08-07T12:55:43Z</DateUtc></FrequencyChange></FrequencyChanges></Clock>\n	1 ver1_main_procedure-1-1	99.933	1.0.0.880	1	kg	-1820394410	prawa	1	2.0.10.182	08-07-2015	2015-08-07 12:55:43	14:55:43	kobieta	2.0.10.92	3	3	1	1																							d	{SPACE}		no	BlockProc1		BlockList									3	Cued	l	color_purple.png		-1	6	241054	461																								25	prime_left.png	0	240484	0	0	13	0	240484	0	240484	1	240484	20	0	-1	238985	240484	240483	0		TrialProc1	right	0		0	10	240794	-240794		0	0	TrialList1	target_right.png	1	l	-1	3	240534	260	l	514	241048												6	1	3				incomp			450
1 ver1_main_procedure	1	1	24	<?xml version="1.0"?>\n<Clock xmlns:dt="urn:schemas-microsoft-com:datatypes"><Description dt:dt="string">E-Prime Primary Realtime Clock</Description><StartTime><Timestamp dt:dt="int">0</Timestamp><DateUtc dt:dt="string">2015-08-07T12:55:43Z</DateUtc></StartTime><FrequencyChanges><FrequencyChange><Frequency dt:dt="r8">2612324</Frequency><Timestamp dt:dt="r8">41128746538</Timestamp><Current dt:dt="r8">0</Current><DateUtc dt:dt="string">2015-08-07T12:55:43Z</DateUtc></FrequencyChange></FrequencyChanges></Clock>\n	1 ver1_main_procedure-1-1	99.933	1.0.0.880	1	kg	-1820394410	prawa	1	2.0.10.182	08-07-2015	2015-08-07 12:55:43	14:55:43	kobieta	2.0.10.92	3	3	1	1																							d	{SPACE}		no	BlockProc1		BlockList									4	Cued	d	color_orange.png		-1	6	243806	460																								25	prime_right.png	0	243326	0	0	13	0	243326	0	243326	1	243326	20	0	-1	241827	243326	243325	0		TrialProc1	left	0		0	10	243636	-243636		0	0	TrialList1	target_left.png	1	d	-1	3	243376	260	d	424	243800												3	1	4				incomp			450
1 ver1_main_procedure	1	1	24	<?xml version="1.0"?>\n<Clock xmlns:dt="urn:schemas-microsoft-com:datatypes"><Description dt:dt="string">E-Prime Primary Realtime Clock</Description><StartTime><Timestamp dt:dt="int">0</Timestamp><DateUtc dt:dt="string">2015-08-07T12:55:43Z</DateUtc></StartTime><FrequencyChanges><FrequencyChange><Frequency dt:dt="r8">2612324</Frequency><Timestamp dt:dt="r8">41128746538</Timestamp><Current dt:dt="r8">0</Current><DateUtc dt:dt="string">2015-08-07T12:55:43Z</DateUtc></FrequencyChange></FrequencyChanges></Clock>\n	1 ver1_main_procedure-1-1	99.933	1.0.0.880	1	kg	-1820394410	prawa	1	2.0.10.182	08-07-2015	2015-08-07 12:55:43	14:55:43	kobieta	2.0.10.92	3	3	1	1																							d	{SPACE}		no	BlockProc1		BlockList									5	Cued	l	color_blue.png		-1	13	246557	161																			2					25	prime_right.png	0	246077	0	0	13	0	246077	0	246077	1	246077	20	0	-1	244578	246077	246076	0	prime_right.png	TrialProc1	right	0		1	10	246387	-246387		0	0	TrialList1	target_right.png	1	l	-1	3	246127	260	l	417	246544												5	1	5				neut			150
1 ver1_main_procedure	1	1	24	<?xml version="1.0"?>\n<Clock xmlns:dt="urn:schemas-microsoft-com:datatypes"><Description dt:dt="string">E-Prime Primary Realtime Clock</Description><StartTime><Timestamp dt:dt="int">0</Timestamp><DateUtc dt:dt="string">2015-08-07T12:55:43Z</DateUtc></StartTime><FrequencyChanges><FrequencyChange><Frequency dt:dt="r8">2612324</Frequency><Timestamp dt:dt="r8">41128746538</Timestamp><Current dt:dt="r8">0</Current><DateUtc dt:dt="string">2015-08-07T12:55:43Z</DateUtc></FrequencyChange></FrequencyChanges></Clock>\n	1 ver1_main_procedure-1-1	99.933	1.0.0.880	1	kg	-1820394410	prawa	1	2.0.10.182	08-07-2015	2015-08-07 12:55:43	14:55:43	kobieta	2.0.10.92	3	3	1	1																							d	{SPACE}		no	BlockProc1		BlockList									6	Cued	l	color_purple.png		-1	13	249109	160																								75	prime_left.png	0	248529	0	0	13	0	248529	0	248529	1	248529	20	0	-1	247029	248529	248528	0		TrialProc1	right	0		0	10	248839	-248839		0	0	TrialList1	target_right.png	1	l	-1	3	248579	260	l	517	249096												6	1	6				incomp			150
1 ver1_main_procedure	1	1	24	<?xml version="1.0"?>\n<Clock xmlns:dt="urn:schemas-microsoft-com:datatypes"><Description dt:dt="string">E-Prime Primary Realtime Clock</Description><StartTime><Timestamp dt:dt="int">0</Timestamp><DateUtc dt:dt="string">2015-08-07T12:55:43Z</DateUtc></StartTime><FrequencyChanges><FrequencyChange><Frequency dt:dt="r8">2612324</Frequency><Timestamp dt:dt="r8">41128746538</Timestamp><Current dt:dt="r8">0</Current><DateUtc dt:dt="string">2015-08-07T12:55:43Z</DateUtc></FrequencyChange></FrequencyChanges></Clock>\n	1 ver1_main_procedure-1-1	99.933	1.0.0.880	1	kg	-1820394410	prawa	1	2.0.10.182	08-07-2015	2015-08-07 12:55:43	14:55:43	kobieta	2.0.10.92	3	3	1	1																							d	{SPACE}		no	BlockProc1		BlockList									7	Cued	d	color_red.png		-1	8	251560	461																								75	prime_left.png	0	251080	0	0	13	0	251080	0	251080	1	251080	20	0	-1	249581	251080	251079	0		TrialProc1	left	0		1	10	251390	-251390		0	0	TrialList1	target_left.png	1	d	-1	3	251130	260	d	422	251552												1	1	7				comp			450
1 ver1_main_procedure	1	1	24	<?xml version="1.0"?>\n<Clock xmlns:dt="urn:schemas-microsoft-com:datatypes"><Description dt:dt="string">E-Prime Primary Realtime Clock</Description><StartTime><Timestamp dt:dt="int">0</Timestamp><DateUtc dt:dt="string">2015-08-07T12:55:43Z</DateUtc></StartTime><FrequencyChanges><FrequencyChange><Frequency dt:dt="r8">2612324</Frequency><Timestamp dt:dt="r8">41128746538</Timestamp><Current dt:dt="r8">0</Current><DateUtc dt:dt="string">2015-08-07T12:55:43Z</DateUtc></FrequencyChange></FrequencyChanges></Clock>\n	1 ver1_main_procedure-1-1	99.933	1.0.0.880	1	kg	-1820394410	prawa	1	2.0.10.182	08-07-2015	2015-08-07 12:55:43	14:55:43	kobieta	2.0.10.92	3	3	1	1																							d	{SPACE}		no	BlockProc1		BlockList									8	Free	dl	color_yellow.png		-1	12	254452	460																								25	prime_right.png	0	253832	0	0	13	0	253832	0	253832	1	253832	20	0	-1	252333	253832	253831	0		TrialProc1	right	0		0	10	254142	-254142		0	0	TrialList1	target_both.png	0	dl	-1	3	253882	260	l	558	254440												10	1	8				comp			450
1 ver1_main_procedure	1	1	24	<?xml version="1.0"?>\n<Clock xmlns:dt="urn:schemas-microsoft-com:datatypes"><Description dt:dt="string">E-Prime Primary Realtime Clock</Description><StartTime><Timestamp dt:dt="int">0</Timestamp><DateUtc dt:dt="string">2015-08-07T12:55:43Z</DateUtc></StartTime><FrequencyChanges><FrequencyChange><Frequency dt:dt="r8">2612324</Frequency><Timestamp dt:dt="r8">41128746538</Timestamp><Current dt:dt="r8">0</Current><DateUtc dt:dt="string">2015-08-07T12:55:43Z</DateUtc></FrequencyChange></FrequencyChanges></Clock>\n	1 ver1_main_procedure-1-1	99.933	1.0.0.880	1	kg	-1820394410	prawa	1	2.0.10.182	08-07-2015	2015-08-07 12:55:43	14:55:43	kobieta	2.0.10.92	3	3	1	1																							d	{SPACE}		no	BlockProc1		BlockList									9	Cued	d	color_orange.png		-1	14	257134	460																								75	prime_right.png	1	256724	0	0	13	1	256724	1	256724	0	256723	20	0	-1	255224	256723	256723	0		TrialProc1	left	0		0	11	257034	-257034		0	0	TrialList1	target_left.png	1	d	-1	3	256773	261	d	347	257120												3	1	9				incomp			450
1 ver1_main_procedure	1	1	24	<?xml version="1.0"?>\n<Clock xmlns:dt="urn:schemas-microsoft-com:datatypes"><Description dt:dt="string">E-Prime Primary Realtime Clock</Description><StartTime><Timestamp dt:dt="int">0</Timestamp><DateUtc dt:dt="string">2015-08-07T12:55:43Z</DateUtc></StartTime><FrequencyChanges><FrequencyChange><Frequency dt:dt="r8">2612324</Frequency><Timestamp dt:dt="r8">41128746538</Timestamp><Current dt:dt="r8">0</Current><DateUtc dt:dt="string">2015-08-07T12:55:43Z</DateUtc></FrequencyChange></FrequencyChanges></Clock>\n	1 ver1_main_procedure-1-1	99.933	1.0.0.880	1	kg	-1820394410	prawa	1	2.0.10.182	08-07-2015	2015-08-07 12:55:43	14:55:43	kobieta	2.0.10.92	3	3	1	1																							d	{SPACE}		no	BlockProc1		BlockList									10	Cued	l	color_yellow.png		-1	7	259775	461																								25	prime_right.png	0	259405	0	0	13	0	259405	0	259405	1	259405	20	0	-1	257906	259405	259404	0		TrialProc1	right	0		0	10	259715	-259715		0	0	TrialList1	target_right.png	1	l	-1	3	259455	260	l	313	259768												4	1	10				comp			450
1 ver1_main_procedure	1	1	24	<?xml version="1.0"?>\n<Clock xmlns:dt="urn:schemas-microsoft-com:datatypes"><Description dt:dt="string">E-Prime Primary Realtime Clock</Description><StartTime><Timestamp dt:dt="int">0</Timestamp><DateUtc dt:dt="string">2015-08-07T12:55:43Z</DateUtc></StartTime><FrequencyChanges><FrequencyChange><Frequency dt:dt="r8">2612324</Frequency><Timestamp dt:dt="r8">41128746538</Timestamp><Current dt:dt="r8">0</Current><DateUtc dt:dt="string">2015-08-07T12:55:43Z</DateUtc></FrequencyChange></FrequencyChanges></Clock>\n	1 ver1_main_procedure-1-1	99.933	1.0.0.880	1	kg	-1820394410	prawa	1	2.0.10.182	08-07-2015	2015-08-07 12:55:43	14:55:43	kobieta	2.0.10.92	3	3	1	1																							d	{SPACE}		no	BlockProc1		BlockList									11	Free	dl	color_red.png		-1	13	262397	310																								75	prime_left.png	0	262047	0	0	13	0	262047	0	262047	1	262047	20	0	-1	260547	262047	262046	0		TrialProc1	left	0		0	10	262357	-262357		0	0	TrialList1	target_both.png	0	dl	-1	3	262097	260	d	287	262384												7	1	11				comp			300
1 ver1_main_procedure	1	1	24	<?xml version="1.0"?>\n<Clock xmlns:dt="urn:schemas-microsoft-com:datatypes"><Description dt:dt="string">E-Prime Primary Realtime Clock</Description><StartTime><Timestamp dt:dt="int">0</Timestamp><DateUtc dt:dt="string">2015-08-07T12:55:43Z</DateUtc></StartTime><FrequencyChanges><FrequencyChange><Frequency dt:dt="r8">2612324</Frequency><Timestamp dt:dt="r8">41128746538</Timestamp><Current dt:dt="r8">0</Current><DateUtc dt:dt="string">2015-08-07T12:55:43Z</DateUtc></FrequencyChange></FrequencyChanges></Clock>\n	1 ver1_main_procedure-1-1	99.933	1.0.0.880	1	kg	-1820394410	prawa	1	2.0.10.182	08-07-2015	2015-08-07 12:55:43	14:55:43	kobieta	2.0.10.92	3	3	1	1																							d	{SPACE}		no	BlockProc1		BlockList									12	Cued	d	color_red.png		-1	9	265018	311																								25	prime_left.png	0	264518	0	0	13	0	264518	0	264518	1	264518	20	0	-1	263019	264518	264517	0		TrialProc1	left	0		0	10	264828	-264828		0	0	TrialList1	target_left.png	1	d	-1	3	264568	260	d	440	265008												1	1	12				comp			300
1 ver1_main_procedure	1	1	24	<?xml version="1.0"?>\n<Clock xmlns:dt="urn:schemas-microsoft-com:datatypes"><Description dt:dt="string">E-Prime Primary Realtime Clock</Description><StartTime><Timestamp dt:dt="int">0</Timestamp><DateUtc dt:dt="string">2015-08-07T12:55:43Z</DateUtc></StartTime><FrequencyChanges><FrequencyChange><Frequency dt:dt="r8">2612324</Frequency><Timestamp dt:dt="r8">41128746538</Timestamp><Current dt:dt="r8">0</Current><DateUtc dt:dt="string">2015-08-07T12:55:43Z</DateUtc></FrequencyChange></FrequencyChanges></Clock>\n	1 ver1_main_procedure-1-1	99.933	1.0.0.880	1	kg	-1820394410	prawa	1	2.0.10.182	08-07-2015	2015-08-07 12:55:43	14:55:43	kobieta	2.0.10.92	3	3	1	1																							d	{SPACE}		no	BlockProc1		BlockList									13	Cued	l	color_yellow.png		-1	9	267490	460																								25	prime_right.png	0	267140	0	0	13	0	267140	0	267140	1	267140	20	0	-1	265640	267140	267139	0		TrialProc1	right	0		0	10	267450	-267450		0	0	TrialList1	target_right.png	1	l	-1	3	267190	260	l	290	267480												4	1	13				comp			450
1 ver1_main_procedure	1	1	24	<?xml version="1.0"?>\n<Clock xmlns:dt="urn:schemas-microsoft-com:datatypes"><Description dt:dt="string">E-Prime Primary Realtime Clock</Description><StartTime><Timestamp dt:dt="int">0</Timestamp><DateUtc dt:dt="string">2015-08-07T12:55:43Z</DateUtc></StartTime><FrequencyChanges><FrequencyChange><Frequency dt:dt="r8">2612324</Frequency><Timestamp dt:dt="r8">41128746538</Timestamp><Current dt:dt="r8">0</Current><DateUtc dt:dt="string">2015-08-07T12:55:43Z</DateUtc></FrequencyChange></FrequencyChanges></Clock>\n	1 ver1_main_procedure-1-1	99.933	1.0.0.880	1	kg	-1820394410	prawa	1	2.0.10.182	08-07-2015	2015-08-07 12:55:43	14:55:43	kobieta	2.0.10.92	3	3	1	1																							d	{SPACE}		no	BlockProc1		BlockList									14	Free	dl	color_orange.png		-1	10	270251	311																								75	prime_right.png	0	269761	0	0	13	0	269761	0	269761	1	269761	20	0	-1	268262	269761	269760	0		TrialProc1	left	0		1	10	270071	-270071		0	0	TrialList1	target_both.png	0	dl	-1	3	269811	260	d	429	270240												9	1	14				incomp			300
1 ver1_main_procedure	1	1	24	<?xml version="1.0"?>\n<Clock xmlns:dt="urn:schemas-microsoft-com:datatypes"><Description dt:dt="string">E-Prime Primary Realtime Clock</Description><StartTime><Timestamp dt:dt="int">0</Timestamp><DateUtc dt:dt="string">2015-08-07T12:55:43Z</DateUtc></StartTime><FrequencyChanges><FrequencyChange><Frequency dt:dt="r8">2612324</Frequency><Timestamp dt:dt="r8">41128746538</Timestamp><Current dt:dt="r8">0</Current><DateUtc dt:dt="string">2015-08-07T12:55:43Z</DateUtc></FrequencyChange></FrequencyChanges></Clock>\n	1 ver1_main_procedure-1-1	99.933	1.0.0.880	1	kg	-1820394410	prawa	1	2.0.10.182	08-07-2015	2015-08-07 12:55:43	14:55:43	kobieta	2.0.10.92	3	3	1	1																							d	{SPACE}		no	BlockProc1		BlockList									15	Cued	d	color_orange.png		-1	10	272883	160																								25	prime_right.png	0	272373	0	0	13	0	272373	0	272373	1	272373	20	0	-1	270873	272373	272372	0		TrialProc1	left	0		0	10	272683	-272683		0	0	TrialList1	target_left.png	1	d	-1	3	272423	260	d	449	272872												3	1	15				incomp			150
1 ver1_main_procedure	1	1	24	<?xml version="1.0"?>\n<Clock xmlns:dt="urn:schemas-microsoft-com:datatypes"><Description dt:dt="string">E-Prime Primary Realtime Clock</Description><StartTime><Timestamp dt:dt="int">0</Timestamp><DateUtc dt:dt="string">2015-08-07T12:55:43Z</DateUtc></StartTime><FrequencyChanges><FrequencyChange><Frequency dt:dt="r8">2612324</Frequency><Timestamp dt:dt="r8">41128746538</Timestamp><Current dt:dt="r8">0</Current><DateUtc dt:dt="string">2015-08-07T12:55:43Z</DateUtc></FrequencyChange></FrequencyChanges></Clock>\n	1 ver1_main_procedure-1-1	99.933	1.0.0.880	1	kg	-1820394410	prawa	1	2.0.10.182	08-07-2015	2015-08-07 12:55:43	14:55:43	kobieta	2.0.10.92	3	3	1	1																							d	{SPACE}		no	BlockProc1		BlockList									16	Cued	d	color_red.png		-1	9	275274	160																								25	prime_left.png	0	274854	0	0	13	0	274854	0	274854	1	274854	20	0	-1	273355	274854	274853	0		TrialProc1	left	0		1	10	275164	-275164		0	0	TrialList1	target_left.png	1	d	-1	3	274904	260	d	360	275264												1	1	16				comp			150
1 ver1_main_procedure	1	1	24	<?xml version="1.0"?>\n<Clock xmlns:dt="urn:schemas-microsoft-com:datatypes"><Description dt:dt="string">E-Prime Primary Realtime Clock</Description><StartTime><Timestamp dt:dt="int">0</Timestamp><DateUtc dt:dt="string">2015-08-07T12:55:43Z</DateUtc></StartTime><FrequencyChanges><FrequencyChange><Frequency dt:dt="r8">2612324</Frequency><Timestamp dt:dt="r8">41128746538</Timestamp><Current dt:dt="r8">0</Current><DateUtc dt:dt="string">2015-08-07T12:55:43Z</DateUtc></FrequencyChange></FrequencyChanges></Clock>\n	1 ver1_main_procedure-1-1	99.933	1.0.0.880	1	kg	-1820394410	prawa	1	2.0.10.182	08-07-2015	2015-08-07 12:55:43	14:55:43	kobieta	2.0.10.92	3	3	1	1																							d	{SPACE}		no	BlockProc1		BlockList									17	Cued	d	color_green.png		-1	7	277656	160																			1					25	prime_left.png	0	277246	0	0	13	0	277246	0	277246	1	277246	20	0	-1	275746	277246	277245	0	prime_left.png	TrialProc1	left	0		0	10	277556	-277556		0	0	TrialList1	target_left.png	1	d	-1	3	277296	260	d	352	277648												2	1	17				neut			150
1 ver1_main_procedure	1	1	24	<?xml version="1.0"?>\n<Clock xmlns:dt="urn:schemas-microsoft-com:datatypes"><Description dt:dt="string">E-Prime Primary Realtime Clock</Description><StartTime><Timestamp dt:dt="int">0</Timestamp><DateUtc dt:dt="string">2015-08-07T12:55:43Z</DateUtc></StartTime><FrequencyChanges><FrequencyChange><Frequency dt:dt="r8">2612324</Frequency><Timestamp dt:dt="r8">41128746538</Timestamp><Current dt:dt="r8">0</Current><DateUtc dt:dt="string">2015-08-07T12:55:43Z</DateUtc></FrequencyChange></FrequencyChanges></Clock>\n	1 ver1_main_procedure-1-1	99.933	1.0.0.880	1	kg	-1820394410	prawa	1	2.0.10.182	08-07-2015	2015-08-07 12:55:43	14:55:43	kobieta	2.0.10.92	3	3	1	1																							d	{SPACE}		no	BlockProc1		BlockList									18	Cued	d	color_orange.png		-1	8	280097	460																								75	prime_right.png	0	279627	0	0	13	0	279627	0	279627	1	279627	20	0	-1	278128	279627	279626	0		TrialProc1	left	0		0	10	279937	-279937		0	0	TrialList1	target_left.png	1	d	-1	3	279677	260	d	411	280088												3	1	18				incomp			450
1 ver1_main_procedure	1	1	24	<?xml version="1.0"?>\n<Clock xmlns:dt="urn:schemas-microsoft-com:datatypes"><Description dt:dt="string">E-Prime Primary Realtime Clock</Description><StartTime><Timestamp dt:dt="int">0</Timestamp><DateUtc dt:dt="string">2015-08-07T12:55:43Z</DateUtc></StartTime><FrequencyChanges><FrequencyChange><Frequency dt:dt="r8">2612324</Frequency><Timestamp dt:dt="r8">41128746538</Timestamp><Current dt:dt="r8">0</Current><DateUtc dt:dt="string">2015-08-07T12:55:43Z</DateUtc></FrequencyChange></FrequencyChanges></Clock>\n	1 ver1_main_procedure-1-1	99.933	1.0.0.880	1	kg	-1820394410	prawa	1	2.0.10.182	08-07-2015	2015-08-07 12:55:43	14:55:43	kobieta	2.0.10.92	3	3	1	1																							d	{SPACE}		no	BlockProc1		BlockList									19	Cued	l	color_yellow.png		-1	14	282799	460																								75	prime_right.png	0	282369	0	0	13	0	282369	0	282369	1	282369	20	0	-1	280869	282369	282368	0		TrialProc1	right	0		0	10	282679	-282679		0	0	TrialList1	target_right.png	1	l	-1	3	282419	260	l	365	282784												4	1	19				comp			450
1 ver1_main_procedure	1	1	24	<?xml version="1.0"?>\n<Clock xmlns:dt="urn:schemas-microsoft-com:datatypes"><Description dt:dt="string">E-Prime Primary Realtime Clock</Description><StartTime><Timestamp dt:dt="int">0</Timestamp><DateUtc dt:dt="string">2015-08-07T12:55:43Z</DateUtc></StartTime><FrequencyChanges><FrequencyChange><Frequency dt:dt="r8">2612324</Frequency><Timestamp dt:dt="r8">41128746538</Timestamp><Current dt:dt="r8">0</Current><DateUtc dt:dt="string">2015-08-07T12:55:43Z</DateUtc></FrequencyChange></FrequencyChanges></Clock>\n	1 ver1_main_procedure-1-1	99.933	1.0.0.880	1	kg	-1820394410	prawa	1	2.0.10.182	08-07-2015	2015-08-07 12:55:43	14:55:43	kobieta	2.0.10.92	3	3	1	1																							d	{SPACE}		no	BlockProc1		BlockList									20	Free	dl	color_orange.png		-1	13	285670	461																								25	prime_right.png	0	285070	0	0	13	0	285070	0	285070	1	285070	20	0	-1	283571	285070	285069	0		TrialProc1	right	0		0	10	285380	-285380		0	0	TrialList1	target_both.png	0	dl	-1	3	285120	260	d	536	285656												10	1	20				comp			450
1 ver1_main_procedure	1	1	24	<?xml version="1.0"?>\n<Clock xmlns:dt="urn:schemas-microsoft-com:datatypes"><Description dt:dt="string">E-Prime Primary Realtime Clock</Description><StartTime><Timestamp dt:dt="int">0</Timestamp><DateUtc dt:dt="string">2015-08-07T12:55:43Z</DateUtc></StartTime><FrequencyChanges><FrequencyChange><Frequency dt:dt="r8">2612324</Frequency><Timestamp dt:dt="r8">41128746538</Timestamp><Current dt:dt="r8">0</Current><DateUtc dt:dt="string">2015-08-07T12:55:43Z</DateUtc></FrequencyChange></FrequencyChanges></Clock>\n	1 ver1_main_procedure-1-1	99.933	1.0.0.880	1	kg	-1820394410	prawa	1	2.0.10.182	08-07-2015	2015-08-07 12:55:43	14:55:43	kobieta	2.0.10.92	3	3	1	1																							d	{SPACE}		no	BlockProc1		BlockList									21	Free	dl	color_blue.png		-1	13	288502	160																			2					75	prime_right.png	0	287942	0	0	13	0	287942	0	287942	1	287942	20	0	-1	286443	287942	287941	0	prime_right.png	TrialProc1	right	0		0	10	288252	-288252		0	0	TrialList1	target_both.png	0	dl	-1	3	287992	260	l	496	288488												11	1	21				neut			150
1 ver1_main_procedure	1	1	24	<?xml version="1.0"?>\n<Clock xmlns:dt="urn:schemas-microsoft-com:datatypes"><Description dt:dt="string">E-Prime Primary Realtime Clock</Description><StartTime><Timestamp dt:dt="int">0</Timestamp><DateUtc dt:dt="string">2015-08-07T12:55:43Z</DateUtc></StartTime><FrequencyChanges><FrequencyChange><Frequency dt:dt="r8">2612324</Frequency><Timestamp dt:dt="r8">41128746538</Timestamp><Current dt:dt="r8">0</Current><DateUtc dt:dt="string">2015-08-07T12:55:43Z</DateUtc></FrequencyChange></FrequencyChanges></Clock>\n	1 ver1_main_procedure-1-1	99.933	1.0.0.880	1	kg	-1820394410	prawa	1	2.0.10.182	08-07-2015	2015-08-07 12:55:43	14:55:43	kobieta	2.0.10.92	3	3	1	1																							d	{SPACE}		no	BlockProc1		BlockList									22	Free	dl	color_purple.png		-1	9	291154	460																								25	prime_left.png	0	290473	0	0	13	0	290473	0	290473	1	290473	20	0	-1	288974	290473	290472	0		TrialProc1	right	0		1	10	290783	-290783		0	0	TrialList1	target_both.png	0	dl	-1	3	290523	260	l	621	291144												12	1	22				incomp			450
1 ver1_main_procedure	1	1	24	<?xml version="1.0"?>\n<Clock xmlns:dt="urn:schemas-microsoft-com:datatypes"><Description dt:dt="string">E-Prime Primary Realtime Clock</Description><StartTime><Timestamp dt:dt="int">0</Timestamp><DateUtc dt:dt="string">2015-08-07T12:55:43Z</DateUtc></StartTime><FrequencyChanges><FrequencyChange><Frequency dt:dt="r8">2612324</Frequency><Timestamp dt:dt="r8">41128746538</Timestamp><Current dt:dt="r8">0</Current><DateUtc dt:dt="string">2015-08-07T12:55:43Z</DateUtc></FrequencyChange></FrequencyChanges></Clock>\n	1 ver1_main_procedure-1-1	99.933	1.0.0.880	1	kg	-1820394410	prawa	1	2.0.10.182	08-07-2015	2015-08-07 12:55:43	14:55:43	kobieta	2.0.10.92	3	3	1	1																							d	{SPACE}		no	BlockProc1		BlockList									23	Cued	l	color_yellow.png		-1	14	293935	160																								75	prime_right.png	0	293425	0	0	13	0	293425	0	293425	1	293425	20	0	-1	291926	293425	293424	0		TrialProc1	right	0		0	10	293735	-293735		0	0	TrialList1	target_right.png	1	l	-1	3	293475	260	l	445	293920												4	1	23				comp			150
1 ver1_main_procedure	1	1	24	<?xml version="1.0"?>\n<Clock xmlns:dt="urn:schemas-microsoft-com:datatypes"><Description dt:dt="string">E-Prime Primary Realtime Clock</Description><StartTime><Timestamp dt:dt="int">0</Timestamp><DateUtc dt:dt="string">2015-08-07T12:55:43Z</DateUtc></StartTime><FrequencyChanges><FrequencyChange><Frequency dt:dt="r8">2612324</Frequency><Timestamp dt:dt="r8">41128746538</Timestamp><Current dt:dt="r8">0</Current><DateUtc dt:dt="string">2015-08-07T12:55:43Z</DateUtc></FrequencyChange></FrequencyChanges></Clock>\n	1 ver1_main_procedure-1-1	99.933	1.0.0.880	1	kg	-1820394410	prawa	1	2.0.10.182	08-07-2015	2015-08-07 12:55:43	14:55:43	kobieta	2.0.10.92	3	3	1	1																							d	{SPACE}		no	BlockProc1		BlockList									24	Cued	l	color_purple.png		-1	8	296497	310																								25	prime_left.png	1	295907	0	0	13	1	295907	1	295907	0	295906	20	0	-1	294407	295906	295906	0		TrialProc1	right	0		0	11	296217	-296217		0	0	TrialList1	target_right.png	1	l	-1	3	295956	261	l	532	296488												6	1	24				incomp			300
1 ver1_main_procedure	1	1	24	<?xml version="1.0"?>\n<Clock xmlns:dt="urn:schemas-microsoft-com:datatypes"><Description dt:dt="string">E-Prime Primary Realtime Clock</Description><StartTime><Timestamp dt:dt="int">0</Timestamp><DateUtc dt:dt="string">2015-08-07T12:55:43Z</DateUtc></StartTime><FrequencyChanges><FrequencyChange><Frequency dt:dt="r8">2612324</Frequency><Timestamp dt:dt="r8">41128746538</Timestamp><Current dt:dt="r8">0</Current><DateUtc dt:dt="string">2015-08-07T12:55:43Z</DateUtc></FrequencyChange></FrequencyChanges></Clock>\n	1 ver1_main_procedure-1-1	99.933	1.0.0.880	1	kg	-1820394410	prawa	1	2.0.10.182	08-07-2015	2015-08-07 12:55:43	14:55:43	kobieta	2.0.10.92	3	3	1	1																							d	{SPACE}		no	BlockProc1		BlockList									25	Cued	l	color_purple.png		-1	11	299148	311																								75	prime_left.png	0	298618	0	0	13	0	298618	0	298618	1	298618	20	0	-1	297119	298618	298617	0		TrialProc1	right	0		0	10	298928	-298928		0	0	TrialList1	target_right.png	1	l	-1	3	298668	260	l	468	299136												6	1	25				incomp			300
1 ver1_main_procedure	1	1	24	<?xml version="1.0"?>\n<Clock xmlns:dt="urn:schemas-microsoft-com:datatypes"><Description dt:dt="string">E-Prime Primary Realtime Clock</Description><StartTime><Timestamp dt:dt="int">0</Timestamp><DateUtc dt:dt="string">2015-08-07T12:55:43Z</DateUtc></StartTime><FrequencyChanges><FrequencyChange><Frequency dt:dt="r8">2612324</Frequency><Timestamp dt:dt="r8">41128746538</Timestamp><Current dt:dt="r8">0</Current><DateUtc dt:dt="string">2015-08-07T12:55:43Z</DateUtc></FrequencyChange></FrequencyChanges></Clock>\n	1 ver1_main_procedure-1-1	99.933	1.0.0.880	1	kg	-1820394410	prawa	1	2.0.10.182	08-07-2015	2015-08-07 12:55:43	14:55:43	kobieta	2.0.10.92	3	3	1	1																							d	{SPACE}		no	BlockProc1		BlockList									26	Cued	d	color_green.png		-1	11	301660	460																			1					25	prime_left.png	0	301270	0	0	13	0	301270	0	301270	1	301270	20	0	-1	299771	301270	301269	0	prime_left.png	TrialProc1	left	0		0	10	301580	-301580		0	0	TrialList1	target_left.png	1	d	-1	3	301320	260	d	328	301648												2	1	26				neut			450
1 ver1_main_procedure	1	1	24	<?xml version="1.0"?>\n<Clock xmlns:dt="urn:schemas-microsoft-com:datatypes"><Description dt:dt="string">E-Prime Primary Realtime Clock</Description><StartTime><Timestamp dt:dt="int">0</Timestamp><DateUtc dt:dt="string">2015-08-07T12:55:43Z</DateUtc></StartTime><FrequencyChanges><FrequencyChange><Frequency dt:dt="r8">2612324</Frequency><Timestamp dt:dt="r8">41128746538</Timestamp><Current dt:dt="r8">0</Current><DateUtc dt:dt="string">2015-08-07T12:55:43Z</DateUtc></FrequencyChange></FrequencyChanges></Clock>\n	1 ver1_main_procedure-1-1	99.933	1.0.0.880	1	kg	-1820394410	prawa	1	2.0.10.182	08-07-2015	2015-08-07 12:55:43	14:55:43	kobieta	2.0.10.92	3	3	1	1																							d	{SPACE}		no	BlockProc1		BlockList									27	Free	dl	color_purple.png		-1	15	304432	160																								75	prime_left.png	0	303931	0	0	13	0	303931	0	303931	1	303931	20	0	-1	302432	303931	303930	0		TrialProc1	left	0		1	10	304241	-304241		0	0	TrialList1	target_both.png	0	dl	-1	3	303981	260	l	435	304416												7	1	27				comp			150
1 ver1_main_procedure	1	1	24	<?xml version="1.0"?>\n<Clock xmlns:dt="urn:schemas-microsoft-com:datatypes"><Description dt:dt="string">E-Prime Primary Realtime Clock</Description><StartTime><Timestamp dt:dt="int">0</Timestamp><DateUtc dt:dt="string">2015-08-07T12:55:43Z</DateUtc></StartTime><FrequencyChanges><FrequencyChange><Frequency dt:dt="r8">2612324</Frequency><Timestamp dt:dt="r8">41128746538</Timestamp><Current dt:dt="r8">0</Current><DateUtc dt:dt="string">2015-08-07T12:55:43Z</DateUtc></FrequencyChange></FrequencyChanges></Clock>\n	1 ver1_main_procedure-1-1	99.933	1.0.0.880	1	kg	-1820394410	prawa	1	2.0.10.182	08-07-2015	2015-08-07 12:55:43	14:55:43	kobieta	2.0.10.92	3	3	1	1																							d	{SPACE}		no	BlockProc1		BlockList									28	Free	dl	color_blue.png		-1	6	306823	460																			2					75	prime_right.png	0	306403	0	0	13	0	306403	0	306403	1	306403	20	0	-1	304903	306403	306402	0	prime_right.png	TrialProc1	left	0		0	10	306713	-306713		0	0	TrialList1	target_both.png	0	dl	-1	3	306453	260	l	363	306816												8	1	28				neut			450
1 ver1_main_procedure	1	1	24	<?xml version="1.0"?>\n<Clock xmlns:dt="urn:schemas-microsoft-com:datatypes"><Description dt:dt="string">E-Prime Primary Realtime Clock</Description><StartTime><Timestamp dt:dt="int">0</Timestamp><DateUtc dt:dt="string">2015-08-07T12:55:43Z</DateUtc></StartTime><FrequencyChanges><FrequencyChange><Frequency dt:dt="r8">2612324</Frequency><Timestamp dt:dt="r8">41128746538</Timestamp><Current dt:dt="r8">0</Current><DateUtc dt:dt="string">2015-08-07T12:55:43Z</DateUtc></FrequencyChange></FrequencyChanges></Clock>\n	1 ver1_main_procedure-1-1	99.933	1.0.0.880	1	kg	-1820394410	prawa	1	2.0.10.182	08-07-2015	2015-08-07 12:55:43	14:55:43	kobieta	2.0.10.92	3	3	1	1																							d	{SPACE}		no	BlockProc1		BlockList									29	Cued	d	color_orange.png		-1	13	309574	311																								75	prime_right.png	0	309094	0	0	13	0	309094	0	309094	1	309094	20	0	-1	307595	309094	309093	0		TrialProc1	left	0		1	10	309404	-309404		0	0	TrialList1	target_left.png	1	d	-1	3	309144	260	d	416	309560												3	1	29				incomp			300
1 ver1_main_procedure	1	1	24	<?xml version="1.0"?>\n<Clock xmlns:dt="urn:schemas-microsoft-com:datatypes"><Description dt:dt="string">E-Prime Primary Realtime Clock</Description><StartTime><Timestamp dt:dt="int">0</Timestamp><DateUtc dt:dt="string">2015-08-07T12:55:43Z</DateUtc></StartTime><FrequencyChanges><FrequencyChange><Frequency dt:dt="r8">2612324</Frequency><Timestamp dt:dt="r8">41128746538</Timestamp><Current dt:dt="r8">0</Current><DateUtc dt:dt="string">2015-08-07T12:55:43Z</DateUtc></FrequencyChange></FrequencyChanges></Clock>\n	1 ver1_main_procedure-1-1	99.933	1.0.0.880	1	kg	-1820394410	prawa	1	2.0.10.182	08-07-2015	2015-08-07 12:55:43	14:55:43	kobieta	2.0.10.92	3	3	1	1																							d	{SPACE}		no	BlockProc1		BlockList									30	Free	dl	color_purple.png		-1	7	312176	460																								75	prime_left.png	0	311696	0	0	13	0	311696	0	311696	1	311696	20	0	-1	310197	311696	311695	0		TrialProc1	right	0		0	10	312006	-312006		0	0	TrialList1	target_both.png	0	dl	-1	3	311746	260	l	422	312168												12	1	30				incomp			450
1 ver1_main_procedure	1	1	24	<?xml version="1.0"?>\n<Clock xmlns:dt="urn:schemas-microsoft-com:datatypes"><Description dt:dt="string">E-Prime Primary Realtime Clock</Description><StartTime><Timestamp dt:dt="int">0</Timestamp><DateUtc dt:dt="string">2015-08-07T12:55:43Z</DateUtc></StartTime><FrequencyChanges><FrequencyChange><Frequency dt:dt="r8">2612324</Frequency><Timestamp dt:dt="r8">41128746538</Timestamp><Current dt:dt="r8">0</Current><DateUtc dt:dt="string">2015-08-07T12:55:43Z</DateUtc></FrequencyChange></FrequencyChanges></Clock>\n	1 ver1_main_procedure-1-1	99.933	1.0.0.880	1	kg	-1820394410	prawa	1	2.0.10.182	08-07-2015	2015-08-07 12:55:43	14:55:43	kobieta	2.0.10.92	3	3	1	1																							d	{SPACE}		no	BlockProc1		BlockList									31	Cued	d	color_green.png		-1	9	314858	160																			1					25	prime_left.png	0	314447	0	0	13	1	314448	1	314448	1	314447	20	0	-1	312948	314447	314446	0	prime_left.png	TrialProc1	left	0		0	11	314758	-314758		0	0	TrialList1	target_left.png	1	d	-1	3	314497	261	d	351	314848												2	1	31				neut			150
1 ver1_main_procedure	1	1	24	<?xml version="1.0"?>\n<Clock xmlns:dt="urn:schemas-microsoft-com:datatypes"><Description dt:dt="string">E-Prime Primary Realtime Clock</Description><StartTime><Timestamp dt:dt="int">0</Timestamp><DateUtc dt:dt="string">2015-08-07T12:55:43Z</DateUtc></StartTime><FrequencyChanges><FrequencyChange><Frequency dt:dt="r8">2612324</Frequency><Timestamp dt:dt="r8">41128746538</Timestamp><Current dt:dt="r8">0</Current><DateUtc dt:dt="string">2015-08-07T12:55:43Z</DateUtc></FrequencyChange></FrequencyChanges></Clock>\n	1 ver1_main_procedure-1-1	99.933	1.0.0.880	1	kg	-1820394410	prawa	1	2.0.10.182	08-07-2015	2015-08-07 12:55:43	14:55:43	kobieta	2.0.10.92	3	3	1	1																							d	{SPACE}		no	BlockProc1		BlockList									32	Cued	d	color_red.png		-1	6	317279	460																								75	prime_left.png	0	316829	0	0	13	0	316829	0	316829	1	316829	20	0	-1	315330	316829	316828	0		TrialProc1	left	0		0	10	317139	-317139		0	0	TrialList1	target_left.png	1	d	-1	3	316879	260	d	393	317272												1	1	32				comp			450
1 ver1_main_procedure	1	1	24	<?xml version="1.0"?>\n<Clock xmlns:dt="urn:schemas-microsoft-com:datatypes"><Description dt:dt="string">E-Prime Primary Realtime Clock</Description><StartTime><Timestamp dt:dt="int">0</Timestamp><DateUtc dt:dt="string">2015-08-07T12:55:43Z</DateUtc></StartTime><FrequencyChanges><FrequencyChange><Frequency dt:dt="r8">2612324</Frequency><Timestamp dt:dt="r8">41128746538</Timestamp><Current dt:dt="r8">0</Current><DateUtc dt:dt="string">2015-08-07T12:55:43Z</DateUtc></FrequencyChange></FrequencyChanges></Clock>\n	1 ver1_main_procedure-1-1	99.933	1.0.0.880	1	kg	-1820394410	prawa	1	2.0.10.182	08-07-2015	2015-08-07 12:55:43	14:55:43	kobieta	2.0.10.92	3	3	1	1																							d	{SPACE}		no	BlockProc1		BlockList									33	Free	dl	color_yellow.png		-1	10	319891	460																								75	prime_right.png	0	319550	0	0	13	1	319551	1	319551	0	319550	20	0	-1	318051	319550	319550	0		TrialProc1	right	0		0	11	319861	-319861		0	0	TrialList1	target_both.png	0	dl	-1	3	319600	261	l	280	319880												10	1	33				comp			450
1 ver1_main_procedure	1	1	24	<?xml version="1.0"?>\n<Clock xmlns:dt="urn:schemas-microsoft-com:datatypes"><Description dt:dt="string">E-Prime Primary Realtime Clock</Description><StartTime><Timestamp dt:dt="int">0</Timestamp><DateUtc dt:dt="string">2015-08-07T12:55:43Z</DateUtc></StartTime><FrequencyChanges><FrequencyChange><Frequency dt:dt="r8">2612324</Frequency><Timestamp dt:dt="r8">41128746538</Timestamp><Current dt:dt="r8">0</Current><DateUtc dt:dt="string">2015-08-07T12:55:43Z</DateUtc></FrequencyChange></FrequencyChanges></Clock>\n	1 ver1_main_procedure-1-1	99.933	1.0.0.880	1	kg	-1820394410	prawa	1	2.0.10.182	08-07-2015	2015-08-07 12:55:43	14:55:43	kobieta	2.0.10.92	3	3	1	1																							d	{SPACE}		no	BlockProc1		BlockList									34	Cued	d	color_orange.png		-1	5	322582	310																								75	prime_right.png	0	322162	0	0	13	0	322162	0	322162	1	322162	20	0	-1	320663	322162	322161	0		TrialProc1	left	0		0	10	322472	-322472		0	0	TrialList1	target_left.png	1	d	-1	3	322212	260	d	365	322577												3	1	34				incomp			300
1 ver1_main_procedure	1	1	24	<?xml version="1.0"?>\n<Clock xmlns:dt="urn:schemas-microsoft-com:datatypes"><Description dt:dt="string">E-Prime Primary Realtime Clock</Description><StartTime><Timestamp dt:dt="int">0</Timestamp><DateUtc dt:dt="string">2015-08-07T12:55:43Z</DateUtc></StartTime><FrequencyChanges><FrequencyChange><Frequency dt:dt="r8">2612324</Frequency><Timestamp dt:dt="r8">41128746538</Timestamp><Current dt:dt="r8">0</Current><DateUtc dt:dt="string">2015-08-07T12:55:43Z</DateUtc></FrequencyChange></FrequencyChanges></Clock>\n	1 ver1_main_procedure-1-1	99.933	1.0.0.880	1	kg	-1820394410	prawa	1	2.0.10.182	08-07-2015	2015-08-07 12:55:43	14:55:43	kobieta	2.0.10.92	3	3	1	1																							d	{SPACE}		no	BlockProc1		BlockList									35	Cued	l	color_blue.png		-1	7	325104	160																			2					75	prime_right.png	0	324703	0	0	13	1	324704	1	324704	0	324703	20	0	-1	323204	324703	324703	0	prime_right.png	TrialProc1	right	0		0	11	325014	-325014		0	0	TrialList1	target_right.png	1	l	-1	3	324753	261	l	344	325097												5	1	35				neut			150
1 ver1_main_procedure	1	1	24	<?xml version="1.0"?>\n<Clock xmlns:dt="urn:schemas-microsoft-com:datatypes"><Description dt:dt="string">E-Prime Primary Realtime Clock</Description><StartTime><Timestamp dt:dt="int">0</Timestamp><DateUtc dt:dt="string">2015-08-07T12:55:43Z</DateUtc></StartTime><FrequencyChanges><FrequencyChange><Frequency dt:dt="r8">2612324</Frequency><Timestamp dt:dt="r8">41128746538</Timestamp><Current dt:dt="r8">0</Current><DateUtc dt:dt="string">2015-08-07T12:55:43Z</DateUtc></FrequencyChange></FrequencyChanges></Clock>\n	1 ver1_main_procedure-1-1	99.933	1.0.0.880	1	kg	-1820394410	prawa	1	2.0.10.182	08-07-2015	2015-08-07 12:55:43	14:55:43	kobieta	2.0.10.92	3	3	1	1																							d	{SPACE}		no	BlockProc1		BlockList									36	Free	dl	color_orange.png		-1	14	327535	160																								75	prime_right.png	0	327075	0	0	13	0	327075	0	327075	1	327075	20	0	-1	325576	327075	327074	0		TrialProc1	left	0		0	10	327385	-327385		0	0	TrialList1	target_both.png	0	dl	-1	3	327125	260	d	396	327521												9	1	36				incomp			150
1 ver1_main_procedure	1	1	24	<?xml version="1.0"?>\n<Clock xmlns:dt="urn:schemas-microsoft-com:datatypes"><Description dt:dt="string">E-Prime Primary Realtime Clock</Description><StartTime><Timestamp dt:dt="int">0</Timestamp><DateUtc dt:dt="string">2015-08-07T12:55:43Z</DateUtc></StartTime><FrequencyChanges><FrequencyChange><Frequency dt:dt="r8">2612324</Frequency><Timestamp dt:dt="r8">41128746538</Timestamp><Current dt:dt="r8">0</Current><DateUtc dt:dt="string">2015-08-07T12:55:43Z</DateUtc></FrequencyChange></FrequencyChanges></Clock>\n	1 ver1_main_procedure-1-1	99.933	1.0.0.880	1	kg	-1820394410	prawa	1	2.0.10.182	08-07-2015	2015-08-07 12:55:43	14:55:43	kobieta	2.0.10.92	3	3	1	1																							d	{SPACE}		no	BlockProc1		BlockList									37	Free	dl	color_blue.png		-1	10	330107	460																			1					25	prime_left.png	0	329506	0	0	13	0	329506	0	329506	1	329506	20	0	-1	328007	329506	329505	0	prime_left.png	TrialProc1	right	0		1	10	329816	-329816		0	0	TrialList1	target_both.png	0	dl	-1	3	329556	260	l	541	330097												11	1	37				neut			450
1 ver1_main_procedure	1	1	24	<?xml version="1.0"?>\n<Clock xmlns:dt="urn:schemas-microsoft-com:datatypes"><Description dt:dt="string">E-Prime Primary Realtime Clock</Description><StartTime><Timestamp dt:dt="int">0</Timestamp><DateUtc dt:dt="string">2015-08-07T12:55:43Z</DateUtc></StartTime><FrequencyChanges><FrequencyChange><Frequency dt:dt="r8">2612324</Frequency><Timestamp dt:dt="r8">41128746538</Timestamp><Current dt:dt="r8">0</Current><DateUtc dt:dt="string">2015-08-07T12:55:43Z</DateUtc></FrequencyChange></FrequencyChanges></Clock>\n	1 ver1_main_procedure-1-1	99.933	1.0.0.880	1	kg	-1820394410	prawa	1	2.0.10.182	08-07-2015	2015-08-07 12:55:43	14:55:43	kobieta	2.0.10.92	3	3	1	1																							d	{SPACE}		no	BlockProc1		BlockList									38	Cued	d	color_orange.png		-1	15	332848	310																								25	prime_right.png	0	332378	0	0	13	0	332378	0	332378	1	332378	20	0	-1	330879	332378	332377	0		TrialProc1	left	0		0	10	332688	-332688		0	0	TrialList1	target_left.png	1	d	-1	3	332428	260	d	405	332833												3	1	38				incomp			300
1 ver1_main_procedure	1	1	24	<?xml version="1.0"?>\n<Clock xmlns:dt="urn:schemas-microsoft-com:datatypes"><Description dt:dt="string">E-Prime Primary Realtime Clock</Description><StartTime><Timestamp dt:dt="int">0</Timestamp><DateUtc dt:dt="string">2015-08-07T12:55:43Z</DateUtc></StartTime><FrequencyChanges><FrequencyChange><Frequency dt:dt="r8">2612324</Frequency><Timestamp dt:dt="r8">41128746538</Timestamp><Current dt:dt="r8">0</Current><DateUtc dt:dt="string">2015-08-07T12:55:43Z</DateUtc></FrequencyChange></FrequencyChanges></Clock>\n	1 ver1_main_procedure-1-1	99.933	1.0.0.880	1	kg	-1820394410	prawa	1	2.0.10.182	08-07-2015	2015-08-07 12:55:43	14:55:43	kobieta	2.0.10.92	3	3	1	1																							d	{SPACE}		no	BlockProc1		BlockList									39	Cued	d	color_green.png		-1	7	335440	310																			2					75	prime_right.png	1	334970	0	0	13	1	334970	1	334970	0	334969	20	0	-1	333470	334969	334969	0	prime_right.png	TrialProc1	left	0		0	11	335280	-335280		0	0	TrialList1	target_left.png	1	d	-1	3	335019	261	d	414	335433												2	1	39				neut			300
1 ver1_main_procedure	1	1	24	<?xml version="1.0"?>\n<Clock xmlns:dt="urn:schemas-microsoft-com:datatypes"><Description dt:dt="string">E-Prime Primary Realtime Clock</Description><StartTime><Timestamp dt:dt="int">0</Timestamp><DateUtc dt:dt="string">2015-08-07T12:55:43Z</DateUtc></StartTime><FrequencyChanges><FrequencyChange><Frequency dt:dt="r8">2612324</Frequency><Timestamp dt:dt="r8">41128746538</Timestamp><Current dt:dt="r8">0</Current><DateUtc dt:dt="string">2015-08-07T12:55:43Z</DateUtc></FrequencyChange></FrequencyChanges></Clock>\n	1 ver1_main_procedure-1-1	99.933	1.0.0.880	1	kg	-1820394410	prawa	1	2.0.10.182	08-07-2015	2015-08-07 12:55:43	14:55:43	kobieta	2.0.10.92	3	3	1	1																							d	{SPACE}		no	BlockProc1		BlockList									40	Cued	d	color_green.png		-1	12	337941	461																			1					75	prime_left.png	0	337561	0	0	13	0	337561	0	337561	1	337561	20	0	-1	336062	337561	337560	0	prime_left.png	TrialProc1	left	0		0	10	337871	-337871		0	0	TrialList1	target_left.png	1	d	-1	3	337611	260	d	318	337929												2	1	40				neut			450
1 ver1_main_procedure	1	1	24	<?xml version="1.0"?>\n<Clock xmlns:dt="urn:schemas-microsoft-com:datatypes"><Description dt:dt="string">E-Prime Primary Realtime Clock</Description><StartTime><Timestamp dt:dt="int">0</Timestamp><DateUtc dt:dt="string">2015-08-07T12:55:43Z</DateUtc></StartTime><FrequencyChanges><FrequencyChange><Frequency dt:dt="r8">2612324</Frequency><Timestamp dt:dt="r8">41128746538</Timestamp><Current dt:dt="r8">0</Current><DateUtc dt:dt="string">2015-08-07T12:55:43Z</DateUtc></FrequencyChange></FrequencyChanges></Clock>\n	1 ver1_main_procedure-1-1	99.933	1.0.0.880	1	kg	-1820394410	prawa	1	2.0.10.182	08-07-2015	2015-08-07 12:55:43	14:55:43	kobieta	2.0.10.92	3	3	1	1																							d	{SPACE}		no	BlockProc1		BlockList									41	Cued	d	color_green.png		-1	14	340663	460																			2					25	prime_right.png	0	340213	0	0	13	0	340213	0	340213	1	340213	20	0	-1	338713	340213	340212	0	prime_right.png	TrialProc1	left	0		0	10	340523	-340523		0	0	TrialList1	target_left.png	1	d	-1	3	340263	260	d	386	340649												2	1	41				neut			450
1 ver1_main_procedure	1	1	24	<?xml version="1.0"?>\n<Clock xmlns:dt="urn:schemas-microsoft-com:datatypes"><Description dt:dt="string">E-Prime Primary Realtime Clock</Description><StartTime><Timestamp dt:dt="int">0</Timestamp><DateUtc dt:dt="string">2015-08-07T12:55:43Z</DateUtc></StartTime><FrequencyChanges><FrequencyChange><Frequency dt:dt="r8">2612324</Frequency><Timestamp dt:dt="r8">41128746538</Timestamp><Current dt:dt="r8">0</Current><DateUtc dt:dt="string">2015-08-07T12:55:43Z</DateUtc></FrequencyChange></FrequencyChanges></Clock>\n	1 ver1_main_procedure-1-1	99.933	1.0.0.880	1	kg	-1820394410	prawa	1	2.0.10.182	08-07-2015	2015-08-07 12:55:43	14:55:43	kobieta	2.0.10.92	3	3	1	1																							d	{SPACE}		no	BlockProc1		BlockList									42	Free	dl	color_red.png		-1	11	343244	461																								75	prime_left.png	0	342934	0	0	13	0	342934	0	342934	1	342934	20	0	-1	341435	342934	342933	0		TrialProc1	right	0		-999999	0	0	0		0	0	TrialList1	target_both.png	0	dl	-1	3	342984	0	d	249	343233												12	1	42				incomp			450
1 ver1_main_procedure	1	1	24	<?xml version="1.0"?>\n<Clock xmlns:dt="urn:schemas-microsoft-com:datatypes"><Description dt:dt="string">E-Prime Primary Realtime Clock</Description><StartTime><Timestamp dt:dt="int">0</Timestamp><DateUtc dt:dt="string">2015-08-07T12:55:43Z</DateUtc></StartTime><FrequencyChanges><FrequencyChange><Frequency dt:dt="r8">2612324</Frequency><Timestamp dt:dt="r8">41128746538</Timestamp><Current dt:dt="r8">0</Current><DateUtc dt:dt="string">2015-08-07T12:55:43Z</DateUtc></FrequencyChange></FrequencyChanges></Clock>\n	1 ver1_main_procedure-1-1	99.933	1.0.0.880	1	kg	-1820394410	prawa	1	2.0.10.182	08-07-2015	2015-08-07 12:55:43	14:55:43	kobieta	2.0.10.92	3	3	1	1																							d	{SPACE}		no	BlockProc1		BlockList									43	Cued	l	color_purple.png		-1	11	345956	310																								25	prime_left.png	0	345516	0	0	13	0	345516	0	345516	1	345516	20	0	-1	344017	345516	345515	0		TrialProc1	right	0		0	10	345826	-345826		0	0	TrialList1	target_right.png	1	l	-1	3	345566	260	l	379	345945												6	1	43				incomp			300
1 ver1_main_procedure	1	1	24	<?xml version="1.0"?>\n<Clock xmlns:dt="urn:schemas-microsoft-com:datatypes"><Description dt:dt="string">E-Prime Primary Realtime Clock</Description><StartTime><Timestamp dt:dt="int">0</Timestamp><DateUtc dt:dt="string">2015-08-07T12:55:43Z</DateUtc></StartTime><FrequencyChanges><FrequencyChange><Frequency dt:dt="r8">2612324</Frequency><Timestamp dt:dt="r8">41128746538</Timestamp><Current dt:dt="r8">0</Current><DateUtc dt:dt="string">2015-08-07T12:55:43Z</DateUtc></FrequencyChange></FrequencyChanges></Clock>\n	1 ver1_main_procedure-1-1	99.933	1.0.0.880	1	kg	-1820394410	prawa	1	2.0.10.182	08-07-2015	2015-08-07 12:55:43	14:55:43	kobieta	2.0.10.92	3	3	1	1																							d	{SPACE}		no	BlockProc1		BlockList									44	Cued	l	color_yellow.png		-1	9	348507	160																								75	prime_right.png	0	348077	0	0	13	0	348077	0	348077	1	348077	20	0	-1	346578	348077	348076	0		TrialProc1	right	0		0	10	348387	-348387		0	0	TrialList1	target_right.png	1	l	-1	3	348127	260	l	370	348497												4	1	44				comp			150
1 ver1_main_procedure	1	1	24	<?xml version="1.0"?>\n<Clock xmlns:dt="urn:schemas-microsoft-com:datatypes"><Description dt:dt="string">E-Prime Primary Realtime Clock</Description><StartTime><Timestamp dt:dt="int">0</Timestamp><DateUtc dt:dt="string">2015-08-07T12:55:43Z</DateUtc></StartTime><FrequencyChanges><FrequencyChange><Frequency dt:dt="r8">2612324</Frequency><Timestamp dt:dt="r8">41128746538</Timestamp><Current dt:dt="r8">0</Current><DateUtc dt:dt="string">2015-08-07T12:55:43Z</DateUtc></FrequencyChange></FrequencyChanges></Clock>\n	1 ver1_main_procedure-1-1	99.933	1.0.0.880	1	kg	-1820394410	prawa	1	2.0.10.182	08-07-2015	2015-08-07 12:55:43	14:55:43	kobieta	2.0.10.92	3	3	1	1																							d	{SPACE}		no	BlockProc1		BlockList									45	Cued	d	color_red.png		-1	11	350829	460																								25	prime_left.png	0	350479	0	0	13	0	350479	0	350479	1	350479	20	0	-1	348979	350479	350478	0		TrialProc1	left	0		0	10	350789	-350789		0	0	TrialList1	target_left.png	1	d	-1	3	350529	260	d	288	350817												1	1	45				comp			450
1 ver1_main_procedure	1	1	24	<?xml version="1.0"?>\n<Clock xmlns:dt="urn:schemas-microsoft-com:datatypes"><Description dt:dt="string">E-Prime Primary Realtime Clock</Description><StartTime><Timestamp dt:dt="int">0</Timestamp><DateUtc dt:dt="string">2015-08-07T12:55:43Z</DateUtc></StartTime><FrequencyChanges><FrequencyChange><Frequency dt:dt="r8">2612324</Frequency><Timestamp dt:dt="r8">41128746538</Timestamp><Current dt:dt="r8">0</Current><DateUtc dt:dt="string">2015-08-07T12:55:43Z</DateUtc></FrequencyChange></FrequencyChanges></Clock>\n	1 ver1_main_procedure-1-1	99.933	1.0.0.880	1	kg	-1820394410	prawa	1	2.0.10.182	08-07-2015	2015-08-07 12:55:43	14:55:43	kobieta	2.0.10.92	3	3	1	1																							d	{SPACE}		no	BlockProc1		BlockList									46	Free	dl	color_blue.png		-1	14	353560	160																			1					25	prime_left.png	0	353100	0	0	13	0	353100	0	353100	1	353100	20	0	-1	351601	353100	353099	0	prime_left.png	TrialProc1	right	0		0	10	353410	-353410		0	0	TrialList1	target_both.png	0	dl	-1	3	353150	260	l	395	353545												11	1	46				neut			150
1 ver1_main_procedure	1	1	24	<?xml version="1.0"?>\n<Clock xmlns:dt="urn:schemas-microsoft-com:datatypes"><Description dt:dt="string">E-Prime Primary Realtime Clock</Description><StartTime><Timestamp dt:dt="int">0</Timestamp><DateUtc dt:dt="string">2015-08-07T12:55:43Z</DateUtc></StartTime><FrequencyChanges><FrequencyChange><Frequency dt:dt="r8">2612324</Frequency><Timestamp dt:dt="r8">41128746538</Timestamp><Current dt:dt="r8">0</Current><DateUtc dt:dt="string">2015-08-07T12:55:43Z</DateUtc></FrequencyChange></FrequencyChanges></Clock>\n	1 ver1_main_procedure-1-1	99.933	1.0.0.880	1	kg	-1820394410	prawa	1	2.0.10.182	08-07-2015	2015-08-07 12:55:43	14:55:43	kobieta	2.0.10.92	3	3	1	1																							d	{SPACE}		no	BlockProc1		BlockList									47	Cued	d	color_green.png		-1	6	355912	160																			2					25	prime_right.png	1	355532	0	0	13	1	355532	1	355532	0	355531	21	0	-1	354032	355531	355531	0	prime_right.png	TrialProc1	left	0		0	10	355842	-355842		0	0	TrialList1	target_left.png	1	d	-1	3	355582	260	d	323	355905												2	1	47				neut			150
1 ver1_main_procedure	1	1	24	<?xml version="1.0"?>\n<Clock xmlns:dt="urn:schemas-microsoft-com:datatypes"><Description dt:dt="string">E-Prime Primary Realtime Clock</Description><StartTime><Timestamp dt:dt="int">0</Timestamp><DateUtc dt:dt="string">2015-08-07T12:55:43Z</DateUtc></StartTime><FrequencyChanges><FrequencyChange><Frequency dt:dt="r8">2612324</Frequency><Timestamp dt:dt="r8">41128746538</Timestamp><Current dt:dt="r8">0</Current><DateUtc dt:dt="string">2015-08-07T12:55:43Z</DateUtc></FrequencyChange></FrequencyChanges></Clock>\n	1 ver1_main_procedure-1-1	99.933	1.0.0.880	1	kg	-1820394410	prawa	1	2.0.10.182	08-07-2015	2015-08-07 12:55:43	14:55:43	kobieta	2.0.10.92	3	3	1	1																							d	{SPACE}		no	BlockProc1		BlockList									48	Cued	l	color_blue.png		-1	11	358293	310																			1					75	prime_left.png	0	357883	0	0	13	0	357883	0	357883	1	357883	20	0	-1	356384	357883	357882	0	prime_left.png	TrialProc1	right	0		0	10	358193	-358193		0	0	TrialList1	target_right.png	1	l	-1	3	357933	260	l	348	358281												5	1	48				neut			300
1 ver1_main_procedure	1	1	24	<?xml version="1.0"?>\n<Clock xmlns:dt="urn:schemas-microsoft-com:datatypes"><Description dt:dt="string">E-Prime Primary Realtime Clock</Description><StartTime><Timestamp dt:dt="int">0</Timestamp><DateUtc dt:dt="string">2015-08-07T12:55:43Z</DateUtc></StartTime><FrequencyChanges><FrequencyChange><Frequency dt:dt="r8">2612324</Frequency><Timestamp dt:dt="r8">41128746538</Timestamp><Current dt:dt="r8">0</Current><DateUtc dt:dt="string">2015-08-07T12:55:43Z</DateUtc></FrequencyChange></FrequencyChanges></Clock>\n	1 ver1_main_procedure-1-1	99.933	1.0.0.880	1	kg	-1820394410	prawa	1	2.0.10.182	08-07-2015	2015-08-07 12:55:43	14:55:43	kobieta	2.0.10.92	3	3	1	1																							d	{SPACE}		no	BlockProc1		BlockList									49	Free	dl	color_green.png		-1	13	360855	460																			2					25	prime_right.png	0	360414	0	0	13	1	360415	1	360415	1	360414	20	0	-1	358915	360414	360413	0	prime_right.png	TrialProc1	left	0		0	11	360725	-360725		0	0	TrialList1	target_both.png	0	dl	-1	3	360464	261	d	377	360841												8	1	49				neut			450
1 ver1_main_procedure	1	1	24	<?xml version="1.0"?>\n<Clock xmlns:dt="urn:schemas-microsoft-com:datatypes"><Description dt:dt="string">E-Prime Primary Realtime Clock</Description><StartTime><Timestamp dt:dt="int">0</Timestamp><DateUtc dt:dt="string">2015-08-07T12:55:43Z</DateUtc></StartTime><FrequencyChanges><FrequencyChange><Frequency dt:dt="r8">2612324</Frequency><Timestamp dt:dt="r8">41128746538</Timestamp><Current dt:dt="r8">0</Current><DateUtc dt:dt="string">2015-08-07T12:55:43Z</DateUtc></FrequencyChange></FrequencyChanges></Clock>\n	1 ver1_main_procedure-1-1	99.933	1.0.0.880	1	kg	-1820394410	prawa	1	2.0.10.182	08-07-2015	2015-08-07 12:55:43	14:55:43	kobieta	2.0.10.92	3	3	1	1																							d	{SPACE}		no	BlockProc1		BlockList									50	Free	dl	color_yellow.png		-1	10	363676	310																								75	prime_right.png	0	363126	0	0	13	0	363126	0	363126	1	363126	20	0	-1	361627	363126	363125	0		TrialProc1	left	0		0	10	363436	-363436		0	0	TrialList1	target_both.png	0	dl	-1	3	363176	260	l	489	363665												9	1	50				incomp			300
1 ver1_main_procedure	1	1	24	<?xml version="1.0"?>\n<Clock xmlns:dt="urn:schemas-microsoft-com:datatypes"><Description dt:dt="string">E-Prime Primary Realtime Clock</Description><StartTime><Timestamp dt:dt="int">0</Timestamp><DateUtc dt:dt="string">2015-08-07T12:55:43Z</DateUtc></StartTime><FrequencyChanges><FrequencyChange><Frequency dt:dt="r8">2612324</Frequency><Timestamp dt:dt="r8">41128746538</Timestamp><Current dt:dt="r8">0</Current><DateUtc dt:dt="string">2015-08-07T12:55:43Z</DateUtc></FrequencyChange></FrequencyChanges></Clock>\n	1 ver1_main_procedure-1-1	99.933	1.0.0.880	1	kg	-1820394410	prawa	1	2.0.10.182	08-07-2015	2015-08-07 12:55:43	14:55:43	kobieta	2.0.10.92	3	3	1	1																							d	{SPACE}		no	BlockProc1		BlockList									51	Free	dl	color_green.png		-1	10	366148	460																			1					25	prime_left.png	0	365798	0	0	13	0	365798	0	365798	1	365798	20	0	-1	364298	365798	365797	0	prime_left.png	TrialProc1	left	0		0	10	366108	-366108		0	0	TrialList1	target_both.png	0	dl	-1	3	365848	260	d	289	366137												8	1	51				neut			450
1 ver1_main_procedure	1	1	24	<?xml version="1.0"?>\n<Clock xmlns:dt="urn:schemas-microsoft-com:datatypes"><Description dt:dt="string">E-Prime Primary Realtime Clock</Description><StartTime><Timestamp dt:dt="int">0</Timestamp><DateUtc dt:dt="string">2015-08-07T12:55:43Z</DateUtc></StartTime><FrequencyChanges><FrequencyChange><Frequency dt:dt="r8">2612324</Frequency><Timestamp dt:dt="r8">41128746538</Timestamp><Current dt:dt="r8">0</Current><DateUtc dt:dt="string">2015-08-07T12:55:43Z</DateUtc></FrequencyChange></FrequencyChanges></Clock>\n	1 ver1_main_procedure-1-1	99.933	1.0.0.880	1	kg	-1820394410	prawa	1	2.0.10.182	08-07-2015	2015-08-07 12:55:43	14:55:43	kobieta	2.0.10.92	3	3	1	1																							d	{SPACE}		no	BlockProc1		BlockList									52	Cued	d	color_orange.png		-1	6	368960	460																								75	prime_right.png	0	368419	0	0	13	0	368419	0	368419	1	368419	20	0	-1	366920	368419	368418	0		TrialProc1	left	0		0	10	368729	-368729		0	0	TrialList1	target_left.png	1	d	-1	3	368469	260	d	484	368953												3	1	52				incomp			450
1 ver1_main_procedure	1	1	24	<?xml version="1.0"?>\n<Clock xmlns:dt="urn:schemas-microsoft-com:datatypes"><Description dt:dt="string">E-Prime Primary Realtime Clock</Description><StartTime><Timestamp dt:dt="int">0</Timestamp><DateUtc dt:dt="string">2015-08-07T12:55:43Z</DateUtc></StartTime><FrequencyChanges><FrequencyChange><Frequency dt:dt="r8">2612324</Frequency><Timestamp dt:dt="r8">41128746538</Timestamp><Current dt:dt="r8">0</Current><DateUtc dt:dt="string">2015-08-07T12:55:43Z</DateUtc></FrequencyChange></FrequencyChanges></Clock>\n	1 ver1_main_procedure-1-1	99.933	1.0.0.880	1	kg	-1820394410	prawa	1	2.0.10.182	08-07-2015	2015-08-07 12:55:43	14:55:43	kobieta	2.0.10.92	3	3	1	1																							d	{SPACE}		no	BlockProc1		BlockList									53	Free	dl	color_purple.png		-1	7	371601	160																								25	prime_left.png	0	371231	0	0	13	0	371231	0	371231	1	371231	20	0	-1	369731	371231	371230	0		TrialProc1	left	0		0	10	371541	-371541		0	0	TrialList1	target_both.png	0	dl	-1	3	371281	260	l	312	371593												7	1	53				comp			150
1 ver1_main_procedure	1	1	24	<?xml version="1.0"?>\n<Clock xmlns:dt="urn:schemas-microsoft-com:datatypes"><Description dt:dt="string">E-Prime Primary Realtime Clock</Description><StartTime><Timestamp dt:dt="int">0</Timestamp><DateUtc dt:dt="string">2015-08-07T12:55:43Z</DateUtc></StartTime><FrequencyChanges><FrequencyChange><Frequency dt:dt="r8">2612324</Frequency><Timestamp dt:dt="r8">41128746538</Timestamp><Current dt:dt="r8">0</Current><DateUtc dt:dt="string">2015-08-07T12:55:43Z</DateUtc></FrequencyChange></FrequencyChanges></Clock>\n	1 ver1_main_procedure-1-1	99.933	1.0.0.880	1	kg	-1820394410	prawa	1	2.0.10.182	08-07-2015	2015-08-07 12:55:43	14:55:43	kobieta	2.0.10.92	3	3	1	1																							d	{SPACE}		no	BlockProc1		BlockList									54	Cued	l	color_blue.png		-1	14	373912	160																			2					75	prime_right.png	0	373572	0	0	13	0	373572	0	373572	1	373572	20	0	-1	372073	373572	373571	0	prime_right.png	TrialProc1	right	0		0	10	373882	-373882		0	0	TrialList1	target_right.png	1	l	-1	3	373622	260	l	275	373897												5	1	54				neut			150
1 ver1_main_procedure	1	1	24	<?xml version="1.0"?>\n<Clock xmlns:dt="urn:schemas-microsoft-com:datatypes"><Description dt:dt="string">E-Prime Primary Realtime Clock</Description><StartTime><Timestamp dt:dt="int">0</Timestamp><DateUtc dt:dt="string">2015-08-07T12:55:43Z</DateUtc></StartTime><FrequencyChanges><FrequencyChange><Frequency dt:dt="r8">2612324</Frequency><Timestamp dt:dt="r8">41128746538</Timestamp><Current dt:dt="r8">0</Current><DateUtc dt:dt="string">2015-08-07T12:55:43Z</DateUtc></FrequencyChange></FrequencyChanges></Clock>\n	1 ver1_main_procedure-1-1	99.933	1.0.0.880	1	kg	-1820394410	prawa	1	2.0.10.182	08-07-2015	2015-08-07 12:55:43	14:55:43	kobieta	2.0.10.92	3	3	1	1																							d	{SPACE}		no	BlockProc1		BlockList									55	Cued	d	color_red.png		-1	10	376244	160																								25	prime_left.png	0	375884	0	0	13	0	375884	0	375884	1	375884	19	0	-1	374384	375884	375883	0		TrialProc1	left	0		0	11	376194	-376194		0	0	TrialList1	target_left.png	1	d	-1	3	375933	261	d	300	376233												1	1	55				comp			150
1 ver1_main_procedure	1	1	24	<?xml version="1.0"?>\n<Clock xmlns:dt="urn:schemas-microsoft-com:datatypes"><Description dt:dt="string">E-Prime Primary Realtime Clock</Description><StartTime><Timestamp dt:dt="int">0</Timestamp><DateUtc dt:dt="string">2015-08-07T12:55:43Z</DateUtc></StartTime><FrequencyChanges><FrequencyChange><Frequency dt:dt="r8">2612324</Frequency><Timestamp dt:dt="r8">41128746538</Timestamp><Current dt:dt="r8">0</Current><DateUtc dt:dt="string">2015-08-07T12:55:43Z</DateUtc></FrequencyChange></FrequencyChanges></Clock>\n	1 ver1_main_procedure-1-1	99.933	1.0.0.880	1	kg	-1820394410	prawa	1	2.0.10.182	08-07-2015	2015-08-07 12:55:43	14:55:43	kobieta	2.0.10.92	3	3	1	1																							d	{SPACE}		no	BlockProc1		BlockList									56	Cued	l	color_yellow.png		-1	9	378555	310																								25	prime_right.png	0	378215	0	0	13	0	378215	0	378215	1	378215	20	0	-1	376716	378215	378214	0		TrialProc1	right	0		0	10	378525	-378525		0	0	TrialList1	target_right.png	1	l	-1	3	378265	260	l	280	378545												4	1	56				comp			300
1 ver1_main_procedure	1	1	24	<?xml version="1.0"?>\n<Clock xmlns:dt="urn:schemas-microsoft-com:datatypes"><Description dt:dt="string">E-Prime Primary Realtime Clock</Description><StartTime><Timestamp dt:dt="int">0</Timestamp><DateUtc dt:dt="string">2015-08-07T12:55:43Z</DateUtc></StartTime><FrequencyChanges><FrequencyChange><Frequency dt:dt="r8">2612324</Frequency><Timestamp dt:dt="r8">41128746538</Timestamp><Current dt:dt="r8">0</Current><DateUtc dt:dt="string">2015-08-07T12:55:43Z</DateUtc></FrequencyChange></FrequencyChanges></Clock>\n	1 ver1_main_procedure-1-1	99.933	1.0.0.880	1	kg	-1820394410	prawa	1	2.0.10.182	08-07-2015	2015-08-07 12:55:43	14:55:43	kobieta	2.0.10.92	3	3	1	1																							d	{SPACE}		no	BlockProc1		BlockList									57	Cued	l			-1	10	380956	161																								75	prime_right.png	0	380676	0	0	13	1	380677	1	380677	1	380676	20	0	-1	379177	380676	380675	0		TrialProc1	right	0		0	0	0	0		0	0	TrialList1	target_right.png	0	l	-999999	3	380726	0	d	219	380945												4	1	57				comp			150
1 ver1_main_procedure	1	1	24	<?xml version="1.0"?>\n<Clock xmlns:dt="urn:schemas-microsoft-com:datatypes"><Description dt:dt="string">E-Prime Primary Realtime Clock</Description><StartTime><Timestamp dt:dt="int">0</Timestamp><DateUtc dt:dt="string">2015-08-07T12:55:43Z</DateUtc></StartTime><FrequencyChanges><FrequencyChange><Frequency dt:dt="r8">2612324</Frequency><Timestamp dt:dt="r8">41128746538</Timestamp><Current dt:dt="r8">0</Current><DateUtc dt:dt="string">2015-08-07T12:55:43Z</DateUtc></FrequencyChange></FrequencyChanges></Clock>\n	1 ver1_main_procedure-1-1	99.933	1.0.0.880	1	kg	-1820394410	prawa	1	2.0.10.182	08-07-2015	2015-08-07 12:55:43	14:55:43	kobieta	2.0.10.92	3	3	1	1																							d	{SPACE}		no	BlockProc1		BlockList									58	Cued	d	color_red.png		-1	12	383398	460																								25	prime_left.png	0	382928	0	0	13	0	382928	0	382928	1	382928	20	0	-1	381428	382928	382927	0		TrialProc1	left	0		0	10	383238	-383238		0	0	TrialList1	target_left.png	1	d	-1	3	382978	260	d	407	383385												1	1	58				comp			450
1 ver1_main_procedure	1	1	24	<?xml version="1.0"?>\n<Clock xmlns:dt="urn:schemas-microsoft-com:datatypes"><Description dt:dt="string">E-Prime Primary Realtime Clock</Description><StartTime><Timestamp dt:dt="int">0</Timestamp><DateUtc dt:dt="string">2015-08-07T12:55:43Z</DateUtc></StartTime><FrequencyChanges><FrequencyChange><Frequency dt:dt="r8">2612324</Frequency><Timestamp dt:dt="r8">41128746538</Timestamp><Current dt:dt="r8">0</Current><DateUtc dt:dt="string">2015-08-07T12:55:43Z</DateUtc></FrequencyChange></FrequencyChanges></Clock>\n	1 ver1_main_procedure-1-1	99.933	1.0.0.880	1	kg	-1820394410	prawa	1	2.0.10.182	08-07-2015	2015-08-07 12:55:43	14:55:43	kobieta	2.0.10.92	3	3	1	1																							d	{SPACE}		no	BlockProc1		BlockList									59	Cued	l	color_yellow.png		-1	13	386079	311																								25	prime_right.png	0	385669	0	0	13	0	385669	0	385669	1	385669	20	0	-1	384170	385669	385668	0		TrialProc1	right	0		1	10	385979	-385979		0	0	TrialList1	target_right.png	1	l	-1	3	385719	260	l	346	386065												4	1	59				comp			300
1 ver1_main_procedure	1	1	24	<?xml version="1.0"?>\n<Clock xmlns:dt="urn:schemas-microsoft-com:datatypes"><Description dt:dt="string">E-Prime Primary Realtime Clock</Description><StartTime><Timestamp dt:dt="int">0</Timestamp><DateUtc dt:dt="string">2015-08-07T12:55:43Z</DateUtc></StartTime><FrequencyChanges><FrequencyChange><Frequency dt:dt="r8">2612324</Frequency><Timestamp dt:dt="r8">41128746538</Timestamp><Current dt:dt="r8">0</Current><DateUtc dt:dt="string">2015-08-07T12:55:43Z</DateUtc></FrequencyChange></FrequencyChanges></Clock>\n	1 ver1_main_procedure-1-1	99.933	1.0.0.880	1	kg	-1820394410	prawa	1	2.0.10.182	08-07-2015	2015-08-07 12:55:43	14:55:43	kobieta	2.0.10.92	3	3	1	1																							d	{SPACE}		no	BlockProc1		BlockList									60	Cued	l	color_purple.png		-1	11	388621	460																								75	prime_left.png	0	388201	0	0	13	0	388201	0	388201	1	388201	20	0	-1	386701	388201	388200	0		TrialProc1	right	0		0	10	388511	-388511		0	0	TrialList1	target_right.png	1	l	-1	3	388251	260	l	358	388609												6	1	60				incomp			450
1 ver1_main_procedure	1	1	24	<?xml version="1.0"?>\n<Clock xmlns:dt="urn:schemas-microsoft-com:datatypes"><Description dt:dt="string">E-Prime Primary Realtime Clock</Description><StartTime><Timestamp dt:dt="int">0</Timestamp><DateUtc dt:dt="string">2015-08-07T12:55:43Z</DateUtc></StartTime><FrequencyChanges><FrequencyChange><Frequency dt:dt="r8">2612324</Frequency><Timestamp dt:dt="r8">41128746538</Timestamp><Current dt:dt="r8">0</Current><DateUtc dt:dt="string">2015-08-07T12:55:43Z</DateUtc></FrequencyChange></FrequencyChanges></Clock>\n	1 ver1_main_procedure-1-1	99.933	1.0.0.880	1	kg	-1820394410	prawa	1	2.0.10.182	08-07-2015	2015-08-07 12:55:43	14:55:43	kobieta	2.0.10.92	3	3	1	1																							d	{SPACE}		no	BlockProc1		BlockList									61	Cued	l	color_purple.png		-1	9	391403	160																								25	prime_left.png	0	390892	0	0	13	0	390893	0	390892	1	390892	20	0	-1	389393	390892	390891	0		TrialProc1	right	0		1	10	391202	-391202		0	0	TrialList1	target_right.png	1	l	-1	3	390942	260	l	451	391393												6	1	61				incomp			150
1 ver1_main_procedure	1	1	24	<?xml version="1.0"?>\n<Clock xmlns:dt="urn:schemas-microsoft-com:datatypes"><Description dt:dt="string">E-Prime Primary Realtime Clock</Description><StartTime><Timestamp dt:dt="int">0</Timestamp><DateUtc dt:dt="string">2015-08-07T12:55:43Z</DateUtc></StartTime><FrequencyChanges><FrequencyChange><Frequency dt:dt="r8">2612324</Frequency><Timestamp dt:dt="r8">41128746538</Timestamp><Current dt:dt="r8">0</Current><DateUtc dt:dt="string">2015-08-07T12:55:43Z</DateUtc></FrequencyChange></FrequencyChanges></Clock>\n	1 ver1_main_procedure-1-1	99.933	1.0.0.880	1	kg	-1820394410	prawa	1	2.0.10.182	08-07-2015	2015-08-07 12:55:43	14:55:43	kobieta	2.0.10.92	3	3	1	1																							d	{SPACE}		no	BlockProc1		BlockList									62	Cued	d	color_red.png		-1	6	393784	310																								75	prime_left.png	0	393374	0	0	13	0	393374	0	393374	1	393374	20	0	-1	391875	393374	393373	0		TrialProc1	left	0		0	10	393684	-393684		0	0	TrialList1	target_left.png	1	d	-1	3	393424	260	d	353	393777												1	1	62				comp			300
1 ver1_main_procedure	1	1	24	<?xml version="1.0"?>\n<Clock xmlns:dt="urn:schemas-microsoft-com:datatypes"><Description dt:dt="string">E-Prime Primary Realtime Clock</Description><StartTime><Timestamp dt:dt="int">0</Timestamp><DateUtc dt:dt="string">2015-08-07T12:55:43Z</DateUtc></StartTime><FrequencyChanges><FrequencyChange><Frequency dt:dt="r8">2612324</Frequency><Timestamp dt:dt="r8">41128746538</Timestamp><Current dt:dt="r8">0</Current><DateUtc dt:dt="string">2015-08-07T12:55:43Z</DateUtc></FrequencyChange></FrequencyChanges></Clock>\n	1 ver1_main_procedure-1-1	99.933	1.0.0.880	1	kg	-1820394410	prawa	1	2.0.10.182	08-07-2015	2015-08-07 12:55:43	14:55:43	kobieta	2.0.10.92	3	3	1	1																							d	{SPACE}		no	BlockProc1		BlockList									63	Cued	l	color_blue.png		-1	7	396345	311																			1					25	prime_left.png	0	395905	0	0	13	1	395906	1	395906	1	395905	20	0	-1	394406	395905	395904	0	prime_left.png	TrialProc1	right	0		1	10	396215	-396215		0	0	TrialList1	target_right.png	1	l	-1	3	395955	260	l	382	396337												5	1	63				neut			300
1 ver1_main_procedure	1	1	24	<?xml version="1.0"?>\n<Clock xmlns:dt="urn:schemas-microsoft-com:datatypes"><Description dt:dt="string">E-Prime Primary Realtime Clock</Description><StartTime><Timestamp dt:dt="int">0</Timestamp><DateUtc dt:dt="string">2015-08-07T12:55:43Z</DateUtc></StartTime><FrequencyChanges><FrequencyChange><Frequency dt:dt="r8">2612324</Frequency><Timestamp dt:dt="r8">41128746538</Timestamp><Current dt:dt="r8">0</Current><DateUtc dt:dt="string">2015-08-07T12:55:43Z</DateUtc></FrequencyChange></FrequencyChanges></Clock>\n	1 ver1_main_procedure-1-1	99.933	1.0.0.880	1	kg	-1820394410	prawa	1	2.0.10.182	08-07-2015	2015-08-07 12:55:43	14:55:43	kobieta	2.0.10.92	3	3	1	1																							d	{SPACE}		no	BlockProc1		BlockList									64	Cued	d	color_orange.png		-1	7	398857	460																								25	prime_right.png	0	398467	0	0	13	0	398467	0	398467	1	398467	20	0	-1	396968	398467	398466	0		TrialProc1	left	0		0	10	398777	-398777		0	0	TrialList1	target_left.png	1	d	-1	3	398517	260	d	332	398849												3	1	64				incomp			450
1 ver1_main_procedure	1	1	24	<?xml version="1.0"?>\n<Clock xmlns:dt="urn:schemas-microsoft-com:datatypes"><Description dt:dt="string">E-Prime Primary Realtime Clock</Description><StartTime><Timestamp dt:dt="int">0</Timestamp><DateUtc dt:dt="string">2015-08-07T12:55:43Z</DateUtc></StartTime><FrequencyChanges><FrequencyChange><Frequency dt:dt="r8">2612324</Frequency><Timestamp dt:dt="r8">41128746538</Timestamp><Current dt:dt="r8">0</Current><DateUtc dt:dt="string">2015-08-07T12:55:43Z</DateUtc></FrequencyChange></FrequencyChanges></Clock>\n	1 ver1_main_procedure-1-1	99.933	1.0.0.880	1	kg	-1820394410	prawa	1	2.0.10.182	08-07-2015	2015-08-07 12:55:43	14:55:43	kobieta	2.0.10.92	3	3	1	1																							d	{SPACE}		no	BlockProc1		BlockList									65	Cued	l	color_blue.png		-1	15	401489	160																			2					25	prime_right.png	0	401128	0	0	13	0	401128	0	401128	1	401128	20	0	-1	399629	401128	401127	0	prime_right.png	TrialProc1	right	0		1	10	401438	-401438		0	0	TrialList1	target_right.png	1	l	-1	3	401178	260	l	296	401474												5	1	65				neut			150
1 ver1_main_procedure	1	1	24	<?xml version="1.0"?>\n<Clock xmlns:dt="urn:schemas-microsoft-com:datatypes"><Description dt:dt="string">E-Prime Primary Realtime Clock</Description><StartTime><Timestamp dt:dt="int">0</Timestamp><DateUtc dt:dt="string">2015-08-07T12:55:43Z</DateUtc></StartTime><FrequencyChanges><FrequencyChange><Frequency dt:dt="r8">2612324</Frequency><Timestamp dt:dt="r8">41128746538</Timestamp><Current dt:dt="r8">0</Current><DateUtc dt:dt="string">2015-08-07T12:55:43Z</DateUtc></FrequencyChange></FrequencyChanges></Clock>\n	1 ver1_main_procedure-1-1	99.933	1.0.0.880	1	kg	-1820394410	prawa	1	2.0.10.182	08-07-2015	2015-08-07 12:55:43	14:55:43	kobieta	2.0.10.92	3	3	1	1																							d	{SPACE}		no	BlockProc1		BlockList									66	Cued	l	color_purple.png		-1	8	403890	310																								25	prime_left.png	0	403460	0	0	13	0	403460	0	403460	1	403460	20	0	-1	401961	403460	403459	0		TrialProc1	right	0		0	10	403770	-403770		0	0	TrialList1	target_right.png	1	l	-1	3	403510	260	l	372	403882												6	1	66				incomp			300
1 ver1_main_procedure	1	1	24	<?xml version="1.0"?>\n<Clock xmlns:dt="urn:schemas-microsoft-com:datatypes"><Description dt:dt="string">E-Prime Primary Realtime Clock</Description><StartTime><Timestamp dt:dt="int">0</Timestamp><DateUtc dt:dt="string">2015-08-07T12:55:43Z</DateUtc></StartTime><FrequencyChanges><FrequencyChange><Frequency dt:dt="r8">2612324</Frequency><Timestamp dt:dt="r8">41128746538</Timestamp><Current dt:dt="r8">0</Current><DateUtc dt:dt="string">2015-08-07T12:55:43Z</DateUtc></FrequencyChange></FrequencyChanges></Clock>\n	1 ver1_main_procedure-1-1	99.933	1.0.0.880	1	kg	-1820394410	prawa	1	2.0.10.182	08-07-2015	2015-08-07 12:55:43	14:55:43	kobieta	2.0.10.92	3	3	1	1																							d	{SPACE}		no	BlockProc1		BlockList									67	Cued	l	color_blue.png		-1	13	406511	461																			1					75	prime_left.png	0	406011	0	0	13	0	406011	0	406011	1	406011	20	0	-1	404512	406011	406010	0	prime_left.png	TrialProc1	right	0		0	10	406321	-406321		0	0	TrialList1	target_right.png	1	l	-1	3	406061	260	l	437	406498												5	1	67				neut			450
1 ver1_main_procedure	1	1	24	<?xml version="1.0"?>\n<Clock xmlns:dt="urn:schemas-microsoft-com:datatypes"><Description dt:dt="string">E-Prime Primary Realtime Clock</Description><StartTime><Timestamp dt:dt="int">0</Timestamp><DateUtc dt:dt="string">2015-08-07T12:55:43Z</DateUtc></StartTime><FrequencyChanges><FrequencyChange><Frequency dt:dt="r8">2612324</Frequency><Timestamp dt:dt="r8">41128746538</Timestamp><Current dt:dt="r8">0</Current><DateUtc dt:dt="string">2015-08-07T12:55:43Z</DateUtc></FrequencyChange></FrequencyChanges></Clock>\n	1 ver1_main_procedure-1-1	99.933	1.0.0.880	1	kg	-1820394410	prawa	1	2.0.10.182	08-07-2015	2015-08-07 12:55:43	14:55:43	kobieta	2.0.10.92	3	3	1	1																							d	{SPACE}		no	BlockProc1		BlockList									68	Cued	d	color_green.png		-1	11	409133	160																			2					75	prime_right.png	0	408783	0	0	13	0	408783	0	408783	1	408783	20	0	-1	407284	408783	408782	0	prime_right.png	TrialProc1	left	0		0	10	409093	-409093		0	0	TrialList1	target_left.png	1	d	-1	3	408833	260	d	289	409122												2	1	68				neut			150
1 ver1_main_procedure	1	1	24	<?xml version="1.0"?>\n<Clock xmlns:dt="urn:schemas-microsoft-com:datatypes"><Description dt:dt="string">E-Prime Primary Realtime Clock</Description><StartTime><Timestamp dt:dt="int">0</Timestamp><DateUtc dt:dt="string">2015-08-07T12:55:43Z</DateUtc></StartTime><FrequencyChanges><FrequencyChange><Frequency dt:dt="r8">2612324</Frequency><Timestamp dt:dt="r8">41128746538</Timestamp><Current dt:dt="r8">0</Current><DateUtc dt:dt="string">2015-08-07T12:55:43Z</DateUtc></FrequencyChange></FrequencyChanges></Clock>\n	1 ver1_main_procedure-1-1	99.933	1.0.0.880	1	kg	-1820394410	prawa	1	2.0.10.182	08-07-2015	2015-08-07 12:55:43	14:55:43	kobieta	2.0.10.92	3	3	1	1																							d	{SPACE}		no	BlockProc1		BlockList									69	Cued	d	color_red.png		-1	10	411524	461																								25	prime_left.png	0	411104	0	0	13	0	411104	0	411104	1	411104	20	0	-1	409605	411104	411103	0		TrialProc1	left	0		1	10	411414	-411414		0	0	TrialList1	target_left.png	1	d	-1	3	411154	260	d	360	411514												1	1	69				comp			450
1 ver1_main_procedure	1	1	24	<?xml version="1.0"?>\n<Clock xmlns:dt="urn:schemas-microsoft-com:datatypes"><Description dt:dt="string">E-Prime Primary Realtime Clock</Description><StartTime><Timestamp dt:dt="int">0</Timestamp><DateUtc dt:dt="string">2015-08-07T12:55:43Z</DateUtc></StartTime><FrequencyChanges><FrequencyChange><Frequency dt:dt="r8">2612324</Frequency><Timestamp dt:dt="r8">41128746538</Timestamp><Current dt:dt="r8">0</Current><DateUtc dt:dt="string">2015-08-07T12:55:43Z</DateUtc></FrequencyChange></FrequencyChanges></Clock>\n	1 ver1_main_procedure-1-1	99.933	1.0.0.880	1	kg	-1820394410	prawa	1	2.0.10.182	08-07-2015	2015-08-07 12:55:43	14:55:43	kobieta	2.0.10.92	3	3	1	1																							d	{SPACE}		no	BlockProc1		BlockList									70	Cued	l	color_blue.png		-1	12	414206	160																			1					75	prime_left.png	0	413796	0	0	13	0	413796	0	413796	1	413796	20	0	-1	412297	413796	413795	0	prime_left.png	TrialProc1	right	0		0	10	414106	-414106		0	0	TrialList1	target_right.png	1	l	-1	3	413846	260	l	348	414194												5	1	70				neut			150
1 ver1_main_procedure	1	1	24	<?xml version="1.0"?>\n<Clock xmlns:dt="urn:schemas-microsoft-com:datatypes"><Description dt:dt="string">E-Prime Primary Realtime Clock</Description><StartTime><Timestamp dt:dt="int">0</Timestamp><DateUtc dt:dt="string">2015-08-07T12:55:43Z</DateUtc></StartTime><FrequencyChanges><FrequencyChange><Frequency dt:dt="r8">2612324</Frequency><Timestamp dt:dt="r8">41128746538</Timestamp><Current dt:dt="r8">0</Current><DateUtc dt:dt="string">2015-08-07T12:55:43Z</DateUtc></FrequencyChange></FrequencyChanges></Clock>\n	1 ver1_main_procedure-1-1	99.933	1.0.0.880	1	kg	-1820394410	prawa	1	2.0.10.182	08-07-2015	2015-08-07 12:55:43	14:55:43	kobieta	2.0.10.92	3	3	1	1																							d	{SPACE}		no	BlockProc1		BlockList									71	Cued	l	color_purple.png		-1	5	416527	160																								75	prime_left.png	0	416177	0	0	13	0	416177	0	416177	1	416177	20	0	-1	414678	416177	416176	0		TrialProc1	right	0		1	10	416487	-416487		0	0	TrialList1	target_right.png	1	l	-1	3	416227	260	l	295	416522												6	1	71				incomp			150
1 ver1_main_procedure	1	1	24	<?xml version="1.0"?>\n<Clock xmlns:dt="urn:schemas-microsoft-com:datatypes"><Description dt:dt="string">E-Prime Primary Realtime Clock</Description><StartTime><Timestamp dt:dt="int">0</Timestamp><DateUtc dt:dt="string">2015-08-07T12:55:43Z</DateUtc></StartTime><FrequencyChanges><FrequencyChange><Frequency dt:dt="r8">2612324</Frequency><Timestamp dt:dt="r8">41128746538</Timestamp><Current dt:dt="r8">0</Current><DateUtc dt:dt="string">2015-08-07T12:55:43Z</DateUtc></FrequencyChange></FrequencyChanges></Clock>\n	1 ver1_main_procedure-1-1	99.933	1.0.0.880	1	kg	-1820394410	prawa	1	2.0.10.182	08-07-2015	2015-08-07 12:55:43	14:55:43	kobieta	2.0.10.92	3	3	1	1																							d	{SPACE}		no	BlockProc1		BlockList									72	Cued	l	color_blue.png		-1	7	418819	460																			2					75	prime_right.png	1	418499	0	0	13	1	418499	1	418499	0	418498	20	0	-1	416999	418498	418498	0	prime_right.png	TrialProc1	right	0		0	10	418809	-418809		0	0	TrialList1	target_right.png	1	l	-1	4	418549	260	l	263	418812												5	1	72				neut			450
1 ver1_main_procedure	1	1	24	<?xml version="1.0"?>\n<Clock xmlns:dt="urn:schemas-microsoft-com:datatypes"><Description dt:dt="string">E-Prime Primary Realtime Clock</Description><StartTime><Timestamp dt:dt="int">0</Timestamp><DateUtc dt:dt="string">2015-08-07T12:55:43Z</DateUtc></StartTime><FrequencyChanges><FrequencyChange><Frequency dt:dt="r8">2612324</Frequency><Timestamp dt:dt="r8">41128746538</Timestamp><Current dt:dt="r8">0</Current><DateUtc dt:dt="string">2015-08-07T12:55:43Z</DateUtc></FrequencyChange></FrequencyChanges></Clock>\n	1 ver1_main_procedure-1-1	99.933	1.0.0.880	1	kg	-1820394410	prawa	1	2.0.10.182	08-07-2015	2015-08-07 12:55:43	14:55:43	kobieta	2.0.10.92	3	3	1	1																							d	{SPACE}		no	BlockProc1		BlockList									73									3	5	4	1	2	6	color_green.png	color_purple.png	color_orange.png	color_red.png	color_blue.png	color_yellow.png	color_red.png	color_blue.png	color_green.png	color_orange.png	color_purple.png	color_yellow.png		1	1	1	35879																						DragProc											Ocena																															
1 ver1_main_procedure	1	1	24	<?xml version="1.0"?>\n<Clock xmlns:dt="urn:schemas-microsoft-com:datatypes"><Description dt:dt="string">E-Prime Primary Realtime Clock</Description><StartTime><Timestamp dt:dt="int">0</Timestamp><DateUtc dt:dt="string">2015-08-07T12:55:43Z</DateUtc></StartTime><FrequencyChanges><FrequencyChange><Frequency dt:dt="r8">2612324</Frequency><Timestamp dt:dt="r8">41128746538</Timestamp><Current dt:dt="r8">0</Current><DateUtc dt:dt="string">2015-08-07T12:55:43Z</DateUtc></FrequencyChange></FrequencyChanges></Clock>\n	1 ver1_main_procedure-1-1	99.933	1.0.0.880	1	kg	-1820394410	prawa	1	2.0.10.182	08-07-2015	2015-08-07 12:55:43	14:55:43	kobieta	2.0.10.92	3	3	1	1																							d	{SPACE}		no	BlockProc1		BlockList									74															color_green.png	color_purple.png	color_orange.png	color_red.png	color_blue.png	color_yellow.png								2	1	2																							EnterProc											Ocena												15	18	20	23	24	25														
1 ver1_main_procedure	1	1	24	<?xml version="1.0"?>\n<Clock xmlns:dt="urn:schemas-microsoft-com:datatypes"><Description dt:dt="string">E-Prime Primary Realtime Clock</Description><StartTime><Timestamp dt:dt="int">0</Timestamp><DateUtc dt:dt="string">2015-08-07T12:55:43Z</DateUtc></StartTime><FrequencyChanges><FrequencyChange><Frequency dt:dt="r8">2612324</Frequency><Timestamp dt:dt="r8">41128746538</Timestamp><Current dt:dt="r8">0</Current><DateUtc dt:dt="string">2015-08-07T12:55:43Z</DateUtc></FrequencyChange></FrequencyChanges></Clock>\n	1 ver1_main_procedure-1-1	99.933	1.0.0.880	1	kg	-1820394410	prawa	1	2.0.10.182	08-07-2015	2015-08-07 12:55:43	14:55:43	kobieta	2.0.10.92	4	6	1	2																							d	{SPACE}		no	BlockProc2		BlockList									1	Cued	l	color_purple.png		-1	8	657109	460																								75	prime_right.png	1	656619	0	0	13	1	656619	1	656619	1	656618	20	0	-1	655119	656618	656617	0		TrialProc1	right	0		0	11	656929	-656929		0	0	TrialList2	target_right.png	1	l	-1	3	656668	261	l	433	657101															4	1	1	comp			450
1 ver1_main_procedure	1	1	24	<?xml version="1.0"?>\n<Clock xmlns:dt="urn:schemas-microsoft-com:datatypes"><Description dt:dt="string">E-Prime Primary Realtime Clock</Description><StartTime><Timestamp dt:dt="int">0</Timestamp><DateUtc dt:dt="string">2015-08-07T12:55:43Z</DateUtc></StartTime><FrequencyChanges><FrequencyChange><Frequency dt:dt="r8">2612324</Frequency><Timestamp dt:dt="r8">41128746538</Timestamp><Current dt:dt="r8">0</Current><DateUtc dt:dt="string">2015-08-07T12:55:43Z</DateUtc></FrequencyChange></FrequencyChanges></Clock>\n	1 ver1_main_procedure-1-1	99.933	1.0.0.880	1	kg	-1820394410	prawa	1	2.0.10.182	08-07-2015	2015-08-07 12:55:43	14:55:43	kobieta	2.0.10.92	4	6	1	2																							d	{SPACE}		no	BlockProc2		BlockList									2	Free	dl	color_red.png		-1	9	659990	311																								25	prime_right.png	0	659380	0	0	13	0	659380	0	659380	1	659380	20	0	-1	657881	659380	659379	0		TrialProc1	right	0		0	10	659690	-659690		0	0	TrialList2	target_both.png	0	dl	-1	3	659430	260	d	551	659981															10	1	2	comp			300
1 ver1_main_procedure	1	1	24	<?xml version="1.0"?>\n<Clock xmlns:dt="urn:schemas-microsoft-com:datatypes"><Description dt:dt="string">E-Prime Primary Realtime Clock</Description><StartTime><Timestamp dt:dt="int">0</Timestamp><DateUtc dt:dt="string">2015-08-07T12:55:43Z</DateUtc></StartTime><FrequencyChanges><FrequencyChange><Frequency dt:dt="r8">2612324</Frequency><Timestamp dt:dt="r8">41128746538</Timestamp><Current dt:dt="r8">0</Current><DateUtc dt:dt="string">2015-08-07T12:55:43Z</DateUtc></FrequencyChange></FrequencyChanges></Clock>\n	1 ver1_main_procedure-1-1	99.933	1.0.0.880	1	kg	-1820394410	prawa	1	2.0.10.182	08-07-2015	2015-08-07 12:55:43	14:55:43	kobieta	2.0.10.92	4	6	1	2																							d	{SPACE}		no	BlockProc2		BlockList									3	Free	dl	color_blue.png		-1	15	662612	160																								75	prime_left.png	0	662112	0	0	13	0	662112	0	662112	1	662112	20	0	-1	660613	662112	662111	0		TrialProc1	left	0		0	10	662422	-662422		0	0	TrialList2	target_both.png	0	dl	-1	3	662162	260	l	435	662597															7	1	3	comp			150
1 ver1_main_procedure	1	1	24	<?xml version="1.0"?>\n<Clock xmlns:dt="urn:schemas-microsoft-com:datatypes"><Description dt:dt="string">E-Prime Primary Realtime Clock</Description><StartTime><Timestamp dt:dt="int">0</Timestamp><DateUtc dt:dt="string">2015-08-07T12:55:43Z</DateUtc></StartTime><FrequencyChanges><FrequencyChange><Frequency dt:dt="r8">2612324</Frequency><Timestamp dt:dt="r8">41128746538</Timestamp><Current dt:dt="r8">0</Current><DateUtc dt:dt="string">2015-08-07T12:55:43Z</DateUtc></FrequencyChange></FrequencyChanges></Clock>\n	1 ver1_main_procedure-1-1	99.933	1.0.0.880	1	kg	-1820394410	prawa	1	2.0.10.182	08-07-2015	2015-08-07 12:55:43	14:55:43	kobieta	2.0.10.92	4	6	1	2																							d	{SPACE}		no	BlockProc2		BlockList									4	Free	dl	color_red.png		-1	8	665013	461																								25	prime_right.png	0	664583	0	0	13	0	664583	0	664583	1	664583	20	0	-1	663084	664583	664582	0		TrialProc1	left	0		0	10	664893	-664893		0	0	TrialList2	target_both.png	0	dl	-1	3	664633	260	d	372	665005															9	1	4	incomp			450
1 ver1_main_procedure	1	1	24	<?xml version="1.0"?>\n<Clock xmlns:dt="urn:schemas-microsoft-com:datatypes"><Description dt:dt="string">E-Prime Primary Realtime Clock</Description><StartTime><Timestamp dt:dt="int">0</Timestamp><DateUtc dt:dt="string">2015-08-07T12:55:43Z</DateUtc></StartTime><FrequencyChanges><FrequencyChange><Frequency dt:dt="r8">2612324</Frequency><Timestamp dt:dt="r8">41128746538</Timestamp><Current dt:dt="r8">0</Current><DateUtc dt:dt="string">2015-08-07T12:55:43Z</DateUtc></FrequencyChange></FrequencyChanges></Clock>\n	1 ver1_main_procedure-1-1	99.933	1.0.0.880	1	kg	-1820394410	prawa	1	2.0.10.182	08-07-2015	2015-08-07 12:55:43	14:55:43	kobieta	2.0.10.92	4	6	1	2																							d	{SPACE}		no	BlockProc2		BlockList									5	Cued	d	color_green.png		-1	8	667725	460																								25	prime_left.png	0	667285	0	0	13	0	667285	0	667285	1	667285	20	0	-1	665785	667285	667284	0		TrialProc1	left	0		0	10	667595	-667595		0	0	TrialList2	target_left.png	1	d	-1	3	667335	260	d	382	667717															1	1	5	comp			450
1 ver1_main_procedure	1	1	24	<?xml version="1.0"?>\n<Clock xmlns:dt="urn:schemas-microsoft-com:datatypes"><Description dt:dt="string">E-Prime Primary Realtime Clock</Description><StartTime><Timestamp dt:dt="int">0</Timestamp><DateUtc dt:dt="string">2015-08-07T12:55:43Z</DateUtc></StartTime><FrequencyChanges><FrequencyChange><Frequency dt:dt="r8">2612324</Frequency><Timestamp dt:dt="r8">41128746538</Timestamp><Current dt:dt="r8">0</Current><DateUtc dt:dt="string">2015-08-07T12:55:43Z</DateUtc></FrequencyChange></FrequencyChanges></Clock>\n	1 ver1_main_procedure-1-1	99.933	1.0.0.880	1	kg	-1820394410	prawa	1	2.0.10.182	08-07-2015	2015-08-07 12:55:43	14:55:43	kobieta	2.0.10.92	4	6	1	2																							d	{SPACE}		no	BlockProc2		BlockList									6	Free	dl	color_green.png		-1	13	670547	160																								25	prime_left.png	0	669996	0	0	13	0	669996	0	669996	1	669996	20	0	-1	668497	669996	669995	0		TrialProc1	left	0		1	10	670306	-670306		0	0	TrialList2	target_both.png	0	dl	-1	3	670046	260	d	487	670533															7	1	6	comp			150
1 ver1_main_procedure	1	1	24	<?xml version="1.0"?>\n<Clock xmlns:dt="urn:schemas-microsoft-com:datatypes"><Description dt:dt="string">E-Prime Primary Realtime Clock</Description><StartTime><Timestamp dt:dt="int">0</Timestamp><DateUtc dt:dt="string">2015-08-07T12:55:43Z</DateUtc></StartTime><FrequencyChanges><FrequencyChange><Frequency dt:dt="r8">2612324</Frequency><Timestamp dt:dt="r8">41128746538</Timestamp><Current dt:dt="r8">0</Current><DateUtc dt:dt="string">2015-08-07T12:55:43Z</DateUtc></FrequencyChange></FrequencyChanges></Clock>\n	1 ver1_main_procedure-1-1	99.933	1.0.0.880	1	kg	-1820394410	prawa	1	2.0.10.182	08-07-2015	2015-08-07 12:55:43	14:55:43	kobieta	2.0.10.92	4	6	1	2																							d	{SPACE}		no	BlockProc2		BlockList									7	Free	dl	color_purple.png		-1	6	672948	160																								75	prime_right.png	0	672518	0	0	13	0	672518	0	672518	1	672518	20	0	-1	671019	672518	672517	0		TrialProc1	left	0		0	10	672828	-672828		0	0	TrialList2	target_both.png	0	dl	-1	3	672568	260	l	373	672941															9	1	7	incomp			150
1 ver1_main_procedure	1	1	24	<?xml version="1.0"?>\n<Clock xmlns:dt="urn:schemas-microsoft-com:datatypes"><Description dt:dt="string">E-Prime Primary Realtime Clock</Description><StartTime><Timestamp dt:dt="int">0</Timestamp><DateUtc dt:dt="string">2015-08-07T12:55:43Z</DateUtc></StartTime><FrequencyChanges><FrequencyChange><Frequency dt:dt="r8">2612324</Frequency><Timestamp dt:dt="r8">41128746538</Timestamp><Current dt:dt="r8">0</Current><DateUtc dt:dt="string">2015-08-07T12:55:43Z</DateUtc></FrequencyChange></FrequencyChanges></Clock>\n	1 ver1_main_procedure-1-1	99.933	1.0.0.880	1	kg	-1820394410	prawa	1	2.0.10.182	08-07-2015	2015-08-07 12:55:43	14:55:43	kobieta	2.0.10.92	4	6	1	2																							d	{SPACE}		no	BlockProc2		BlockList									8	Free	dl	color_yellow.png		-1	11	675369	311																			1					25	prime_left.png	0	674919	0	0	13	0	674919	0	674919	1	674919	20	0	-1	673420	674919	674918	0	prime_left.png	TrialProc1	right	0		0	10	675229	-675229		0	0	TrialList2	target_both.png	0	dl	-1	3	674969	260	d	388	675357															11	1	8	neut			300
1 ver1_main_procedure	1	1	24	<?xml version="1.0"?>\n<Clock xmlns:dt="urn:schemas-microsoft-com:datatypes"><Description dt:dt="string">E-Prime Primary Realtime Clock</Description><StartTime><Timestamp dt:dt="int">0</Timestamp><DateUtc dt:dt="string">2015-08-07T12:55:43Z</DateUtc></StartTime><FrequencyChanges><FrequencyChange><Frequency dt:dt="r8">2612324</Frequency><Timestamp dt:dt="r8">41128746538</Timestamp><Current dt:dt="r8">0</Current><DateUtc dt:dt="string">2015-08-07T12:55:43Z</DateUtc></FrequencyChange></FrequencyChanges></Clock>\n	1 ver1_main_procedure-1-1	99.933	1.0.0.880	1	kg	-1820394410	prawa	1	2.0.10.182	08-07-2015	2015-08-07 12:55:43	14:55:43	kobieta	2.0.10.92	4	6	1	2																							d	{SPACE}		no	BlockProc2		BlockList									9	Free	dl	color_purple.png		-1	5	677891	460																								25	prime_right.png	0	677491	0	0	13	0	677491	0	677491	1	677491	20	0	-1	675991	677491	677490	0		TrialProc1	right	0		0	10	677801	-677801		0	0	TrialList2	target_both.png	0	dl	-1	3	677541	260	l	344	677885															10	1	9	comp			450
