ExperimentName	Subject	Session	Age	Clock.Information	DataFile.Basename	Display.RefreshRate	ExperimentVersion	Group	Name	RandomSeed	Recznosc	ResearcherID	RuntimeVersion	SessionDate	SessionStartDateTimeUtc	SessionTime	Sex	StudioVersion	Block	BlockList	BlockList.Cycle	BlockList.Sample	BlockNumber	GoodBye.RESP	GoodBye2.RESP	GoodByeList	GoodByeList.Cycle	GoodByeList.Sample	InstrList	InstrList.Cycle	InstrList.Sample	Instructions3.RESP	Instructions4.RESP	Instructions5.RESP	kobieta_S1	kobieta_S2	kobieta_S3	kobieta_S4	kobieta_S5	mezczyzna_S1	mezczyzna_S2	mezczyzna_S3	mezczyzna_S4	mezczyzna_S5	NextBlock.RESP	NextBlock0.RESP	planowanie	PracticeMode	Procedure[Block]	proszenie	Running[Block]	TrainingList	TrainingList.Cycle	TrainingList.Sample	WordList	WordList1	wykonanie	zauwazenie	zrozumienie	Trial	ChoiceType	CorrectRespon	Effect	ErrorText	Fixation2.DurationError	Fixation2.OnsetDelay	Fixation2.OnsetTime	Fixation2.OnsetToOnsetTime	GoalRespInd1	GoalRespInd2	GoalRespInd3	GoalRespInd4	GoalRespInd5	GoalRespInd6	GoalRespName1	GoalRespName2	GoalRespName3	GoalRespName4	GoalRespName5	GoalRespName6	kol1	kol2	kol3	kol4	kol5	kol6	NeutralPrimeList1	Ocena	Ocena.Cycle	Ocena.Sample	OverallRT	Posit	Prime	Prime.ActionDelay	Prime.ActionTime	Prime.CustomOffsetTime	Prime.CustomOnsetTime	Prime.Duration	Prime.DurationError	Prime.FinishTime	Prime.OffsetDelay	Prime.OffsetTime	Prime.OnsetDelay	Prime.OnsetTime	Prime.OnsetToOnsetTime	Prime.PendingInputMasks	Prime.PreRelease	Prime.StartTime	Prime.TargetOffsetTime	Prime.TargetOnsetTime	Prime.TimingMode	PrimeChoice	Procedure[Trial]	Resp	RespWin.ACC	RespWin.CRESP	RespWin.DurationError	RespWin.OnsetDelay	RespWin.OnsetTime	RespWin.OnsetToOnsetTime	RespWin.RESP	RespWin.RT	RespWin.RTTime	Running[Trial]	Target	TargetSlide.ACC	TargetSlide.CRESP	TargetSlide.DurationError	TargetSlide.OnsetDelay	TargetSlide.OnsetTime	TargetSlide.OnsetToOnsetTime	TargetSlide.RESP	TargetSlide.RT	TargetSlide.RTTime	TargetTraining	TBox1	TBox2	TBox3	TBox4	TBox5	TBox6	TrainingList1	TrainingList1.Cycle	TrainingList1.Sample	TrCorrectResp	TrialList1	TrialList1.Cycle	TrialList1.Sample	TrialList2	TrialList2.Cycle	TrialList2.Sample	TrialType	TrPosit	TrWaitTime	WaitTime
1 ver1_main_procedure	15	1	21	<?xml version="1.0"?>\n<Clock xmlns:dt="urn:schemas-microsoft-com:datatypes"><Description dt:dt="string">E-Prime Primary Realtime Clock</Description><StartTime><Timestamp dt:dt="int">0</Timestamp><DateUtc dt:dt="string">2015-08-12T11:02:48Z</DateUtc></StartTime><FrequencyChanges><FrequencyChange><Frequency dt:dt="r8">2441416</Frequency><Timestamp dt:dt="r8">5769833900</Timestamp><Current dt:dt="r8">0</Current><DateUtc dt:dt="string">2015-08-12T11:02:48Z</DateUtc></FrequencyChange></FrequencyChanges></Clock>\n	1 ver1_main_procedure-15-1	99.927	1.0.0.880	1	hs	1475352094	prawa	1	2.0.10.356	08-12-2015	2015-08-12 11:02:49	13:02:49	mezczyzna	2.0.10.92	1										1	1	1	{SPACE}	{SPACE}	l	poproszona	planowała	zrozumiałaś	wykonała		poproszony	planował	zrozumiałeś	wykonał				planował		InstrProc	poproszony	InstrList				1		wykonał		zrozumiałeś																																																																																																
1 ver1_main_procedure	15	1	21	<?xml version="1.0"?>\n<Clock xmlns:dt="urn:schemas-microsoft-com:datatypes"><Description dt:dt="string">E-Prime Primary Realtime Clock</Description><StartTime><Timestamp dt:dt="int">0</Timestamp><DateUtc dt:dt="string">2015-08-12T11:02:48Z</DateUtc></StartTime><FrequencyChanges><FrequencyChange><Frequency dt:dt="r8">2441416</Frequency><Timestamp dt:dt="r8">5769833900</Timestamp><Current dt:dt="r8">0</Current><DateUtc dt:dt="string">2015-08-12T11:02:48Z</DateUtc></FrequencyChange></FrequencyChanges></Clock>\n	1 ver1_main_procedure-15-1	99.927	1.0.0.880	1	hs	1475352094	prawa	1	2.0.10.356	08-12-2015	2015-08-12 11:02:49	13:02:49	mezczyzna	2.0.10.92	2																														TrainingProc1		TrainingList	1	1	1						1																																																					TrainProc											TrainingList1											target_right.png							2	1	1	l								25	150	
1 ver1_main_procedure	15	1	21	<?xml version="1.0"?>\n<Clock xmlns:dt="urn:schemas-microsoft-com:datatypes"><Description dt:dt="string">E-Prime Primary Realtime Clock</Description><StartTime><Timestamp dt:dt="int">0</Timestamp><DateUtc dt:dt="string">2015-08-12T11:02:48Z</DateUtc></StartTime><FrequencyChanges><FrequencyChange><Frequency dt:dt="r8">2441416</Frequency><Timestamp dt:dt="r8">5769833900</Timestamp><Current dt:dt="r8">0</Current><DateUtc dt:dt="string">2015-08-12T11:02:48Z</DateUtc></FrequencyChange></FrequencyChanges></Clock>\n	1 ver1_main_procedure-15-1	99.927	1.0.0.880	1	hs	1475352094	prawa	1	2.0.10.356	08-12-2015	2015-08-12 11:02:49	13:02:49	mezczyzna	2.0.10.92	2																														TrainingProc1		TrainingList	1	1	1						2																																																					TrainProc											TrainingList1											target_left.png							1	1	2	d								75	300	
1 ver1_main_procedure	15	1	21	<?xml version="1.0"?>\n<Clock xmlns:dt="urn:schemas-microsoft-com:datatypes"><Description dt:dt="string">E-Prime Primary Realtime Clock</Description><StartTime><Timestamp dt:dt="int">0</Timestamp><DateUtc dt:dt="string">2015-08-12T11:02:48Z</DateUtc></StartTime><FrequencyChanges><FrequencyChange><Frequency dt:dt="r8">2441416</Frequency><Timestamp dt:dt="r8">5769833900</Timestamp><Current dt:dt="r8">0</Current><DateUtc dt:dt="string">2015-08-12T11:02:48Z</DateUtc></FrequencyChange></FrequencyChanges></Clock>\n	1 ver1_main_procedure-15-1	99.927	1.0.0.880	1	hs	1475352094	prawa	1	2.0.10.356	08-12-2015	2015-08-12 11:02:49	13:02:49	mezczyzna	2.0.10.92	2																														TrainingProc1		TrainingList	1	1	1						3																																																					TrainProc											TrainingList1											target_left.png							1	1	3	d								25	300	
1 ver1_main_procedure	15	1	21	<?xml version="1.0"?>\n<Clock xmlns:dt="urn:schemas-microsoft-com:datatypes"><Description dt:dt="string">E-Prime Primary Realtime Clock</Description><StartTime><Timestamp dt:dt="int">0</Timestamp><DateUtc dt:dt="string">2015-08-12T11:02:48Z</DateUtc></StartTime><FrequencyChanges><FrequencyChange><Frequency dt:dt="r8">2441416</Frequency><Timestamp dt:dt="r8">5769833900</Timestamp><Current dt:dt="r8">0</Current><DateUtc dt:dt="string">2015-08-12T11:02:48Z</DateUtc></FrequencyChange></FrequencyChanges></Clock>\n	1 ver1_main_procedure-15-1	99.927	1.0.0.880	1	hs	1475352094	prawa	1	2.0.10.356	08-12-2015	2015-08-12 11:02:49	13:02:49	mezczyzna	2.0.10.92	2																														TrainingProc1		TrainingList	1	1	1						4																																																					TrainProc											TrainingList1											target_both.png							3	1	4	dl								25	150	
1 ver1_main_procedure	15	1	21	<?xml version="1.0"?>\n<Clock xmlns:dt="urn:schemas-microsoft-com:datatypes"><Description dt:dt="string">E-Prime Primary Realtime Clock</Description><StartTime><Timestamp dt:dt="int">0</Timestamp><DateUtc dt:dt="string">2015-08-12T11:02:48Z</DateUtc></StartTime><FrequencyChanges><FrequencyChange><Frequency dt:dt="r8">2441416</Frequency><Timestamp dt:dt="r8">5769833900</Timestamp><Current dt:dt="r8">0</Current><DateUtc dt:dt="string">2015-08-12T11:02:48Z</DateUtc></FrequencyChange></FrequencyChanges></Clock>\n	1 ver1_main_procedure-15-1	99.927	1.0.0.880	1	hs	1475352094	prawa	1	2.0.10.356	08-12-2015	2015-08-12 11:02:49	13:02:49	mezczyzna	2.0.10.92	2																														TrainingProc1		TrainingList	1	1	1						5																																																					TrainProc											TrainingList1											target_both.png							3	1	5	dl								75	450	
1 ver1_main_procedure	15	1	21	<?xml version="1.0"?>\n<Clock xmlns:dt="urn:schemas-microsoft-com:datatypes"><Description dt:dt="string">E-Prime Primary Realtime Clock</Description><StartTime><Timestamp dt:dt="int">0</Timestamp><DateUtc dt:dt="string">2015-08-12T11:02:48Z</DateUtc></StartTime><FrequencyChanges><FrequencyChange><Frequency dt:dt="r8">2441416</Frequency><Timestamp dt:dt="r8">5769833900</Timestamp><Current dt:dt="r8">0</Current><DateUtc dt:dt="string">2015-08-12T11:02:48Z</DateUtc></FrequencyChange></FrequencyChanges></Clock>\n	1 ver1_main_procedure-15-1	99.927	1.0.0.880	1	hs	1475352094	prawa	1	2.0.10.356	08-12-2015	2015-08-12 11:02:49	13:02:49	mezczyzna	2.0.10.92	2																														TrainingProc1		TrainingList	1	1	1						6																																																					TrainProc											TrainingList1											target_left.png							1	1	6	d								25	300	
1 ver1_main_procedure	15	1	21	<?xml version="1.0"?>\n<Clock xmlns:dt="urn:schemas-microsoft-com:datatypes"><Description dt:dt="string">E-Prime Primary Realtime Clock</Description><StartTime><Timestamp dt:dt="int">0</Timestamp><DateUtc dt:dt="string">2015-08-12T11:02:48Z</DateUtc></StartTime><FrequencyChanges><FrequencyChange><Frequency dt:dt="r8">2441416</Frequency><Timestamp dt:dt="r8">5769833900</Timestamp><Current dt:dt="r8">0</Current><DateUtc dt:dt="string">2015-08-12T11:02:48Z</DateUtc></FrequencyChange></FrequencyChanges></Clock>\n	1 ver1_main_procedure-15-1	99.927	1.0.0.880	1	hs	1475352094	prawa	1	2.0.10.356	08-12-2015	2015-08-12 11:02:49	13:02:49	mezczyzna	2.0.10.92	2																														TrainingProc1		TrainingList	1	1	1						7																																																					TrainProc											TrainingList1											target_right.png							2	1	7	l								25	150	
1 ver1_main_procedure	15	1	21	<?xml version="1.0"?>\n<Clock xmlns:dt="urn:schemas-microsoft-com:datatypes"><Description dt:dt="string">E-Prime Primary Realtime Clock</Description><StartTime><Timestamp dt:dt="int">0</Timestamp><DateUtc dt:dt="string">2015-08-12T11:02:48Z</DateUtc></StartTime><FrequencyChanges><FrequencyChange><Frequency dt:dt="r8">2441416</Frequency><Timestamp dt:dt="r8">5769833900</Timestamp><Current dt:dt="r8">0</Current><DateUtc dt:dt="string">2015-08-12T11:02:48Z</DateUtc></FrequencyChange></FrequencyChanges></Clock>\n	1 ver1_main_procedure-15-1	99.927	1.0.0.880	1	hs	1475352094	prawa	1	2.0.10.356	08-12-2015	2015-08-12 11:02:49	13:02:49	mezczyzna	2.0.10.92	2																														TrainingProc1		TrainingList	1	1	1						8																																																					TrainProc											TrainingList1											target_both.png							3	1	8	dl								25	150	
1 ver1_main_procedure	15	1	21	<?xml version="1.0"?>\n<Clock xmlns:dt="urn:schemas-microsoft-com:datatypes"><Description dt:dt="string">E-Prime Primary Realtime Clock</Description><StartTime><Timestamp dt:dt="int">0</Timestamp><DateUtc dt:dt="string">2015-08-12T11:02:48Z</DateUtc></StartTime><FrequencyChanges><FrequencyChange><Frequency dt:dt="r8">2441416</Frequency><Timestamp dt:dt="r8">5769833900</Timestamp><Current dt:dt="r8">0</Current><DateUtc dt:dt="string">2015-08-12T11:02:48Z</DateUtc></FrequencyChange></FrequencyChanges></Clock>\n	1 ver1_main_procedure-15-1	99.927	1.0.0.880	1	hs	1475352094	prawa	1	2.0.10.356	08-12-2015	2015-08-12 11:02:49	13:02:49	mezczyzna	2.0.10.92	2																														TrainingProc1		TrainingList	1	1	1						9																																																					TrainProc											TrainingList1											target_right.png							2	1	9	l								75	150	
1 ver1_main_procedure	15	1	21	<?xml version="1.0"?>\n<Clock xmlns:dt="urn:schemas-microsoft-com:datatypes"><Description dt:dt="string">E-Prime Primary Realtime Clock</Description><StartTime><Timestamp dt:dt="int">0</Timestamp><DateUtc dt:dt="string">2015-08-12T11:02:48Z</DateUtc></StartTime><FrequencyChanges><FrequencyChange><Frequency dt:dt="r8">2441416</Frequency><Timestamp dt:dt="r8">5769833900</Timestamp><Current dt:dt="r8">0</Current><DateUtc dt:dt="string">2015-08-12T11:02:48Z</DateUtc></FrequencyChange></FrequencyChanges></Clock>\n	1 ver1_main_procedure-15-1	99.927	1.0.0.880	1	hs	1475352094	prawa	1	2.0.10.356	08-12-2015	2015-08-12 11:02:49	13:02:49	mezczyzna	2.0.10.92	3	5	1	1																							d	{SPACE}		no	BlockProc2		BlockList									1	Cued	l	color_yellow.png		0	13	186796	320																								75	prime_left.png	0	186205	0	0	13	0	186205	0	186205	1	186205	20	0	-1	184706	186205	186204	0		TrialProc1	right	0		0	20	186525	-186525		0	0	TrialList2	target_right.png	1	l	0	3	186255	270	l	528	186783															6	1	1	incomp			300
1 ver1_main_procedure	15	1	21	<?xml version="1.0"?>\n<Clock xmlns:dt="urn:schemas-microsoft-com:datatypes"><Description dt:dt="string">E-Prime Primary Realtime Clock</Description><StartTime><Timestamp dt:dt="int">0</Timestamp><DateUtc dt:dt="string">2015-08-12T11:02:48Z</DateUtc></StartTime><FrequencyChanges><FrequencyChange><Frequency dt:dt="r8">2441416</Frequency><Timestamp dt:dt="r8">5769833900</Timestamp><Current dt:dt="r8">0</Current><DateUtc dt:dt="string">2015-08-12T11:02:48Z</DateUtc></FrequencyChange></FrequencyChanges></Clock>\n	1 ver1_main_procedure-15-1	99.927	1.0.0.880	1	hs	1475352094	prawa	1	2.0.10.356	08-12-2015	2015-08-12 11:02:49	13:02:49	mezczyzna	2.0.10.92	3	5	1	1																							d	{SPACE}		no	BlockProc2		BlockList									2	Free	dl	color_orange.png		0	8	189648	160																			2					75	prime_right.png	0	188927	0	0	13	0	188927	0	188927	1	188927	20	0	-1	187428	188927	188926	0	prime_right.png	TrialProc1	left	0		0	10	189237	-189237		0	0	TrialList2	target_both.png	0	dl	0	3	188977	260	l	663	189640															8	1	2	neut			150
1 ver1_main_procedure	15	1	21	<?xml version="1.0"?>\n<Clock xmlns:dt="urn:schemas-microsoft-com:datatypes"><Description dt:dt="string">E-Prime Primary Realtime Clock</Description><StartTime><Timestamp dt:dt="int">0</Timestamp><DateUtc dt:dt="string">2015-08-12T11:02:48Z</DateUtc></StartTime><FrequencyChanges><FrequencyChange><Frequency dt:dt="r8">2441416</Frequency><Timestamp dt:dt="r8">5769833900</Timestamp><Current dt:dt="r8">0</Current><DateUtc dt:dt="string">2015-08-12T11:02:48Z</DateUtc></FrequencyChange></FrequencyChanges></Clock>\n	1 ver1_main_procedure-15-1	99.927	1.0.0.880	1	hs	1475352094	prawa	1	2.0.10.356	08-12-2015	2015-08-12 11:02:49	13:02:49	mezczyzna	2.0.10.92	3	5	1	1																							d	{SPACE}		no	BlockProc2		BlockList									3	Cued	l	color_yellow.png		0	13	191979	161																								75	prime_left.png	0	191619	0	0	13	0	191619	0	191619	1	191619	20	0	-1	190120	191619	191618	0		TrialProc1	right	0		1	10	191929	-191929		0	0	TrialList2	target_right.png	1	l	0	3	191669	260	l	297	191966															6	1	3	incomp			150
1 ver1_main_procedure	15	1	21	<?xml version="1.0"?>\n<Clock xmlns:dt="urn:schemas-microsoft-com:datatypes"><Description dt:dt="string">E-Prime Primary Realtime Clock</Description><StartTime><Timestamp dt:dt="int">0</Timestamp><DateUtc dt:dt="string">2015-08-12T11:02:48Z</DateUtc></StartTime><FrequencyChanges><FrequencyChange><Frequency dt:dt="r8">2441416</Frequency><Timestamp dt:dt="r8">5769833900</Timestamp><Current dt:dt="r8">0</Current><DateUtc dt:dt="string">2015-08-12T11:02:48Z</DateUtc></FrequencyChange></FrequencyChanges></Clock>\n	1 ver1_main_procedure-15-1	99.927	1.0.0.880	1	hs	1475352094	prawa	1	2.0.10.356	08-12-2015	2015-08-12 11:02:49	13:02:49	mezczyzna	2.0.10.92	3	5	1	1																							d	{SPACE}		no	BlockProc2		BlockList									4	Free	dl	color_red.png		0	5	194371	310																								75	prime_right.png	0	193951	0	0	13	0	193951	0	193951	1	193951	20	0	-1	192452	193951	193950	0		TrialProc1	right	0		0	10	194261	-194261		0	0	TrialList2	target_both.png	0	dl	0	3	194001	260	d	365	194366															10	1	4	comp			300
1 ver1_main_procedure	15	1	21	<?xml version="1.0"?>\n<Clock xmlns:dt="urn:schemas-microsoft-com:datatypes"><Description dt:dt="string">E-Prime Primary Realtime Clock</Description><StartTime><Timestamp dt:dt="int">0</Timestamp><DateUtc dt:dt="string">2015-08-12T11:02:48Z</DateUtc></StartTime><FrequencyChanges><FrequencyChange><Frequency dt:dt="r8">2441416</Frequency><Timestamp dt:dt="r8">5769833900</Timestamp><Current dt:dt="r8">0</Current><DateUtc dt:dt="string">2015-08-12T11:02:48Z</DateUtc></FrequencyChange></FrequencyChanges></Clock>\n	1 ver1_main_procedure-15-1	99.927	1.0.0.880	1	hs	1475352094	prawa	1	2.0.10.356	08-12-2015	2015-08-12 11:02:49	13:02:49	mezczyzna	2.0.10.92	3	5	1	1																							d	{SPACE}		no	BlockProc2		BlockList									5	Free	dl	color_purple.png		0	13	196783	160																			1					25	prime_left.png	0	196493	0	0	13	0	196493	0	196493	1	196493	20	0	-1	194994	196493	196492	0	prime_left.png	TrialProc1	right	0		0	0	0	0		0	0	TrialList2	target_both.png	0	dl	-999999	3	196543	0	d	227	196770															11	1	5	neut			150
1 ver1_main_procedure	15	1	21	<?xml version="1.0"?>\n<Clock xmlns:dt="urn:schemas-microsoft-com:datatypes"><Description dt:dt="string">E-Prime Primary Realtime Clock</Description><StartTime><Timestamp dt:dt="int">0</Timestamp><DateUtc dt:dt="string">2015-08-12T11:02:48Z</DateUtc></StartTime><FrequencyChanges><FrequencyChange><Frequency dt:dt="r8">2441416</Frequency><Timestamp dt:dt="r8">5769833900</Timestamp><Current dt:dt="r8">0</Current><DateUtc dt:dt="string">2015-08-12T11:02:48Z</DateUtc></FrequencyChange></FrequencyChanges></Clock>\n	1 ver1_main_procedure-15-1	99.927	1.0.0.880	1	hs	1475352094	prawa	1	2.0.10.356	08-12-2015	2015-08-12 11:02:49	13:02:49	mezczyzna	2.0.10.92	3	5	1	1																							d	{SPACE}		no	BlockProc2		BlockList									6	Cued	l	color_blue.png		0	13	198995	310																								75	prime_right.png	0	198754	0	0	13	1	198755	1	198755	1	198754	20	0	-1	197256	198754	198753	0		TrialProc1	right	0		0	0	0	0		0	0	TrialList2	target_right.png	1	l	-999999	4	198805	0	l	177	198982															4	1	6	comp			300
1 ver1_main_procedure	15	1	21	<?xml version="1.0"?>\n<Clock xmlns:dt="urn:schemas-microsoft-com:datatypes"><Description dt:dt="string">E-Prime Primary Realtime Clock</Description><StartTime><Timestamp dt:dt="int">0</Timestamp><DateUtc dt:dt="string">2015-08-12T11:02:48Z</DateUtc></StartTime><FrequencyChanges><FrequencyChange><Frequency dt:dt="r8">2441416</Frequency><Timestamp dt:dt="r8">5769833900</Timestamp><Current dt:dt="r8">0</Current><DateUtc dt:dt="string">2015-08-12T11:02:48Z</DateUtc></FrequencyChange></FrequencyChanges></Clock>\n	1 ver1_main_procedure-15-1	99.927	1.0.0.880	1	hs	1475352094	prawa	1	2.0.10.356	08-12-2015	2015-08-12 11:02:49	13:02:49	mezczyzna	2.0.10.92	3	5	1	1																							d	{SPACE}		no	BlockProc2		BlockList									7	Free	dl	color_green.png		0	12	201406	161																								25	prime_left.png	0	201116	0	0	13	0	201116	0	201116	1	201116	20	0	-1	199617	201116	201115	0		TrialProc1	right	0		0	0	0	0		0	0	TrialList2	target_both.png	0	dl	-999999	3	201166	0	d	228	201394															12	1	7	incomp			150
1 ver1_main_procedure	15	1	21	<?xml version="1.0"?>\n<Clock xmlns:dt="urn:schemas-microsoft-com:datatypes"><Description dt:dt="string">E-Prime Primary Realtime Clock</Description><StartTime><Timestamp dt:dt="int">0</Timestamp><DateUtc dt:dt="string">2015-08-12T11:02:48Z</DateUtc></StartTime><FrequencyChanges><FrequencyChange><Frequency dt:dt="r8">2441416</Frequency><Timestamp dt:dt="r8">5769833900</Timestamp><Current dt:dt="r8">0</Current><DateUtc dt:dt="string">2015-08-12T11:02:48Z</DateUtc></FrequencyChange></FrequencyChanges></Clock>\n	1 ver1_main_procedure-15-1	99.927	1.0.0.880	1	hs	1475352094	prawa	1	2.0.10.356	08-12-2015	2015-08-12 11:02:49	13:02:49	mezczyzna	2.0.10.92	3	5	1	1																							d	{SPACE}		no	BlockProc2		BlockList									8	Free	dl	color_yellow.png		0	12	203768	160																								25	prime_left.png	0	203378	0	0	13	0	203378	0	203378	1	203378	20	0	-1	201879	203378	203377	0		TrialProc1	left	0		0	10	203688	-203688		0	0	TrialList2	target_both.png	0	dl	0	3	203428	260	l	328	203756															7	1	8	comp			150
1 ver1_main_procedure	15	1	21	<?xml version="1.0"?>\n<Clock xmlns:dt="urn:schemas-microsoft-com:datatypes"><Description dt:dt="string">E-Prime Primary Realtime Clock</Description><StartTime><Timestamp dt:dt="int">0</Timestamp><DateUtc dt:dt="string">2015-08-12T11:02:48Z</DateUtc></StartTime><FrequencyChanges><FrequencyChange><Frequency dt:dt="r8">2441416</Frequency><Timestamp dt:dt="r8">5769833900</Timestamp><Current dt:dt="r8">0</Current><DateUtc dt:dt="string">2015-08-12T11:02:48Z</DateUtc></FrequencyChange></FrequencyChanges></Clock>\n	1 ver1_main_procedure-15-1	99.927	1.0.0.880	1	hs	1475352094	prawa	1	2.0.10.356	08-12-2015	2015-08-12 11:02:49	13:02:49	mezczyzna	2.0.10.92	3	5	1	1																							d	{SPACE}		no	BlockProc2		BlockList									9	Free	dl	color_purple.png		0	13	205980	310																			2					25	prime_right.png	0	205740	0	0	13	0	205740	0	205740	2	205740	20	0	-1	204241	205740	205738	0	prime_right.png	TrialProc1	right	0		0	0	0	0		0	0	TrialList2	target_both.png	0	dl	-999999	3	205790	0	d	177	205967															11	1	9	neut			300
1 ver1_main_procedure	15	1	21	<?xml version="1.0"?>\n<Clock xmlns:dt="urn:schemas-microsoft-com:datatypes"><Description dt:dt="string">E-Prime Primary Realtime Clock</Description><StartTime><Timestamp dt:dt="int">0</Timestamp><DateUtc dt:dt="string">2015-08-12T11:02:48Z</DateUtc></StartTime><FrequencyChanges><FrequencyChange><Frequency dt:dt="r8">2441416</Frequency><Timestamp dt:dt="r8">5769833900</Timestamp><Current dt:dt="r8">0</Current><DateUtc dt:dt="string">2015-08-12T11:02:48Z</DateUtc></FrequencyChange></FrequencyChanges></Clock>\n	1 ver1_main_procedure-15-1	99.927	1.0.0.880	1	hs	1475352094	prawa	1	2.0.10.356	08-12-2015	2015-08-12 11:02:49	13:02:49	mezczyzna	2.0.10.92	3	5	1	1																							d	{SPACE}		no	BlockProc2		BlockList									10	Free	dl	color_orange.png		0	10	208422	160																			1					25	prime_left.png	0	208101	0	0	13	1	208102	1	208102	1	208101	20	0	-1	206602	208101	208100	0	prime_left.png	TrialProc1	left	0		-999999	11	208412	0		0	0	TrialList2	target_both.png	0	dl	0	3	208151	0	l	251	208402															8	1	10	neut			150
1 ver1_main_procedure	15	1	21	<?xml version="1.0"?>\n<Clock xmlns:dt="urn:schemas-microsoft-com:datatypes"><Description dt:dt="string">E-Prime Primary Realtime Clock</Description><StartTime><Timestamp dt:dt="int">0</Timestamp><DateUtc dt:dt="string">2015-08-12T11:02:48Z</DateUtc></StartTime><FrequencyChanges><FrequencyChange><Frequency dt:dt="r8">2441416</Frequency><Timestamp dt:dt="r8">5769833900</Timestamp><Current dt:dt="r8">0</Current><DateUtc dt:dt="string">2015-08-12T11:02:48Z</DateUtc></FrequencyChange></FrequencyChanges></Clock>\n	1 ver1_main_procedure-15-1	99.927	1.0.0.880	1	hs	1475352094	prawa	1	2.0.10.356	08-12-2015	2015-08-12 11:02:49	13:02:49	mezczyzna	2.0.10.92	3	5	1	1																							d	{SPACE}		no	BlockProc2		BlockList									11	Free	dl	color_red.png		0	11	210693	311																								25	prime_right.png	0	210393	0	0	13	0	210393	0	210393	1	210393	20	0	-1	208894	210393	210392	0		TrialProc1	right	0		0	0	0	0		0	0	TrialList2	target_both.png	0	dl	-999999	3	210443	0	d	239	210682															10	1	11	comp			300
1 ver1_main_procedure	15	1	21	<?xml version="1.0"?>\n<Clock xmlns:dt="urn:schemas-microsoft-com:datatypes"><Description dt:dt="string">E-Prime Primary Realtime Clock</Description><StartTime><Timestamp dt:dt="int">0</Timestamp><DateUtc dt:dt="string">2015-08-12T11:02:48Z</DateUtc></StartTime><FrequencyChanges><FrequencyChange><Frequency dt:dt="r8">2441416</Frequency><Timestamp dt:dt="r8">5769833900</Timestamp><Current dt:dt="r8">0</Current><DateUtc dt:dt="string">2015-08-12T11:02:48Z</DateUtc></FrequencyChange></FrequencyChanges></Clock>\n	1 ver1_main_procedure-15-1	99.927	1.0.0.880	1	hs	1475352094	prawa	1	2.0.10.356	08-12-2015	2015-08-12 11:02:49	13:02:49	mezczyzna	2.0.10.92	3	5	1	1																							d	{SPACE}		no	BlockProc2		BlockList									12	Free	dl	color_yellow.png		0	15	213035	310																								25	prime_left.png	0	212815	0	0	13	0	212815	0	212815	1	212815	20	0	-1	211316	212815	212814	0		TrialProc1	right	0		0	0	0	0		0	0	TrialList2	target_both.png	0	dl	-999999	3	212865	0	l	155	213020															12	1	12	incomp			300
1 ver1_main_procedure	15	1	21	<?xml version="1.0"?>\n<Clock xmlns:dt="urn:schemas-microsoft-com:datatypes"><Description dt:dt="string">E-Prime Primary Realtime Clock</Description><StartTime><Timestamp dt:dt="int">0</Timestamp><DateUtc dt:dt="string">2015-08-12T11:02:48Z</DateUtc></StartTime><FrequencyChanges><FrequencyChange><Frequency dt:dt="r8">2441416</Frequency><Timestamp dt:dt="r8">5769833900</Timestamp><Current dt:dt="r8">0</Current><DateUtc dt:dt="string">2015-08-12T11:02:48Z</DateUtc></FrequencyChange></FrequencyChanges></Clock>\n	1 ver1_main_procedure-15-1	99.927	1.0.0.880	1	hs	1475352094	prawa	1	2.0.10.356	08-12-2015	2015-08-12 11:02:49	13:02:49	mezczyzna	2.0.10.92	3	5	1	1																							d	{SPACE}		no	BlockProc2		BlockList									13	Free	dl	color_red.png		0	13	215767	310																								25	prime_right.png	0	215157	0	0	13	0	215157	0	215157	1	215157	20	0	-1	213658	215157	215156	0		TrialProc1	right	0		0	10	215467	-215467		0	0	TrialList2	target_both.png	0	dl	0	3	215207	260	d	547	215754															10	1	13	comp			300
1 ver1_main_procedure	15	1	21	<?xml version="1.0"?>\n<Clock xmlns:dt="urn:schemas-microsoft-com:datatypes"><Description dt:dt="string">E-Prime Primary Realtime Clock</Description><StartTime><Timestamp dt:dt="int">0</Timestamp><DateUtc dt:dt="string">2015-08-12T11:02:48Z</DateUtc></StartTime><FrequencyChanges><FrequencyChange><Frequency dt:dt="r8">2441416</Frequency><Timestamp dt:dt="r8">5769833900</Timestamp><Current dt:dt="r8">0</Current><DateUtc dt:dt="string">2015-08-12T11:02:48Z</DateUtc></FrequencyChange></FrequencyChanges></Clock>\n	1 ver1_main_procedure-15-1	99.927	1.0.0.880	1	hs	1475352094	prawa	1	2.0.10.356	08-12-2015	2015-08-12 11:02:49	13:02:49	mezczyzna	2.0.10.92	3	5	1	1																							d	{SPACE}		no	BlockProc2		BlockList									14	Free	dl	color_orange.png		0	7	218149	460																			2					25	prime_right.png	0	217889	0	0	13	0	217889	0	217889	1	217889	20	0	-1	216390	217889	217888	0	prime_right.png	TrialProc1	left	0		0	0	0	0		0	0	TrialList2	target_both.png	0	dl	-999999	3	217939	0	l	203	218142															8	1	14	neut			450
1 ver1_main_procedure	15	1	21	<?xml version="1.0"?>\n<Clock xmlns:dt="urn:schemas-microsoft-com:datatypes"><Description dt:dt="string">E-Prime Primary Realtime Clock</Description><StartTime><Timestamp dt:dt="int">0</Timestamp><DateUtc dt:dt="string">2015-08-12T11:02:48Z</DateUtc></StartTime><FrequencyChanges><FrequencyChange><Frequency dt:dt="r8">2441416</Frequency><Timestamp dt:dt="r8">5769833900</Timestamp><Current dt:dt="r8">0</Current><DateUtc dt:dt="string">2015-08-12T11:02:48Z</DateUtc></FrequencyChange></FrequencyChanges></Clock>\n	1 ver1_main_procedure-15-1	99.927	1.0.0.880	1	hs	1475352094	prawa	1	2.0.10.356	08-12-2015	2015-08-12 11:02:49	13:02:49	mezczyzna	2.0.10.92	3	5	1	1																							d	{SPACE}		no	BlockProc2		BlockList									15	Free	dl	color_red.png		0	5	220871	460																								25	prime_right.png	0	220421	0	0	13	0	220421	0	220421	2	220421	20	0	-1	218922	220421	220419	0		TrialProc1	left	0		0	10	220731	-220731		0	0	TrialList2	target_both.png	0	dl	0	3	220471	260	d	395	220866															9	1	15	incomp			450
1 ver1_main_procedure	15	1	21	<?xml version="1.0"?>\n<Clock xmlns:dt="urn:schemas-microsoft-com:datatypes"><Description dt:dt="string">E-Prime Primary Realtime Clock</Description><StartTime><Timestamp dt:dt="int">0</Timestamp><DateUtc dt:dt="string">2015-08-12T11:02:48Z</DateUtc></StartTime><FrequencyChanges><FrequencyChange><Frequency dt:dt="r8">2441416</Frequency><Timestamp dt:dt="r8">5769833900</Timestamp><Current dt:dt="r8">0</Current><DateUtc dt:dt="string">2015-08-12T11:02:48Z</DateUtc></FrequencyChange></FrequencyChanges></Clock>\n	1 ver1_main_procedure-15-1	99.927	1.0.0.880	1	hs	1475352094	prawa	1	2.0.10.356	08-12-2015	2015-08-12 11:02:49	13:02:49	mezczyzna	2.0.10.92	3	5	1	1																							d	{SPACE}		no	BlockProc2		BlockList									16	Free	dl	color_yellow.png		0	8	223393	310																								75	prime_left.png	0	223143	0	0	13	0	223143	0	223143	2	223143	20	0	-1	221644	223143	223141	0		TrialProc1	right	0		0	0	0	0		0	0	TrialList2	target_both.png	0	dl	-999999	3	223193	0	l	192	223385															12	1	16	incomp			300
1 ver1_main_procedure	15	1	21	<?xml version="1.0"?>\n<Clock xmlns:dt="urn:schemas-microsoft-com:datatypes"><Description dt:dt="string">E-Prime Primary Realtime Clock</Description><StartTime><Timestamp dt:dt="int">0</Timestamp><DateUtc dt:dt="string">2015-08-12T11:02:48Z</DateUtc></StartTime><FrequencyChanges><FrequencyChange><Frequency dt:dt="r8">2441416</Frequency><Timestamp dt:dt="r8">5769833900</Timestamp><Current dt:dt="r8">0</Current><DateUtc dt:dt="string">2015-08-12T11:02:48Z</DateUtc></FrequencyChange></FrequencyChanges></Clock>\n	1 ver1_main_procedure-15-1	99.927	1.0.0.880	1	hs	1475352094	prawa	1	2.0.10.356	08-12-2015	2015-08-12 11:02:49	13:02:49	mezczyzna	2.0.10.92	3	5	1	1																							d	{SPACE}		no	BlockProc2		BlockList									17	Free	dl	color_red.png		0	6	225805	310																								75	prime_right.png	0	225514	0	0	13	0	225514	0	225514	1	225514	20	0	-1	224015	225514	225513	0		TrialProc1	right	0		0	0	0	0		0	0	TrialList2	target_both.png	0	dl	-999999	3	225564	0	d	235	225799															10	1	17	comp			300
1 ver1_main_procedure	15	1	21	<?xml version="1.0"?>\n<Clock xmlns:dt="urn:schemas-microsoft-com:datatypes"><Description dt:dt="string">E-Prime Primary Realtime Clock</Description><StartTime><Timestamp dt:dt="int">0</Timestamp><DateUtc dt:dt="string">2015-08-12T11:02:48Z</DateUtc></StartTime><FrequencyChanges><FrequencyChange><Frequency dt:dt="r8">2441416</Frequency><Timestamp dt:dt="r8">5769833900</Timestamp><Current dt:dt="r8">0</Current><DateUtc dt:dt="string">2015-08-12T11:02:48Z</DateUtc></FrequencyChange></FrequencyChanges></Clock>\n	1 ver1_main_procedure-15-1	99.927	1.0.0.880	1	hs	1475352094	prawa	1	2.0.10.356	08-12-2015	2015-08-12 11:02:49	13:02:49	mezczyzna	2.0.10.92	3	5	1	1																							d	{SPACE}		no	BlockProc2		BlockList									18	Free	dl	color_orange.png		0	5	228106	160																			1					25	prime_left.png	0	227926	0	0	13	0	227926	0	227926	1	227926	20	0	-1	226427	227926	227925	0	prime_left.png	TrialProc1	left	0		0	0	0	0		0	0	TrialList2	target_both.png	0	dl	-999999	3	227976	0	l	125	228101															8	1	18	neut			150
1 ver1_main_procedure	15	1	21	<?xml version="1.0"?>\n<Clock xmlns:dt="urn:schemas-microsoft-com:datatypes"><Description dt:dt="string">E-Prime Primary Realtime Clock</Description><StartTime><Timestamp dt:dt="int">0</Timestamp><DateUtc dt:dt="string">2015-08-12T11:02:48Z</DateUtc></StartTime><FrequencyChanges><FrequencyChange><Frequency dt:dt="r8">2441416</Frequency><Timestamp dt:dt="r8">5769833900</Timestamp><Current dt:dt="r8">0</Current><DateUtc dt:dt="string">2015-08-12T11:02:48Z</DateUtc></FrequencyChange></FrequencyChanges></Clock>\n	1 ver1_main_procedure-15-1	99.927	1.0.0.880	1	hs	1475352094	prawa	1	2.0.10.356	08-12-2015	2015-08-12 11:02:49	13:02:49	mezczyzna	2.0.10.92	3	5	1	1																							d	{SPACE}		no	BlockProc2		BlockList									19	Free	dl	color_red.png		0	7	230668	160																								75	prime_right.png	0	230078	0	0	13	0	230078	0	230078	1	230078	20	0	-1	228579	230078	230077	0		TrialProc1	right	0		0	10	230388	-230388		0	0	TrialList2	target_both.png	0	dl	0	3	230128	260	d	533	230661															10	1	19	comp			150
1 ver1_main_procedure	15	1	21	<?xml version="1.0"?>\n<Clock xmlns:dt="urn:schemas-microsoft-com:datatypes"><Description dt:dt="string">E-Prime Primary Realtime Clock</Description><StartTime><Timestamp dt:dt="int">0</Timestamp><DateUtc dt:dt="string">2015-08-12T11:02:48Z</DateUtc></StartTime><FrequencyChanges><FrequencyChange><Frequency dt:dt="r8">2441416</Frequency><Timestamp dt:dt="r8">5769833900</Timestamp><Current dt:dt="r8">0</Current><DateUtc dt:dt="string">2015-08-12T11:02:48Z</DateUtc></FrequencyChange></FrequencyChanges></Clock>\n	1 ver1_main_procedure-15-1	99.927	1.0.0.880	1	hs	1475352094	prawa	1	2.0.10.356	08-12-2015	2015-08-12 11:02:49	13:02:49	mezczyzna	2.0.10.92	3	5	1	1																							d	{SPACE}		no	BlockProc2		BlockList									20	Free	dl	color_orange.png		0	11	232880	310																			2					25	prime_right.png	0	232640	0	0	13	0	232640	0	232640	2	232640	20	0	-1	231141	232640	232638	0	prime_right.png	TrialProc1	left	0		0	0	0	0		0	0	TrialList2	target_both.png	0	dl	-999999	3	232690	0	l	179	232869															8	1	20	neut			300
1 ver1_main_procedure	15	1	21	<?xml version="1.0"?>\n<Clock xmlns:dt="urn:schemas-microsoft-com:datatypes"><Description dt:dt="string">E-Prime Primary Realtime Clock</Description><StartTime><Timestamp dt:dt="int">0</Timestamp><DateUtc dt:dt="string">2015-08-12T11:02:48Z</DateUtc></StartTime><FrequencyChanges><FrequencyChange><Frequency dt:dt="r8">2441416</Frequency><Timestamp dt:dt="r8">5769833900</Timestamp><Current dt:dt="r8">0</Current><DateUtc dt:dt="string">2015-08-12T11:02:48Z</DateUtc></FrequencyChange></FrequencyChanges></Clock>\n	1 ver1_main_procedure-15-1	99.927	1.0.0.880	1	hs	1475352094	prawa	1	2.0.10.356	08-12-2015	2015-08-12 11:02:49	13:02:49	mezczyzna	2.0.10.92	3	5	1	1																							d	{SPACE}		no	BlockProc2		BlockList									21	Free	dl	color_red.png		0	10	235322	160																								25	prime_right.png	0	235001	0	0	13	0	235002	0	235001	1	235001	20	0	-1	233502	235001	235000	0		TrialProc1	right	0		-999999	11	235312	0		0	0	TrialList2	target_both.png	0	dl	0	3	235051	0	d	260	235311															10	1	21	comp			150
1 ver1_main_procedure	15	1	21	<?xml version="1.0"?>\n<Clock xmlns:dt="urn:schemas-microsoft-com:datatypes"><Description dt:dt="string">E-Prime Primary Realtime Clock</Description><StartTime><Timestamp dt:dt="int">0</Timestamp><DateUtc dt:dt="string">2015-08-12T11:02:48Z</DateUtc></StartTime><FrequencyChanges><FrequencyChange><Frequency dt:dt="r8">2441416</Frequency><Timestamp dt:dt="r8">5769833900</Timestamp><Current dt:dt="r8">0</Current><DateUtc dt:dt="string">2015-08-12T11:02:48Z</DateUtc></FrequencyChange></FrequencyChanges></Clock>\n	1 ver1_main_procedure-15-1	99.927	1.0.0.880	1	hs	1475352094	prawa	1	2.0.10.356	08-12-2015	2015-08-12 11:02:49	13:02:49	mezczyzna	2.0.10.92	3	5	1	1																							d	{SPACE}		no	BlockProc2		BlockList									22	Cued	d			0	14	237483	310																								25	prime_right.png	0	237293	0	0	13	0	237293	0	237293	1	237293	20	0	-1	235794	237293	237292	0		TrialProc1	left	0		0	0	0	0		0	0	TrialList2	target_left.png	0	d	-999999	3	237343	0	l	126	237469															3	1	22	incomp			300
1 ver1_main_procedure	15	1	21	<?xml version="1.0"?>\n<Clock xmlns:dt="urn:schemas-microsoft-com:datatypes"><Description dt:dt="string">E-Prime Primary Realtime Clock</Description><StartTime><Timestamp dt:dt="int">0</Timestamp><DateUtc dt:dt="string">2015-08-12T11:02:48Z</DateUtc></StartTime><FrequencyChanges><FrequencyChange><Frequency dt:dt="r8">2441416</Frequency><Timestamp dt:dt="r8">5769833900</Timestamp><Current dt:dt="r8">0</Current><DateUtc dt:dt="string">2015-08-12T11:02:48Z</DateUtc></FrequencyChange></FrequencyChanges></Clock>\n	1 ver1_main_procedure-15-1	99.927	1.0.0.880	1	hs	1475352094	prawa	1	2.0.10.356	08-12-2015	2015-08-12 11:02:49	13:02:49	mezczyzna	2.0.10.92	3	5	1	1																							d	{SPACE}		no	BlockProc2		BlockList									23	Cued	l			0	7	239885	310																			1					75	prime_left.png	0	239605	0	0	13	0	239605	0	239605	1	239605	20	0	-1	238106	239605	239604	0	prime_left.png	TrialProc1	right	0		0	0	0	0		0	0	TrialList2	target_right.png	0	l	-999999	3	239655	0	d	223	239878															5	1	23	neut			300
1 ver1_main_procedure	15	1	21	<?xml version="1.0"?>\n<Clock xmlns:dt="urn:schemas-microsoft-com:datatypes"><Description dt:dt="string">E-Prime Primary Realtime Clock</Description><StartTime><Timestamp dt:dt="int">0</Timestamp><DateUtc dt:dt="string">2015-08-12T11:02:48Z</DateUtc></StartTime><FrequencyChanges><FrequencyChange><Frequency dt:dt="r8">2441416</Frequency><Timestamp dt:dt="r8">5769833900</Timestamp><Current dt:dt="r8">0</Current><DateUtc dt:dt="string">2015-08-12T11:02:48Z</DateUtc></FrequencyChange></FrequencyChanges></Clock>\n	1 ver1_main_procedure-15-1	99.927	1.0.0.880	1	hs	1475352094	prawa	1	2.0.10.356	08-12-2015	2015-08-12 11:02:49	13:02:49	mezczyzna	2.0.10.92	3	5	1	1																							d	{SPACE}		no	BlockProc2		BlockList									24	Free	dl	color_orange.png		0	7	242207	160																			2					75	prime_right.png	0	242007	0	0	13	0	242007	0	242007	2	242007	20	0	-1	240508	242007	242005	0	prime_right.png	TrialProc1	left	0		0	0	0	0		0	0	TrialList2	target_both.png	0	dl	-999999	3	242057	0	l	143	242200															8	1	24	neut			150
1 ver1_main_procedure	15	1	21	<?xml version="1.0"?>\n<Clock xmlns:dt="urn:schemas-microsoft-com:datatypes"><Description dt:dt="string">E-Prime Primary Realtime Clock</Description><StartTime><Timestamp dt:dt="int">0</Timestamp><DateUtc dt:dt="string">2015-08-12T11:02:48Z</DateUtc></StartTime><FrequencyChanges><FrequencyChange><Frequency dt:dt="r8">2441416</Frequency><Timestamp dt:dt="r8">5769833900</Timestamp><Current dt:dt="r8">0</Current><DateUtc dt:dt="string">2015-08-12T11:02:48Z</DateUtc></FrequencyChange></FrequencyChanges></Clock>\n	1 ver1_main_procedure-15-1	99.927	1.0.0.880	1	hs	1475352094	prawa	1	2.0.10.356	08-12-2015	2015-08-12 11:02:49	13:02:49	mezczyzna	2.0.10.92	3	5	1	1																							d	{SPACE}		no	BlockProc2		BlockList									25	Free	dl	color_orange.png		0	14	244418	160																			1					25	prime_left.png	0	244178	0	0	13	0	244178	0	244178	1	244178	20	0	-1	242679	244178	244177	0	prime_left.png	TrialProc1	right	0		0	0	0	0		0	0	TrialList2	target_both.png	0	dl	-999999	3	244228	0	l	176	244404															11	1	25	neut			150
1 ver1_main_procedure	15	1	21	<?xml version="1.0"?>\n<Clock xmlns:dt="urn:schemas-microsoft-com:datatypes"><Description dt:dt="string">E-Prime Primary Realtime Clock</Description><StartTime><Timestamp dt:dt="int">0</Timestamp><DateUtc dt:dt="string">2015-08-12T11:02:48Z</DateUtc></StartTime><FrequencyChanges><FrequencyChange><Frequency dt:dt="r8">2441416</Frequency><Timestamp dt:dt="r8">5769833900</Timestamp><Current dt:dt="r8">0</Current><DateUtc dt:dt="string">2015-08-12T11:02:48Z</DateUtc></FrequencyChange></FrequencyChanges></Clock>\n	1 ver1_main_procedure-15-1	99.927	1.0.0.880	1	hs	1475352094	prawa	1	2.0.10.356	08-12-2015	2015-08-12 11:02:49	13:02:49	mezczyzna	2.0.10.92	3	5	1	1																							d	{SPACE}		no	BlockProc2		BlockList									26	Free	dl	color_yellow.png		0	10	246580	160																								25	prime_left.png	0	246390	0	0	13	0	246390	0	246390	1	246390	20	0	-1	244891	246390	246389	0		TrialProc1	left	0		0	0	0	0		0	0	TrialList2	target_both.png	0	dl	-999999	3	246440	0	l	130	246570															7	1	26	comp			150
1 ver1_main_procedure	15	1	21	<?xml version="1.0"?>\n<Clock xmlns:dt="urn:schemas-microsoft-com:datatypes"><Description dt:dt="string">E-Prime Primary Realtime Clock</Description><StartTime><Timestamp dt:dt="int">0</Timestamp><DateUtc dt:dt="string">2015-08-12T11:02:48Z</DateUtc></StartTime><FrequencyChanges><FrequencyChange><Frequency dt:dt="r8">2441416</Frequency><Timestamp dt:dt="r8">5769833900</Timestamp><Current dt:dt="r8">0</Current><DateUtc dt:dt="string">2015-08-12T11:02:48Z</DateUtc></FrequencyChange></FrequencyChanges></Clock>\n	1 ver1_main_procedure-15-1	99.927	1.0.0.880	1	hs	1475352094	prawa	1	2.0.10.356	08-12-2015	2015-08-12 11:02:49	13:02:49	mezczyzna	2.0.10.92	3	5	1	1																							d	{SPACE}		no	BlockProc2		BlockList									27	Free	dl	color_blue.png		0	14	249002	160																								75	prime_right.png	0	248551	0	0	13	1	248552	1	248552	1	248551	20	0	-1	247053	248551	248550	0		TrialProc1	right	0		0	11	248862	-248862		0	0	TrialList2	target_both.png	0	dl	0	3	248601	261	l	386	248987															10	1	27	comp			150
1 ver1_main_procedure	15	1	21	<?xml version="1.0"?>\n<Clock xmlns:dt="urn:schemas-microsoft-com:datatypes"><Description dt:dt="string">E-Prime Primary Realtime Clock</Description><StartTime><Timestamp dt:dt="int">0</Timestamp><DateUtc dt:dt="string">2015-08-12T11:02:48Z</DateUtc></StartTime><FrequencyChanges><FrequencyChange><Frequency dt:dt="r8">2441416</Frequency><Timestamp dt:dt="r8">5769833900</Timestamp><Current dt:dt="r8">0</Current><DateUtc dt:dt="string">2015-08-12T11:02:48Z</DateUtc></FrequencyChange></FrequencyChanges></Clock>\n	1 ver1_main_procedure-15-1	99.927	1.0.0.880	1	hs	1475352094	prawa	1	2.0.10.356	08-12-2015	2015-08-12 11:02:49	13:02:49	mezczyzna	2.0.10.92	3	5	1	1																							d	{SPACE}		no	BlockProc2		BlockList									28	Free	dl	color_orange.png		0	13	251213	160																			2					25	prime_right.png	0	250973	0	0	13	0	250973	0	250973	1	250973	20	0	-1	249474	250973	250972	0	prime_right.png	TrialProc1	right	0		0	0	0	0		0	0	TrialList2	target_both.png	0	dl	-999999	3	251023	0	l	176	251199															11	1	28	neut			150
1 ver1_main_procedure	15	1	21	<?xml version="1.0"?>\n<Clock xmlns:dt="urn:schemas-microsoft-com:datatypes"><Description dt:dt="string">E-Prime Primary Realtime Clock</Description><StartTime><Timestamp dt:dt="int">0</Timestamp><DateUtc dt:dt="string">2015-08-12T11:02:48Z</DateUtc></StartTime><FrequencyChanges><FrequencyChange><Frequency dt:dt="r8">2441416</Frequency><Timestamp dt:dt="r8">5769833900</Timestamp><Current dt:dt="r8">0</Current><DateUtc dt:dt="string">2015-08-12T11:02:48Z</DateUtc></FrequencyChange></FrequencyChanges></Clock>\n	1 ver1_main_procedure-15-1	99.927	1.0.0.880	1	hs	1475352094	prawa	1	2.0.10.356	08-12-2015	2015-08-12 11:02:49	13:02:49	mezczyzna	2.0.10.92	3	5	1	1																							d	{SPACE}		no	BlockProc2		BlockList									29	Free	dl	color_blue.png		0	10	253445	160																								75	prime_right.png	0	253185	0	0	13	0	253185	0	253185	1	253185	20	0	-1	251686	253185	253184	0		TrialProc1	right	0		0	0	0	0		0	0	TrialList2	target_both.png	0	dl	-999999	3	253235	0	l	200	253435															10	1	29	comp			150
1 ver1_main_procedure	15	1	21	<?xml version="1.0"?>\n<Clock xmlns:dt="urn:schemas-microsoft-com:datatypes"><Description dt:dt="string">E-Prime Primary Realtime Clock</Description><StartTime><Timestamp dt:dt="int">0</Timestamp><DateUtc dt:dt="string">2015-08-12T11:02:48Z</DateUtc></StartTime><FrequencyChanges><FrequencyChange><Frequency dt:dt="r8">2441416</Frequency><Timestamp dt:dt="r8">5769833900</Timestamp><Current dt:dt="r8">0</Current><DateUtc dt:dt="string">2015-08-12T11:02:48Z</DateUtc></FrequencyChange></FrequencyChanges></Clock>\n	1 ver1_main_procedure-15-1	99.927	1.0.0.880	1	hs	1475352094	prawa	1	2.0.10.356	08-12-2015	2015-08-12 11:02:49	13:02:49	mezczyzna	2.0.10.92	3	5	1	1																							d	{SPACE}		no	BlockProc2		BlockList									30	Free	dl	color_green.png		0	14	255557	310																								25	prime_left.png	0	255417	0	0	13	0	255417	0	255417	2	255417	20	0	-1	253918	255417	255415	0		TrialProc1	left	0		0	0	0	0		0	0	TrialList2	target_both.png	0	dl	-999999	3	255467	0	d	76	255543															7	1	30	comp			300
1 ver1_main_procedure	15	1	21	<?xml version="1.0"?>\n<Clock xmlns:dt="urn:schemas-microsoft-com:datatypes"><Description dt:dt="string">E-Prime Primary Realtime Clock</Description><StartTime><Timestamp dt:dt="int">0</Timestamp><DateUtc dt:dt="string">2015-08-12T11:02:48Z</DateUtc></StartTime><FrequencyChanges><FrequencyChange><Frequency dt:dt="r8">2441416</Frequency><Timestamp dt:dt="r8">5769833900</Timestamp><Current dt:dt="r8">0</Current><DateUtc dt:dt="string">2015-08-12T11:02:48Z</DateUtc></FrequencyChange></FrequencyChanges></Clock>\n	1 ver1_main_procedure-15-1	99.927	1.0.0.880	1	hs	1475352094	prawa	1	2.0.10.356	08-12-2015	2015-08-12 11:02:49	13:02:49	mezczyzna	2.0.10.92	3	5	1	1																							d	{SPACE}		no	BlockProc2		BlockList									31	Free	dl	color_blue.png		0	10	257778	160																								75	prime_right.png	0	257678	0	0	13	0	257678	0	257678	1	257678	20	0	-1	256179	257678	257677	0		TrialProc1	left	0		0	0	0	0		0	0	TrialList2	target_both.png	0	dl	-999999	3	257728	0	l	40	257768															9	1	31	incomp			150
1 ver1_main_procedure	15	1	21	<?xml version="1.0"?>\n<Clock xmlns:dt="urn:schemas-microsoft-com:datatypes"><Description dt:dt="string">E-Prime Primary Realtime Clock</Description><StartTime><Timestamp dt:dt="int">0</Timestamp><DateUtc dt:dt="string">2015-08-12T11:02:48Z</DateUtc></StartTime><FrequencyChanges><FrequencyChange><Frequency dt:dt="r8">2441416</Frequency><Timestamp dt:dt="r8">5769833900</Timestamp><Current dt:dt="r8">0</Current><DateUtc dt:dt="string">2015-08-12T11:02:48Z</DateUtc></FrequencyChange></FrequencyChanges></Clock>\n	1 ver1_main_procedure-15-1	99.927	1.0.0.880	1	hs	1475352094	prawa	1	2.0.10.356	08-12-2015	2015-08-12 11:02:49	13:02:49	mezczyzna	2.0.10.92	3	5	1	1																							d	{SPACE}		no	BlockProc2		BlockList									32	Free	dl	color_green.png		0	10	259910	310																								75	prime_left.png	0	259750	0	0	13	0	259750	0	259750	1	259750	20	0	-1	258251	259750	259749	0		TrialProc1	right	0		0	0	0	0		0	0	TrialList2	target_both.png	0	dl	-999999	3	259800	0	d	100	259900															12	1	32	incomp			300
1 ver1_main_procedure	15	1	21	<?xml version="1.0"?>\n<Clock xmlns:dt="urn:schemas-microsoft-com:datatypes"><Description dt:dt="string">E-Prime Primary Realtime Clock</Description><StartTime><Timestamp dt:dt="int">0</Timestamp><DateUtc dt:dt="string">2015-08-12T11:02:48Z</DateUtc></StartTime><FrequencyChanges><FrequencyChange><Frequency dt:dt="r8">2441416</Frequency><Timestamp dt:dt="r8">5769833900</Timestamp><Current dt:dt="r8">0</Current><DateUtc dt:dt="string">2015-08-12T11:02:48Z</DateUtc></FrequencyChange></FrequencyChanges></Clock>\n	1 ver1_main_procedure-15-1	99.927	1.0.0.880	1	hs	1475352094	prawa	1	2.0.10.356	08-12-2015	2015-08-12 11:02:49	13:02:49	mezczyzna	2.0.10.92	3	5	1	1																							d	{SPACE}		no	BlockProc2		BlockList									33	Free	dl	color_yellow.png		0	12	262242	310																								75	prime_left.png	0	262031	0	0	13	1	262032	1	262032	1	262031	20	0	-1	260533	262031	262030	0		TrialProc1	right	0		0	0	0	0		0	0	TrialList2	target_both.png	0	dl	-999999	3	262081	0	l	149	262230															12	1	33	incomp			300
1 ver1_main_procedure	15	1	21	<?xml version="1.0"?>\n<Clock xmlns:dt="urn:schemas-microsoft-com:datatypes"><Description dt:dt="string">E-Prime Primary Realtime Clock</Description><StartTime><Timestamp dt:dt="int">0</Timestamp><DateUtc dt:dt="string">2015-08-12T11:02:48Z</DateUtc></StartTime><FrequencyChanges><FrequencyChange><Frequency dt:dt="r8">2441416</Frequency><Timestamp dt:dt="r8">5769833900</Timestamp><Current dt:dt="r8">0</Current><DateUtc dt:dt="string">2015-08-12T11:02:48Z</DateUtc></FrequencyChange></FrequencyChanges></Clock>\n	1 ver1_main_procedure-15-1	99.927	1.0.0.880	1	hs	1475352094	prawa	1	2.0.10.356	08-12-2015	2015-08-12 11:02:49	13:02:49	mezczyzna	2.0.10.92	3	5	1	1																							d	{SPACE}		no	BlockProc2		BlockList									34	Cued	d			0	11	264703	461																			1					25	prime_left.png	0	264363	0	0	13	0	264363	0	264363	1	264363	20	0	-1	262864	264363	264362	0	prime_left.png	TrialProc1	left	0		0	10	264673	-264673		0	0	TrialList2	target_left.png	0	d	0	3	264413	260	l	279	264692															2	1	34	neut			450
1 ver1_main_procedure	15	1	21	<?xml version="1.0"?>\n<Clock xmlns:dt="urn:schemas-microsoft-com:datatypes"><Description dt:dt="string">E-Prime Primary Realtime Clock</Description><StartTime><Timestamp dt:dt="int">0</Timestamp><DateUtc dt:dt="string">2015-08-12T11:02:48Z</DateUtc></StartTime><FrequencyChanges><FrequencyChange><Frequency dt:dt="r8">2441416</Frequency><Timestamp dt:dt="r8">5769833900</Timestamp><Current dt:dt="r8">0</Current><DateUtc dt:dt="string">2015-08-12T11:02:48Z</DateUtc></FrequencyChange></FrequencyChanges></Clock>\n	1 ver1_main_procedure-15-1	99.927	1.0.0.880	1	hs	1475352094	prawa	1	2.0.10.356	08-12-2015	2015-08-12 11:02:49	13:02:49	mezczyzna	2.0.10.92	3	5	1	1																							d	{SPACE}		no	BlockProc2		BlockList									35	Cued	d	color_red.png		0	10	267295	160																								75	prime_right.png	0	266975	0	0	13	0	266975	0	266975	1	266975	20	0	-1	265476	266975	266974	0		TrialProc1	left	0		-999999	10	267285	0		0	0	TrialList2	target_left.png	1	d	0	3	267025	0	d	251	267276															3	1	35	incomp			150
1 ver1_main_procedure	15	1	21	<?xml version="1.0"?>\n<Clock xmlns:dt="urn:schemas-microsoft-com:datatypes"><Description dt:dt="string">E-Prime Primary Realtime Clock</Description><StartTime><Timestamp dt:dt="int">0</Timestamp><DateUtc dt:dt="string">2015-08-12T11:02:48Z</DateUtc></StartTime><FrequencyChanges><FrequencyChange><Frequency dt:dt="r8">2441416</Frequency><Timestamp dt:dt="r8">5769833900</Timestamp><Current dt:dt="r8">0</Current><DateUtc dt:dt="string">2015-08-12T11:02:48Z</DateUtc></FrequencyChange></FrequencyChanges></Clock>\n	1 ver1_main_procedure-15-1	99.927	1.0.0.880	1	hs	1475352094	prawa	1	2.0.10.356	08-12-2015	2015-08-12 11:02:49	13:02:49	mezczyzna	2.0.10.92	3	5	1	1																							d	{SPACE}		no	BlockProc2		BlockList									36	Free	dl	color_orange.png		0	11	269527	160																			2					25	prime_right.png	0	269267	0	0	13	0	269267	0	269267	1	269267	20	0	-1	267768	269267	269266	0	prime_right.png	TrialProc1	left	0		0	0	0	0		0	0	TrialList2	target_both.png	0	dl	-999999	3	269317	0	l	199	269516															8	1	36	neut			150
1 ver1_main_procedure	15	1	21	<?xml version="1.0"?>\n<Clock xmlns:dt="urn:schemas-microsoft-com:datatypes"><Description dt:dt="string">E-Prime Primary Realtime Clock</Description><StartTime><Timestamp dt:dt="int">0</Timestamp><DateUtc dt:dt="string">2015-08-12T11:02:48Z</DateUtc></StartTime><FrequencyChanges><FrequencyChange><Frequency dt:dt="r8">2441416</Frequency><Timestamp dt:dt="r8">5769833900</Timestamp><Current dt:dt="r8">0</Current><DateUtc dt:dt="string">2015-08-12T11:02:48Z</DateUtc></FrequencyChange></FrequencyChanges></Clock>\n	1 ver1_main_procedure-15-1	99.927	1.0.0.880	1	hs	1475352094	prawa	1	2.0.10.356	08-12-2015	2015-08-12 11:02:49	13:02:49	mezczyzna	2.0.10.92	3	5	1	1																							d	{SPACE}		no	BlockProc2		BlockList									37	Cued	l			0	7	271919	160																								75	prime_right.png	1	271499	0	0	13	1	271499	1	271499	1	271498	20	0	-1	270000	271498	271497	0		TrialProc1	right	0		0	11	271809	-271809		0	0	TrialList2	target_right.png	0	l	0	3	271548	261	d	364	271912															4	1	37	comp			150
1 ver1_main_procedure	15	1	21	<?xml version="1.0"?>\n<Clock xmlns:dt="urn:schemas-microsoft-com:datatypes"><Description dt:dt="string">E-Prime Primary Realtime Clock</Description><StartTime><Timestamp dt:dt="int">0</Timestamp><DateUtc dt:dt="string">2015-08-12T11:02:48Z</DateUtc></StartTime><FrequencyChanges><FrequencyChange><Frequency dt:dt="r8">2441416</Frequency><Timestamp dt:dt="r8">5769833900</Timestamp><Current dt:dt="r8">0</Current><DateUtc dt:dt="string">2015-08-12T11:02:48Z</DateUtc></FrequencyChange></FrequencyChanges></Clock>\n	1 ver1_main_procedure-15-1	99.927	1.0.0.880	1	hs	1475352094	prawa	1	2.0.10.356	08-12-2015	2015-08-12 11:02:49	13:02:49	mezczyzna	2.0.10.92	3	5	1	1																							d	{SPACE}		no	BlockProc2		BlockList									38	Free	dl	color_yellow.png		0	11	274140	461																								25	prime_left.png	0	273890	0	0	13	0	273890	0	273890	1	273890	20	0	-1	272391	273890	273889	0		TrialProc1	right	0		0	0	0	0		0	0	TrialList2	target_both.png	0	dl	-999999	3	273940	0	l	189	274129															12	1	38	incomp			450
1 ver1_main_procedure	15	1	21	<?xml version="1.0"?>\n<Clock xmlns:dt="urn:schemas-microsoft-com:datatypes"><Description dt:dt="string">E-Prime Primary Realtime Clock</Description><StartTime><Timestamp dt:dt="int">0</Timestamp><DateUtc dt:dt="string">2015-08-12T11:02:48Z</DateUtc></StartTime><FrequencyChanges><FrequencyChange><Frequency dt:dt="r8">2441416</Frequency><Timestamp dt:dt="r8">5769833900</Timestamp><Current dt:dt="r8">0</Current><DateUtc dt:dt="string">2015-08-12T11:02:48Z</DateUtc></FrequencyChange></FrequencyChanges></Clock>\n	1 ver1_main_procedure-15-1	99.927	1.0.0.880	1	hs	1475352094	prawa	1	2.0.10.356	08-12-2015	2015-08-12 11:02:49	13:02:49	mezczyzna	2.0.10.92	3	5	1	1																							d	{SPACE}		no	BlockProc2		BlockList									39	Free	dl	color_red.png		0	9	276512	160																								25	prime_right.png	0	276412	0	0	13	0	276412	0	276412	1	276412	20	0	-1	274913	276412	276411	0		TrialProc1	left	0		0	0	0	0		0	0	TrialList2	target_both.png	0	dl	-999999	3	276462	0	d	41	276503															9	1	39	incomp			150
1 ver1_main_procedure	15	1	21	<?xml version="1.0"?>\n<Clock xmlns:dt="urn:schemas-microsoft-com:datatypes"><Description dt:dt="string">E-Prime Primary Realtime Clock</Description><StartTime><Timestamp dt:dt="int">0</Timestamp><DateUtc dt:dt="string">2015-08-12T11:02:48Z</DateUtc></StartTime><FrequencyChanges><FrequencyChange><Frequency dt:dt="r8">2441416</Frequency><Timestamp dt:dt="r8">5769833900</Timestamp><Current dt:dt="r8">0</Current><DateUtc dt:dt="string">2015-08-12T11:02:48Z</DateUtc></FrequencyChange></FrequencyChanges></Clock>\n	1 ver1_main_procedure-15-1	99.927	1.0.0.880	1	hs	1475352094	prawa	1	2.0.10.356	08-12-2015	2015-08-12 11:02:49	13:02:49	mezczyzna	2.0.10.92	3	5	1	1																							d	{SPACE}		no	BlockProc2		BlockList									40	Cued	d			0	11	278684	460																			1					25	prime_left.png	0	278484	0	0	13	0	278484	0	278484	1	278484	20	0	-1	276985	278484	278483	0	prime_left.png	TrialProc1	left	0		0	0	0	0		0	0	TrialList2	target_left.png	0	d	-999999	3	278534	0	l	139	278673															2	1	40	neut			450
1 ver1_main_procedure	15	1	21	<?xml version="1.0"?>\n<Clock xmlns:dt="urn:schemas-microsoft-com:datatypes"><Description dt:dt="string">E-Prime Primary Realtime Clock</Description><StartTime><Timestamp dt:dt="int">0</Timestamp><DateUtc dt:dt="string">2015-08-12T11:02:48Z</DateUtc></StartTime><FrequencyChanges><FrequencyChange><Frequency dt:dt="r8">2441416</Frequency><Timestamp dt:dt="r8">5769833900</Timestamp><Current dt:dt="r8">0</Current><DateUtc dt:dt="string">2015-08-12T11:02:48Z</DateUtc></FrequencyChange></FrequencyChanges></Clock>\n	1 ver1_main_procedure-15-1	99.927	1.0.0.880	1	hs	1475352094	prawa	1	2.0.10.356	08-12-2015	2015-08-12 11:02:49	13:02:49	mezczyzna	2.0.10.92	3	5	1	1																							d	{SPACE}		no	BlockProc2		BlockList									41	Free	dl	color_red.png		0	11	281126	310																								25	prime_right.png	1	280956	0	0	13	1	280956	1	280956	1	280955	20	0	-1	279457	280955	280954	0		TrialProc1	left	0		0	0	0	0		0	0	TrialList2	target_both.png	0	dl	-999999	3	281005	0	d	110	281115															9	1	41	incomp			300
1 ver1_main_procedure	15	1	21	<?xml version="1.0"?>\n<Clock xmlns:dt="urn:schemas-microsoft-com:datatypes"><Description dt:dt="string">E-Prime Primary Realtime Clock</Description><StartTime><Timestamp dt:dt="int">0</Timestamp><DateUtc dt:dt="string">2015-08-12T11:02:48Z</DateUtc></StartTime><FrequencyChanges><FrequencyChange><Frequency dt:dt="r8">2441416</Frequency><Timestamp dt:dt="r8">5769833900</Timestamp><Current dt:dt="r8">0</Current><DateUtc dt:dt="string">2015-08-12T11:02:48Z</DateUtc></FrequencyChange></FrequencyChanges></Clock>\n	1 ver1_main_procedure-15-1	99.927	1.0.0.880	1	hs	1475352094	prawa	1	2.0.10.356	08-12-2015	2015-08-12 11:02:49	13:02:49	mezczyzna	2.0.10.92	3	5	1	1																							d	{SPACE}		no	BlockProc2		BlockList									42	Cued	l	color_orange.png		0	4	283567	461																			2					25	prime_right.png	0	283247	0	0	13	0	283247	0	283247	1	283247	20	0	-1	281748	283247	283246	0	prime_right.png	TrialProc1	right	0		0	10	283557	-283557		0	0	TrialList2	target_right.png	1	l	0	3	283297	260	l	266	283563															5	1	42	neut			450
1 ver1_main_procedure	15	1	21	<?xml version="1.0"?>\n<Clock xmlns:dt="urn:schemas-microsoft-com:datatypes"><Description dt:dt="string">E-Prime Primary Realtime Clock</Description><StartTime><Timestamp dt:dt="int">0</Timestamp><DateUtc dt:dt="string">2015-08-12T11:02:48Z</DateUtc></StartTime><FrequencyChanges><FrequencyChange><Frequency dt:dt="r8">2441416</Frequency><Timestamp dt:dt="r8">5769833900</Timestamp><Current dt:dt="r8">0</Current><DateUtc dt:dt="string">2015-08-12T11:02:48Z</DateUtc></FrequencyChange></FrequencyChanges></Clock>\n	1 ver1_main_procedure-15-1	99.927	1.0.0.880	1	hs	1475352094	prawa	1	2.0.10.356	08-12-2015	2015-08-12 11:02:49	13:02:49	mezczyzna	2.0.10.92	3	5	1	1																							d	{SPACE}		no	BlockProc2		BlockList									43	Free	dl	color_green.png		0	8	286089	160																								25	prime_left.png	0	285839	0	0	13	0	285839	0	285839	1	285839	20	0	-1	284340	285839	285838	0		TrialProc1	right	0		0	0	0	0		0	0	TrialList2	target_both.png	0	dl	-999999	3	285889	0	d	192	286081															12	1	43	incomp			150
1 ver1_main_procedure	15	1	21	<?xml version="1.0"?>\n<Clock xmlns:dt="urn:schemas-microsoft-com:datatypes"><Description dt:dt="string">E-Prime Primary Realtime Clock</Description><StartTime><Timestamp dt:dt="int">0</Timestamp><DateUtc dt:dt="string">2015-08-12T11:02:48Z</DateUtc></StartTime><FrequencyChanges><FrequencyChange><Frequency dt:dt="r8">2441416</Frequency><Timestamp dt:dt="r8">5769833900</Timestamp><Current dt:dt="r8">0</Current><DateUtc dt:dt="string">2015-08-12T11:02:48Z</DateUtc></FrequencyChange></FrequencyChanges></Clock>\n	1 ver1_main_procedure-15-1	99.927	1.0.0.880	1	hs	1475352094	prawa	1	2.0.10.356	08-12-2015	2015-08-12 11:02:49	13:02:49	mezczyzna	2.0.10.92	3	5	1	1																							d	{SPACE}		no	BlockProc2		BlockList									44	Free	dl	color_yellow.png		0	8	288431	160																								25	prime_left.png	0	288061	0	0	13	0	288061	0	288061	1	288061	20	0	-1	286562	288061	288060	0		TrialProc1	left	0		0	10	288371	-288371		0	0	TrialList2	target_both.png	0	dl	0	3	288111	260	l	312	288423															7	1	44	comp			150
1 ver1_main_procedure	15	1	21	<?xml version="1.0"?>\n<Clock xmlns:dt="urn:schemas-microsoft-com:datatypes"><Description dt:dt="string">E-Prime Primary Realtime Clock</Description><StartTime><Timestamp dt:dt="int">0</Timestamp><DateUtc dt:dt="string">2015-08-12T11:02:48Z</DateUtc></StartTime><FrequencyChanges><FrequencyChange><Frequency dt:dt="r8">2441416</Frequency><Timestamp dt:dt="r8">5769833900</Timestamp><Current dt:dt="r8">0</Current><DateUtc dt:dt="string">2015-08-12T11:02:48Z</DateUtc></FrequencyChange></FrequencyChanges></Clock>\n	1 ver1_main_procedure-15-1	99.927	1.0.0.880	1	hs	1475352094	prawa	1	2.0.10.356	08-12-2015	2015-08-12 11:02:49	13:02:49	mezczyzna	2.0.10.92	3	5	1	1																							d	{SPACE}		no	BlockProc2		BlockList									45	Free	dl	color_green.png		0	13	290663	160																								75	prime_left.png	1	290403	0	0	13	1	290403	1	290403	1	290402	20	0	-1	288904	290402	290401	0		TrialProc1	right	0		0	0	0	0		0	0	TrialList2	target_both.png	0	dl	-999999	3	290452	0	d	198	290650															12	1	45	incomp			150
1 ver1_main_procedure	15	1	21	<?xml version="1.0"?>\n<Clock xmlns:dt="urn:schemas-microsoft-com:datatypes"><Description dt:dt="string">E-Prime Primary Realtime Clock</Description><StartTime><Timestamp dt:dt="int">0</Timestamp><DateUtc dt:dt="string">2015-08-12T11:02:48Z</DateUtc></StartTime><FrequencyChanges><FrequencyChange><Frequency dt:dt="r8">2441416</Frequency><Timestamp dt:dt="r8">5769833900</Timestamp><Current dt:dt="r8">0</Current><DateUtc dt:dt="string">2015-08-12T11:02:48Z</DateUtc></FrequencyChange></FrequencyChanges></Clock>\n	1 ver1_main_procedure-15-1	99.927	1.0.0.880	1	hs	1475352094	prawa	1	2.0.10.356	08-12-2015	2015-08-12 11:02:49	13:02:49	mezczyzna	2.0.10.92	3	5	1	1																							d	{SPACE}		no	BlockProc2		BlockList									46	Free	dl	color_blue.png		0	10	292924	311																								25	prime_right.png	0	292634	0	0	13	0	292634	0	292634	1	292634	20	0	-1	291135	292634	292633	0		TrialProc1	left	0		0	0	0	0		0	0	TrialList2	target_both.png	0	dl	-999999	3	292684	0	l	229	292913															9	1	46	incomp			300
1 ver1_main_procedure	15	1	21	<?xml version="1.0"?>\n<Clock xmlns:dt="urn:schemas-microsoft-com:datatypes"><Description dt:dt="string">E-Prime Primary Realtime Clock</Description><StartTime><Timestamp dt:dt="int">0</Timestamp><DateUtc dt:dt="string">2015-08-12T11:02:48Z</DateUtc></StartTime><FrequencyChanges><FrequencyChange><Frequency dt:dt="r8">2441416</Frequency><Timestamp dt:dt="r8">5769833900</Timestamp><Current dt:dt="r8">0</Current><DateUtc dt:dt="string">2015-08-12T11:02:48Z</DateUtc></FrequencyChange></FrequencyChanges></Clock>\n	1 ver1_main_procedure-15-1	99.927	1.0.0.880	1	hs	1475352094	prawa	1	2.0.10.356	08-12-2015	2015-08-12 11:02:49	13:02:49	mezczyzna	2.0.10.92	3	5	1	1																							d	{SPACE}		no	BlockProc2		BlockList									47	Cued	d	color_red.png		0	9	295296	160																								75	prime_right.png	0	295046	0	0	13	0	295046	0	295046	1	295046	20	0	-1	293547	295046	295045	0		TrialProc1	left	0		0	0	0	0		0	0	TrialList2	target_left.png	1	d	-999999	3	295096	0	d	191	295287															3	1	47	incomp			150
1 ver1_main_procedure	15	1	21	<?xml version="1.0"?>\n<Clock xmlns:dt="urn:schemas-microsoft-com:datatypes"><Description dt:dt="string">E-Prime Primary Realtime Clock</Description><StartTime><Timestamp dt:dt="int">0</Timestamp><DateUtc dt:dt="string">2015-08-12T11:02:48Z</DateUtc></StartTime><FrequencyChanges><FrequencyChange><Frequency dt:dt="r8">2441416</Frequency><Timestamp dt:dt="r8">5769833900</Timestamp><Current dt:dt="r8">0</Current><DateUtc dt:dt="string">2015-08-12T11:02:48Z</DateUtc></FrequencyChange></FrequencyChanges></Clock>\n	1 ver1_main_procedure-15-1	99.927	1.0.0.880	1	hs	1475352094	prawa	1	2.0.10.356	08-12-2015	2015-08-12 11:02:49	13:02:49	mezczyzna	2.0.10.92	3	5	1	1																							d	{SPACE}		no	BlockProc2		BlockList									48	Free	dl	color_yellow.png		0	7	297478	160																								25	prime_left.png	0	297268	0	0	13	0	297268	0	297268	2	297268	20	0	-1	295769	297268	297266	0		TrialProc1	left	0		0	0	0	0		0	0	TrialList2	target_both.png	0	dl	-999999	3	297318	0	l	153	297471															7	1	48	comp			150
1 ver1_main_procedure	15	1	21	<?xml version="1.0"?>\n<Clock xmlns:dt="urn:schemas-microsoft-com:datatypes"><Description dt:dt="string">E-Prime Primary Realtime Clock</Description><StartTime><Timestamp dt:dt="int">0</Timestamp><DateUtc dt:dt="string">2015-08-12T11:02:48Z</DateUtc></StartTime><FrequencyChanges><FrequencyChange><Frequency dt:dt="r8">2441416</Frequency><Timestamp dt:dt="r8">5769833900</Timestamp><Current dt:dt="r8">0</Current><DateUtc dt:dt="string">2015-08-12T11:02:48Z</DateUtc></FrequencyChange></FrequencyChanges></Clock>\n	1 ver1_main_procedure-15-1	99.927	1.0.0.880	1	hs	1475352094	prawa	1	2.0.10.356	08-12-2015	2015-08-12 11:02:49	13:02:49	mezczyzna	2.0.10.92	3	5	1	1																							d	{SPACE}		no	BlockProc2		BlockList									49	Free	dl	color_purple.png		0	12	299759	461																			1					75	prime_left.png	0	299449	0	0	13	0	299449	0	299449	1	299449	20	0	-1	297950	299449	299448	0	prime_left.png	TrialProc1	right	0		0	0	0	0		0	0	TrialList2	target_both.png	0	dl	-999999	3	299499	0	d	248	299747															11	1	49	neut			450
1 ver1_main_procedure	15	1	21	<?xml version="1.0"?>\n<Clock xmlns:dt="urn:schemas-microsoft-com:datatypes"><Description dt:dt="string">E-Prime Primary Realtime Clock</Description><StartTime><Timestamp dt:dt="int">0</Timestamp><DateUtc dt:dt="string">2015-08-12T11:02:48Z</DateUtc></StartTime><FrequencyChanges><FrequencyChange><Frequency dt:dt="r8">2441416</Frequency><Timestamp dt:dt="r8">5769833900</Timestamp><Current dt:dt="r8">0</Current><DateUtc dt:dt="string">2015-08-12T11:02:48Z</DateUtc></FrequencyChange></FrequencyChanges></Clock>\n	1 ver1_main_procedure-15-1	99.927	1.0.0.880	1	hs	1475352094	prawa	1	2.0.10.356	08-12-2015	2015-08-12 11:02:49	13:02:49	mezczyzna	2.0.10.92	3	5	1	1																							d	{SPACE}		no	BlockProc2		BlockList									50	Cued	l	color_blue.png		0	14	302231	461																								75	prime_right.png	0	302031	0	0	13	0	302031	0	302031	1	302031	20	0	-1	300532	302031	302030	0		TrialProc1	right	0		0	0	0	0		0	0	TrialList2	target_right.png	1	l	-999999	3	302081	0	l	136	302217															4	1	50	comp			450
1 ver1_main_procedure	15	1	21	<?xml version="1.0"?>\n<Clock xmlns:dt="urn:schemas-microsoft-com:datatypes"><Description dt:dt="string">E-Prime Primary Realtime Clock</Description><StartTime><Timestamp dt:dt="int">0</Timestamp><DateUtc dt:dt="string">2015-08-12T11:02:48Z</DateUtc></StartTime><FrequencyChanges><FrequencyChange><Frequency dt:dt="r8">2441416</Frequency><Timestamp dt:dt="r8">5769833900</Timestamp><Current dt:dt="r8">0</Current><DateUtc dt:dt="string">2015-08-12T11:02:48Z</DateUtc></FrequencyChange></FrequencyChanges></Clock>\n	1 ver1_main_procedure-15-1	99.927	1.0.0.880	1	hs	1475352094	prawa	1	2.0.10.356	08-12-2015	2015-08-12 11:02:49	13:02:49	mezczyzna	2.0.10.92	3	5	1	1																							d	{SPACE}		no	BlockProc2		BlockList									51	Free	dl	color_purple.png		0	12	304723	160																			2					75	prime_right.png	0	304503	0	0	13	0	304503	0	304503	1	304503	20	0	-1	303004	304503	304502	0	prime_right.png	TrialProc1	left	0		0	0	0	0		0	0	TrialList2	target_both.png	0	dl	-999999	3	304553	0	d	158	304711															8	1	51	neut			150
1 ver1_main_procedure	15	1	21	<?xml version="1.0"?>\n<Clock xmlns:dt="urn:schemas-microsoft-com:datatypes"><Description dt:dt="string">E-Prime Primary Realtime Clock</Description><StartTime><Timestamp dt:dt="int">0</Timestamp><DateUtc dt:dt="string">2015-08-12T11:02:48Z</DateUtc></StartTime><FrequencyChanges><FrequencyChange><Frequency dt:dt="r8">2441416</Frequency><Timestamp dt:dt="r8">5769833900</Timestamp><Current dt:dt="r8">0</Current><DateUtc dt:dt="string">2015-08-12T11:02:48Z</DateUtc></FrequencyChange></FrequencyChanges></Clock>\n	1 ver1_main_procedure-15-1	99.927	1.0.0.880	1	hs	1475352094	prawa	1	2.0.10.356	08-12-2015	2015-08-12 11:02:49	13:02:49	mezczyzna	2.0.10.92	3	5	1	1																							d	{SPACE}		no	BlockProc2		BlockList									52	Free	dl	color_blue.png		0	13	306965	460																								25	prime_right.png	0	306695	0	0	13	0	306695	0	306695	2	306695	20	0	-1	305196	306695	306693	0		TrialProc1	right	0		0	0	0	0		0	0	TrialList2	target_both.png	0	dl	-999999	3	306745	0	l	207	306952															10	1	52	comp			450
1 ver1_main_procedure	15	1	21	<?xml version="1.0"?>\n<Clock xmlns:dt="urn:schemas-microsoft-com:datatypes"><Description dt:dt="string">E-Prime Primary Realtime Clock</Description><StartTime><Timestamp dt:dt="int">0</Timestamp><DateUtc dt:dt="string">2015-08-12T11:02:48Z</DateUtc></StartTime><FrequencyChanges><FrequencyChange><Frequency dt:dt="r8">2441416</Frequency><Timestamp dt:dt="r8">5769833900</Timestamp><Current dt:dt="r8">0</Current><DateUtc dt:dt="string">2015-08-12T11:02:48Z</DateUtc></FrequencyChange></FrequencyChanges></Clock>\n	1 ver1_main_procedure-15-1	99.927	1.0.0.880	1	hs	1475352094	prawa	1	2.0.10.356	08-12-2015	2015-08-12 11:02:49	13:02:49	mezczyzna	2.0.10.92	3	5	1	1																							d	{SPACE}		no	BlockProc2		BlockList									53	Cued	l			0	9	309567	460																			1					25	prime_left.png	0	309236	0	0	13	1	309237	1	309237	1	309236	20	0	-1	307738	309236	309235	0	prime_left.png	TrialProc1	right	0		0	11	309547	-309547		0	0	TrialList2	target_right.png	0	l	0	3	309286	261	d	272	309558															5	1	53	neut			450
1 ver1_main_procedure	15	1	21	<?xml version="1.0"?>\n<Clock xmlns:dt="urn:schemas-microsoft-com:datatypes"><Description dt:dt="string">E-Prime Primary Realtime Clock</Description><StartTime><Timestamp dt:dt="int">0</Timestamp><DateUtc dt:dt="string">2015-08-12T11:02:48Z</DateUtc></StartTime><FrequencyChanges><FrequencyChange><Frequency dt:dt="r8">2441416</Frequency><Timestamp dt:dt="r8">5769833900</Timestamp><Current dt:dt="r8">0</Current><DateUtc dt:dt="string">2015-08-12T11:02:48Z</DateUtc></FrequencyChange></FrequencyChanges></Clock>\n	1 ver1_main_procedure-15-1	99.927	1.0.0.880	1	hs	1475352094	prawa	1	2.0.10.356	08-12-2015	2015-08-12 11:02:49	13:02:49	mezczyzna	2.0.10.92	3	5	1	1																							d	{SPACE}		no	BlockProc2		BlockList									54	Free	dl	color_yellow.png		0	15	312119	310																								75	prime_left.png	0	311838	0	0	13	0	311838	0	311838	1	311838	20	0	-1	310339	311838	311837	0		TrialProc1	left	0		0	0	0	0		0	0	TrialList2	target_both.png	0	dl	-999999	3	311888	0	l	216	312104															7	1	54	comp			300
1 ver1_main_procedure	15	1	21	<?xml version="1.0"?>\n<Clock xmlns:dt="urn:schemas-microsoft-com:datatypes"><Description dt:dt="string">E-Prime Primary Realtime Clock</Description><StartTime><Timestamp dt:dt="int">0</Timestamp><DateUtc dt:dt="string">2015-08-12T11:02:48Z</DateUtc></StartTime><FrequencyChanges><FrequencyChange><Frequency dt:dt="r8">2441416</Frequency><Timestamp dt:dt="r8">5769833900</Timestamp><Current dt:dt="r8">0</Current><DateUtc dt:dt="string">2015-08-12T11:02:48Z</DateUtc></FrequencyChange></FrequencyChanges></Clock>\n	1 ver1_main_procedure-15-1	99.927	1.0.0.880	1	hs	1475352094	prawa	1	2.0.10.356	08-12-2015	2015-08-12 11:02:49	13:02:49	mezczyzna	2.0.10.92	3	5	1	1																							d	{SPACE}		no	BlockProc2		BlockList									55	Free	dl	color_red.png		0	12	314510	461																								75	prime_right.png	0	314240	0	0	13	0	314240	0	314240	1	314240	20	0	-1	312741	314240	314239	0		TrialProc1	left	0		0	0	0	0		0	0	TrialList2	target_both.png	0	dl	-999999	3	314290	0	d	208	314498															9	1	55	incomp			450
1 ver1_main_procedure	15	1	21	<?xml version="1.0"?>\n<Clock xmlns:dt="urn:schemas-microsoft-com:datatypes"><Description dt:dt="string">E-Prime Primary Realtime Clock</Description><StartTime><Timestamp dt:dt="int">0</Timestamp><DateUtc dt:dt="string">2015-08-12T11:02:48Z</DateUtc></StartTime><FrequencyChanges><FrequencyChange><Frequency dt:dt="r8">2441416</Frequency><Timestamp dt:dt="r8">5769833900</Timestamp><Current dt:dt="r8">0</Current><DateUtc dt:dt="string">2015-08-12T11:02:48Z</DateUtc></FrequencyChange></FrequencyChanges></Clock>\n	1 ver1_main_procedure-15-1	99.927	1.0.0.880	1	hs	1475352094	prawa	1	2.0.10.356	08-12-2015	2015-08-12 11:02:49	13:02:49	mezczyzna	2.0.10.92	3	5	1	1																							d	{SPACE}		no	BlockProc2		BlockList									56	Free	dl	color_orange.png		0	6	317062	160																			2					75	prime_right.png	0	316782	0	0	13	0	316782	0	316782	1	316782	20	0	-1	315283	316782	316781	0	prime_right.png	TrialProc1	left	0		0	0	0	0		0	0	TrialList2	target_both.png	0	dl	-999999	3	316832	0	l	224	317056															8	1	56	neut			150
1 ver1_main_procedure	15	1	21	<?xml version="1.0"?>\n<Clock xmlns:dt="urn:schemas-microsoft-com:datatypes"><Description dt:dt="string">E-Prime Primary Realtime Clock</Description><StartTime><Timestamp dt:dt="int">0</Timestamp><DateUtc dt:dt="string">2015-08-12T11:02:48Z</DateUtc></StartTime><FrequencyChanges><FrequencyChange><Frequency dt:dt="r8">2441416</Frequency><Timestamp dt:dt="r8">5769833900</Timestamp><Current dt:dt="r8">0</Current><DateUtc dt:dt="string">2015-08-12T11:02:48Z</DateUtc></FrequencyChange></FrequencyChanges></Clock>\n	1 ver1_main_procedure-15-1	99.927	1.0.0.880	1	hs	1475352094	prawa	1	2.0.10.356	08-12-2015	2015-08-12 11:02:49	13:02:49	mezczyzna	2.0.10.92	3	5	1	1																							d	{SPACE}		no	BlockProc2		BlockList									57	Cued	l			0	10	319374	160																								75	prime_left.png	0	319034	0	0	13	0	319034	0	319034	1	319034	20	0	-1	317535	319034	319033	0		TrialProc1	right	0		0	10	319344	-319344		0	0	TrialList2	target_right.png	0	l	0	3	319084	260	d	280	319364															6	1	57	incomp			150
1 ver1_main_procedure	15	1	21	<?xml version="1.0"?>\n<Clock xmlns:dt="urn:schemas-microsoft-com:datatypes"><Description dt:dt="string">E-Prime Primary Realtime Clock</Description><StartTime><Timestamp dt:dt="int">0</Timestamp><DateUtc dt:dt="string">2015-08-12T11:02:48Z</DateUtc></StartTime><FrequencyChanges><FrequencyChange><Frequency dt:dt="r8">2441416</Frequency><Timestamp dt:dt="r8">5769833900</Timestamp><Current dt:dt="r8">0</Current><DateUtc dt:dt="string">2015-08-12T11:02:48Z</DateUtc></FrequencyChange></FrequencyChanges></Clock>\n	1 ver1_main_procedure-15-1	99.927	1.0.0.880	1	hs	1475352094	prawa	1	2.0.10.356	08-12-2015	2015-08-12 11:02:49	13:02:49	mezczyzna	2.0.10.92	3	5	1	1																							d	{SPACE}		no	BlockProc2		BlockList									58	Free	dl	color_orange.png		0	12	321546	160																			1					25	prime_left.png	1	321346	0	0	13	1	321346	1	321346	1	321345	20	0	-1	319847	321345	321344	0	prime_left.png	TrialProc1	right	0		0	0	0	0		0	0	TrialList2	target_both.png	0	dl	-999999	3	321395	0	l	139	321534															11	1	58	neut			150
1 ver1_main_procedure	15	1	21	<?xml version="1.0"?>\n<Clock xmlns:dt="urn:schemas-microsoft-com:datatypes"><Description dt:dt="string">E-Prime Primary Realtime Clock</Description><StartTime><Timestamp dt:dt="int">0</Timestamp><DateUtc dt:dt="string">2015-08-12T11:02:48Z</DateUtc></StartTime><FrequencyChanges><FrequencyChange><Frequency dt:dt="r8">2441416</Frequency><Timestamp dt:dt="r8">5769833900</Timestamp><Current dt:dt="r8">0</Current><DateUtc dt:dt="string">2015-08-12T11:02:48Z</DateUtc></FrequencyChange></FrequencyChanges></Clock>\n	1 ver1_main_procedure-15-1	99.927	1.0.0.880	1	hs	1475352094	prawa	1	2.0.10.356	08-12-2015	2015-08-12 11:02:49	13:02:49	mezczyzna	2.0.10.92	3	5	1	1																							d	{SPACE}		no	BlockProc2		BlockList									59	Cued	d	color_purple.png		0	8	323747	461																			2					75	prime_right.png	0	323517	0	0	13	0	323517	0	323517	1	323517	20	0	-1	322018	323517	323516	0	prime_right.png	TrialProc1	left	0		0	0	0	0		0	0	TrialList2	target_left.png	1	d	-999999	3	323567	0	d	172	323739															2	1	59	neut			450
1 ver1_main_procedure	15	1	21	<?xml version="1.0"?>\n<Clock xmlns:dt="urn:schemas-microsoft-com:datatypes"><Description dt:dt="string">E-Prime Primary Realtime Clock</Description><StartTime><Timestamp dt:dt="int">0</Timestamp><DateUtc dt:dt="string">2015-08-12T11:02:48Z</DateUtc></StartTime><FrequencyChanges><FrequencyChange><Frequency dt:dt="r8">2441416</Frequency><Timestamp dt:dt="r8">5769833900</Timestamp><Current dt:dt="r8">0</Current><DateUtc dt:dt="string">2015-08-12T11:02:48Z</DateUtc></FrequencyChange></FrequencyChanges></Clock>\n	1 ver1_main_procedure-15-1	99.927	1.0.0.880	1	hs	1475352094	prawa	1	2.0.10.356	08-12-2015	2015-08-12 11:02:49	13:02:49	mezczyzna	2.0.10.92	3	5	1	1																							d	{SPACE}		no	BlockProc2		BlockList									60	Cued	d			0	14	326299	460																								75	prime_left.png	0	326019	0	0	13	0	326019	0	326019	1	326019	20	0	-1	324520	326019	326018	0		TrialProc1	left	0		0	0	0	0		0	0	TrialList2	target_left.png	0	d	-999999	3	326069	0	l	216	326285															1	1	60	comp			450
1 ver1_main_procedure	15	1	21	<?xml version="1.0"?>\n<Clock xmlns:dt="urn:schemas-microsoft-com:datatypes"><Description dt:dt="string">E-Prime Primary Realtime Clock</Description><StartTime><Timestamp dt:dt="int">0</Timestamp><DateUtc dt:dt="string">2015-08-12T11:02:48Z</DateUtc></StartTime><FrequencyChanges><FrequencyChange><Frequency dt:dt="r8">2441416</Frequency><Timestamp dt:dt="r8">5769833900</Timestamp><Current dt:dt="r8">0</Current><DateUtc dt:dt="string">2015-08-12T11:02:48Z</DateUtc></FrequencyChange></FrequencyChanges></Clock>\n	1 ver1_main_procedure-15-1	99.927	1.0.0.880	1	hs	1475352094	prawa	1	2.0.10.356	08-12-2015	2015-08-12 11:02:49	13:02:49	mezczyzna	2.0.10.92	3	5	1	1																							d	{SPACE}		no	BlockProc2		BlockList									61	Cued	d	color_green.png		0	8	328791	160																								75	prime_left.png	0	328571	0	0	13	0	328571	0	328571	1	328571	20	0	-1	327072	328571	328570	0		TrialProc1	left	0		0	0	0	0		0	0	TrialList2	target_left.png	1	d	-999999	3	328621	0	d	162	328783															1	1	61	comp			150
1 ver1_main_procedure	15	1	21	<?xml version="1.0"?>\n<Clock xmlns:dt="urn:schemas-microsoft-com:datatypes"><Description dt:dt="string">E-Prime Primary Realtime Clock</Description><StartTime><Timestamp dt:dt="int">0</Timestamp><DateUtc dt:dt="string">2015-08-12T11:02:48Z</DateUtc></StartTime><FrequencyChanges><FrequencyChange><Frequency dt:dt="r8">2441416</Frequency><Timestamp dt:dt="r8">5769833900</Timestamp><Current dt:dt="r8">0</Current><DateUtc dt:dt="string">2015-08-12T11:02:48Z</DateUtc></FrequencyChange></FrequencyChanges></Clock>\n	1 ver1_main_procedure-15-1	99.927	1.0.0.880	1	hs	1475352094	prawa	1	2.0.10.356	08-12-2015	2015-08-12 11:02:49	13:02:49	mezczyzna	2.0.10.92	3	5	1	1																							d	{SPACE}		no	BlockProc2		BlockList									62	Free	dl	color_orange.png		0	8	331133	460																			1					25	prime_left.png	0	330762	0	0	13	0	330763	0	330762	1	330762	20	0	-1	329264	330762	330761	0	prime_left.png	TrialProc1	right	0		0	11	331073	-331073		0	0	TrialList2	target_both.png	0	dl	0	3	330812	261	l	313	331125															11	1	62	neut			450
1 ver1_main_procedure	15	1	21	<?xml version="1.0"?>\n<Clock xmlns:dt="urn:schemas-microsoft-com:datatypes"><Description dt:dt="string">E-Prime Primary Realtime Clock</Description><StartTime><Timestamp dt:dt="int">0</Timestamp><DateUtc dt:dt="string">2015-08-12T11:02:48Z</DateUtc></StartTime><FrequencyChanges><FrequencyChange><Frequency dt:dt="r8">2441416</Frequency><Timestamp dt:dt="r8">5769833900</Timestamp><Current dt:dt="r8">0</Current><DateUtc dt:dt="string">2015-08-12T11:02:48Z</DateUtc></FrequencyChange></FrequencyChanges></Clock>\n	1 ver1_main_procedure-15-1	99.927	1.0.0.880	1	hs	1475352094	prawa	1	2.0.10.356	08-12-2015	2015-08-12 11:02:49	13:02:49	mezczyzna	2.0.10.92	3	5	1	1																							d	{SPACE}		no	BlockProc2		BlockList									63	Free	dl	color_red.png		0	14	333635	310																								25	prime_right.png	0	333404	0	0	13	0	333405	0	333404	1	333404	20	0	-1	331905	333404	333403	0		TrialProc1	left	0		0	0	0	0		0	0	TrialList2	target_both.png	0	dl	-999999	3	333454	0	d	167	333621															9	1	63	incomp			300
1 ver1_main_procedure	15	1	21	<?xml version="1.0"?>\n<Clock xmlns:dt="urn:schemas-microsoft-com:datatypes"><Description dt:dt="string">E-Prime Primary Realtime Clock</Description><StartTime><Timestamp dt:dt="int">0</Timestamp><DateUtc dt:dt="string">2015-08-12T11:02:48Z</DateUtc></StartTime><FrequencyChanges><FrequencyChange><Frequency dt:dt="r8">2441416</Frequency><Timestamp dt:dt="r8">5769833900</Timestamp><Current dt:dt="r8">0</Current><DateUtc dt:dt="string">2015-08-12T11:02:48Z</DateUtc></FrequencyChange></FrequencyChanges></Clock>\n	1 ver1_main_procedure-15-1	99.927	1.0.0.880	1	hs	1475352094	prawa	1	2.0.10.356	08-12-2015	2015-08-12 11:02:49	13:02:49	mezczyzna	2.0.10.92	3	5	1	1																							d	{SPACE}		no	BlockProc2		BlockList									64	Free	dl	color_yellow.png		0	6	336036	461																								25	prime_left.png	0	335756	0	0	13	0	335756	0	335756	1	335756	20	0	-1	334257	335756	335755	0		TrialProc1	left	0		0	0	0	0		0	0	TrialList2	target_both.png	0	dl	-999999	3	335806	0	l	224	336030															7	1	64	comp			450
1 ver1_main_procedure	15	1	21	<?xml version="1.0"?>\n<Clock xmlns:dt="urn:schemas-microsoft-com:datatypes"><Description dt:dt="string">E-Prime Primary Realtime Clock</Description><StartTime><Timestamp dt:dt="int">0</Timestamp><DateUtc dt:dt="string">2015-08-12T11:02:48Z</DateUtc></StartTime><FrequencyChanges><FrequencyChange><Frequency dt:dt="r8">2441416</Frequency><Timestamp dt:dt="r8">5769833900</Timestamp><Current dt:dt="r8">0</Current><DateUtc dt:dt="string">2015-08-12T11:02:48Z</DateUtc></FrequencyChange></FrequencyChanges></Clock>\n	1 ver1_main_procedure-15-1	99.927	1.0.0.880	1	hs	1475352094	prawa	1	2.0.10.356	08-12-2015	2015-08-12 11:02:49	13:02:49	mezczyzna	2.0.10.92	3	5	1	1																							d	{SPACE}		no	BlockProc2		BlockList									65	Free	dl	color_purple.png		0	6	338688	461																			2					25	prime_right.png	0	338308	0	0	13	0	338308	0	338308	1	338308	20	0	-1	336809	338308	338307	0	prime_right.png	TrialProc1	right	0		0	10	338618	-338618		0	0	TrialList2	target_both.png	0	dl	0	3	338358	260	d	324	338682															11	1	65	neut			450
1 ver1_main_procedure	15	1	21	<?xml version="1.0"?>\n<Clock xmlns:dt="urn:schemas-microsoft-com:datatypes"><Description dt:dt="string">E-Prime Primary Realtime Clock</Description><StartTime><Timestamp dt:dt="int">0</Timestamp><DateUtc dt:dt="string">2015-08-12T11:02:48Z</DateUtc></StartTime><FrequencyChanges><FrequencyChange><Frequency dt:dt="r8">2441416</Frequency><Timestamp dt:dt="r8">5769833900</Timestamp><Current dt:dt="r8">0</Current><DateUtc dt:dt="string">2015-08-12T11:02:48Z</DateUtc></FrequencyChange></FrequencyChanges></Clock>\n	1 ver1_main_procedure-15-1	99.927	1.0.0.880	1	hs	1475352094	prawa	1	2.0.10.356	08-12-2015	2015-08-12 11:02:49	13:02:49	mezczyzna	2.0.10.92	3	5	1	1																							d	{SPACE}		no	BlockProc2		BlockList									66	Cued	d			0	9	341220	460																								25	prime_left.png	0	340960	0	0	13	0	340960	0	340960	1	340960	20	0	-1	339461	340960	340959	0		TrialProc1	left	0		0	0	0	0		0	0	TrialList2	target_left.png	0	d	-999999	3	341010	0	l	201	341211															1	1	66	comp			450
1 ver1_main_procedure	15	1	21	<?xml version="1.0"?>\n<Clock xmlns:dt="urn:schemas-microsoft-com:datatypes"><Description dt:dt="string">E-Prime Primary Realtime Clock</Description><StartTime><Timestamp dt:dt="int">0</Timestamp><DateUtc dt:dt="string">2015-08-12T11:02:48Z</DateUtc></StartTime><FrequencyChanges><FrequencyChange><Frequency dt:dt="r8">2441416</Frequency><Timestamp dt:dt="r8">5769833900</Timestamp><Current dt:dt="r8">0</Current><DateUtc dt:dt="string">2015-08-12T11:02:48Z</DateUtc></FrequencyChange></FrequencyChanges></Clock>\n	1 ver1_main_procedure-15-1	99.927	1.0.0.880	1	hs	1475352094	prawa	1	2.0.10.356	08-12-2015	2015-08-12 11:02:49	13:02:49	mezczyzna	2.0.10.92	3	5	1	1																							d	{SPACE}		no	BlockProc2		BlockList									67	Free	dl	color_green.png		0	7	343702	310																								25	prime_left.png	0	343492	0	0	13	0	343492	0	343492	1	343492	20	0	-1	341993	343492	343491	0		TrialProc1	right	0		0	0	0	0		0	0	TrialList2	target_both.png	0	dl	-999999	3	343542	0	d	153	343695															12	1	67	incomp			300
1 ver1_main_procedure	15	1	21	<?xml version="1.0"?>\n<Clock xmlns:dt="urn:schemas-microsoft-com:datatypes"><Description dt:dt="string">E-Prime Primary Realtime Clock</Description><StartTime><Timestamp dt:dt="int">0</Timestamp><DateUtc dt:dt="string">2015-08-12T11:02:48Z</DateUtc></StartTime><FrequencyChanges><FrequencyChange><Frequency dt:dt="r8">2441416</Frequency><Timestamp dt:dt="r8">5769833900</Timestamp><Current dt:dt="r8">0</Current><DateUtc dt:dt="string">2015-08-12T11:02:48Z</DateUtc></FrequencyChange></FrequencyChanges></Clock>\n	1 ver1_main_procedure-15-1	99.927	1.0.0.880	1	hs	1475352094	prawa	1	2.0.10.356	08-12-2015	2015-08-12 11:02:49	13:02:49	mezczyzna	2.0.10.92	3	5	1	1																							d	{SPACE}		no	BlockProc2		BlockList									68	Free	dl	color_yellow.png		0	9	346064	460																								75	prime_left.png	0	345824	0	0	13	0	345824	0	345824	2	345824	20	0	-1	344325	345824	345822	0		TrialProc1	left	0		0	0	0	0		0	0	TrialList2	target_both.png	0	dl	-999999	3	345874	0	l	181	346055															7	1	68	comp			450
1 ver1_main_procedure	15	1	21	<?xml version="1.0"?>\n<Clock xmlns:dt="urn:schemas-microsoft-com:datatypes"><Description dt:dt="string">E-Prime Primary Realtime Clock</Description><StartTime><Timestamp dt:dt="int">0</Timestamp><DateUtc dt:dt="string">2015-08-12T11:02:48Z</DateUtc></StartTime><FrequencyChanges><FrequencyChange><Frequency dt:dt="r8">2441416</Frequency><Timestamp dt:dt="r8">5769833900</Timestamp><Current dt:dt="r8">0</Current><DateUtc dt:dt="string">2015-08-12T11:02:48Z</DateUtc></FrequencyChange></FrequencyChanges></Clock>\n	1 ver1_main_procedure-15-1	99.927	1.0.0.880	1	hs	1475352094	prawa	1	2.0.10.356	08-12-2015	2015-08-12 11:02:49	13:02:49	mezczyzna	2.0.10.92	3	5	1	1																							d	{SPACE}		no	BlockProc2		BlockList									69	Free	dl	color_green.png		0	9	348856	460																								25	prime_left.png	0	348335	0	0	13	1	348336	1	348336	1	348335	20	0	-1	346837	348335	348334	0		TrialProc1	left	0		0	11	348646	-348646		0	0	TrialList2	target_both.png	0	dl	0	3	348385	261	d	462	348847															7	1	69	comp			450
1 ver1_main_procedure	15	1	21	<?xml version="1.0"?>\n<Clock xmlns:dt="urn:schemas-microsoft-com:datatypes"><Description dt:dt="string">E-Prime Primary Realtime Clock</Description><StartTime><Timestamp dt:dt="int">0</Timestamp><DateUtc dt:dt="string">2015-08-12T11:02:48Z</DateUtc></StartTime><FrequencyChanges><FrequencyChange><Frequency dt:dt="r8">2441416</Frequency><Timestamp dt:dt="r8">5769833900</Timestamp><Current dt:dt="r8">0</Current><DateUtc dt:dt="string">2015-08-12T11:02:48Z</DateUtc></FrequencyChange></FrequencyChanges></Clock>\n	1 ver1_main_procedure-15-1	99.927	1.0.0.880	1	hs	1475352094	prawa	1	2.0.10.356	08-12-2015	2015-08-12 11:02:49	13:02:49	mezczyzna	2.0.10.92	3	5	1	1																							d	{SPACE}		no	BlockProc2		BlockList									70	Free	dl	color_orange.png		0	15	351338	310																			1					25	prime_left.png	0	351128	0	0	13	0	351128	0	351128	2	351128	20	0	-1	349629	351128	351126	0	prime_left.png	TrialProc1	right	0		0	0	0	0		0	0	TrialList2	target_both.png	0	dl	-999999	3	351178	0	l	145	351323															11	1	70	neut			300
1 ver1_main_procedure	15	1	21	<?xml version="1.0"?>\n<Clock xmlns:dt="urn:schemas-microsoft-com:datatypes"><Description dt:dt="string">E-Prime Primary Realtime Clock</Description><StartTime><Timestamp dt:dt="int">0</Timestamp><DateUtc dt:dt="string">2015-08-12T11:02:48Z</DateUtc></StartTime><FrequencyChanges><FrequencyChange><Frequency dt:dt="r8">2441416</Frequency><Timestamp dt:dt="r8">5769833900</Timestamp><Current dt:dt="r8">0</Current><DateUtc dt:dt="string">2015-08-12T11:02:48Z</DateUtc></FrequencyChange></FrequencyChanges></Clock>\n	1 ver1_main_procedure-15-1	99.927	1.0.0.880	1	hs	1475352094	prawa	1	2.0.10.356	08-12-2015	2015-08-12 11:02:49	13:02:49	mezczyzna	2.0.10.92	3	5	1	1																							d	{SPACE}		no	BlockProc2		BlockList									71	Free	dl	color_red.png		0	10	353679	461																								25	prime_right.png	0	353459	0	0	13	0	353459	0	353459	1	353459	20	0	-1	351960	353459	353458	0		TrialProc1	left	0		0	0	0	0		0	0	TrialList2	target_both.png	0	dl	-999999	3	353509	0	d	160	353669															9	1	71	incomp			450
1 ver1_main_procedure	15	1	21	<?xml version="1.0"?>\n<Clock xmlns:dt="urn:schemas-microsoft-com:datatypes"><Description dt:dt="string">E-Prime Primary Realtime Clock</Description><StartTime><Timestamp dt:dt="int">0</Timestamp><DateUtc dt:dt="string">2015-08-12T11:02:48Z</DateUtc></StartTime><FrequencyChanges><FrequencyChange><Frequency dt:dt="r8">2441416</Frequency><Timestamp dt:dt="r8">5769833900</Timestamp><Current dt:dt="r8">0</Current><DateUtc dt:dt="string">2015-08-12T11:02:48Z</DateUtc></FrequencyChange></FrequencyChanges></Clock>\n	1 ver1_main_procedure-15-1	99.927	1.0.0.880	1	hs	1475352094	prawa	1	2.0.10.356	08-12-2015	2015-08-12 11:02:49	13:02:49	mezczyzna	2.0.10.92	3	5	1	1																							d	{SPACE}		no	BlockProc2		BlockList									72	Free	dl	color_blue.png		0	14	356201	310																								75	prime_right.png	0	355951	0	0	13	0	355951	0	355951	1	355951	20	0	-1	354452	355951	355950	0		TrialProc1	left	0		0	0	0	0		0	0	TrialList2	target_both.png	0	dl	-999999	3	356001	0	l	186	356187															9	1	72	incomp			300
1 ver1_main_procedure	15	1	21	<?xml version="1.0"?>\n<Clock xmlns:dt="urn:schemas-microsoft-com:datatypes"><Description dt:dt="string">E-Prime Primary Realtime Clock</Description><StartTime><Timestamp dt:dt="int">0</Timestamp><DateUtc dt:dt="string">2015-08-12T11:02:48Z</DateUtc></StartTime><FrequencyChanges><FrequencyChange><Frequency dt:dt="r8">2441416</Frequency><Timestamp dt:dt="r8">5769833900</Timestamp><Current dt:dt="r8">0</Current><DateUtc dt:dt="string">2015-08-12T11:02:48Z</DateUtc></FrequencyChange></FrequencyChanges></Clock>\n	1 ver1_main_procedure-15-1	99.927	1.0.0.880	1	hs	1475352094	prawa	1	2.0.10.356	08-12-2015	2015-08-12 11:02:49	13:02:49	mezczyzna	2.0.10.92	3	5	1	1																							d	{SPACE}		no	BlockProc2		BlockList									73									4	5	6	2	3	1	color_green.png	color_yellow.png	color_purple.png	color_blue.png	color_red.png	color_orange.png	color_orange.png	color_blue.png	color_red.png	color_green.png	color_yellow.png	color_purple.png		1	1	1	44140																						DragProc											Ocena																															
1 ver1_main_procedure	15	1	21	<?xml version="1.0"?>\n<Clock xmlns:dt="urn:schemas-microsoft-com:datatypes"><Description dt:dt="string">E-Prime Primary Realtime Clock</Description><StartTime><Timestamp dt:dt="int">0</Timestamp><DateUtc dt:dt="string">2015-08-12T11:02:48Z</DateUtc></StartTime><FrequencyChanges><FrequencyChange><Frequency dt:dt="r8">2441416</Frequency><Timestamp dt:dt="r8">5769833900</Timestamp><Current dt:dt="r8">0</Current><DateUtc dt:dt="string">2015-08-12T11:02:48Z</DateUtc></FrequencyChange></FrequencyChanges></Clock>\n	1 ver1_main_procedure-15-1	99.927	1.0.0.880	1	hs	1475352094	prawa	1	2.0.10.356	08-12-2015	2015-08-12 11:02:49	13:02:49	mezczyzna	2.0.10.92	3	5	1	1																							d	{SPACE}		no	BlockProc2		BlockList									74															color_green.png	color_yellow.png	color_purple.png	color_blue.png	color_red.png	color_orange.png								2	1	2																							EnterProc											Ocena												11	22	33	44	55	66														
1 ver1_main_procedure	15	1	21	<?xml version="1.0"?>\n<Clock xmlns:dt="urn:schemas-microsoft-com:datatypes"><Description dt:dt="string">E-Prime Primary Realtime Clock</Description><StartTime><Timestamp dt:dt="int">0</Timestamp><DateUtc dt:dt="string">2015-08-12T11:02:48Z</DateUtc></StartTime><FrequencyChanges><FrequencyChange><Frequency dt:dt="r8">2441416</Frequency><Timestamp dt:dt="r8">5769833900</Timestamp><Current dt:dt="r8">0</Current><DateUtc dt:dt="string">2015-08-12T11:02:48Z</DateUtc></FrequencyChange></FrequencyChanges></Clock>\n	1 ver1_main_procedure-15-1	99.927	1.0.0.880	1	hs	1475352094	prawa	1	2.0.10.356	08-12-2015	2015-08-12 11:02:49	13:02:49	mezczyzna	2.0.10.92	4	3	1	2																							l	{SPACE}		no	BlockProc1		BlockList									1	Free	dl	color_yellow.png		0	14	548554	310																								25	prime_right.png	0	548174	0	0	13	0	548174	0	548174	2	548174	20	0	-1	546675	548174	548172	0		TrialProc1	right	0		0	10	548484	-548484		0	0	TrialList1	target_both.png	0	dl	0	3	548224	260	l	316	548540												10	1	1				comp			300
1 ver1_main_procedure	15	1	21	<?xml version="1.0"?>\n<Clock xmlns:dt="urn:schemas-microsoft-com:datatypes"><Description dt:dt="string">E-Prime Primary Realtime Clock</Description><StartTime><Timestamp dt:dt="int">0</Timestamp><DateUtc dt:dt="string">2015-08-12T11:02:48Z</DateUtc></StartTime><FrequencyChanges><FrequencyChange><Frequency dt:dt="r8">2441416</Frequency><Timestamp dt:dt="r8">5769833900</Timestamp><Current dt:dt="r8">0</Current><DateUtc dt:dt="string">2015-08-12T11:02:48Z</DateUtc></FrequencyChange></FrequencyChanges></Clock>\n	1 ver1_main_procedure-15-1	99.927	1.0.0.880	1	hs	1475352094	prawa	1	2.0.10.356	08-12-2015	2015-08-12 11:02:49	13:02:49	mezczyzna	2.0.10.92	4	3	1	2																							l	{SPACE}		no	BlockProc1		BlockList									2	Cued	d	color_blue.png		0	8	551076	310																			2					25	prime_right.png	1	550676	0	0	13	1	550676	1	550676	1	550675	21	0	-1	549177	550675	550674	0	prime_right.png	TrialProc1	left	0		0	10	550986	-550986		0	0	TrialList1	target_left.png	1	d	0	3	550726	260	d	342	551068												2	1	2				neut			300
1 ver1_main_procedure	15	1	21	<?xml version="1.0"?>\n<Clock xmlns:dt="urn:schemas-microsoft-com:datatypes"><Description dt:dt="string">E-Prime Primary Realtime Clock</Description><StartTime><Timestamp dt:dt="int">0</Timestamp><DateUtc dt:dt="string">2015-08-12T11:02:48Z</DateUtc></StartTime><FrequencyChanges><FrequencyChange><Frequency dt:dt="r8">2441416</Frequency><Timestamp dt:dt="r8">5769833900</Timestamp><Current dt:dt="r8">0</Current><DateUtc dt:dt="string">2015-08-12T11:02:48Z</DateUtc></FrequencyChange></FrequencyChanges></Clock>\n	1 ver1_main_procedure-15-1	99.927	1.0.0.880	1	hs	1475352094	prawa	1	2.0.10.356	08-12-2015	2015-08-12 11:02:49	13:02:49	mezczyzna	2.0.10.92	4	3	1	2																							l	{SPACE}		no	BlockProc1		BlockList									3	Free	dl	color_yellow.png		0	7	553317	461																								25	prime_right.png	0	553197	0	0	13	0	553197	0	553197	1	553197	20	0	-1	551699	553197	553196	0		TrialProc1	left	0		0	0	0	0		0	0	TrialList1	target_both.png	0	dl	-999999	3	553247	0	l	63	553310												9	1	3				incomp			450
1 ver1_main_procedure	15	1	21	<?xml version="1.0"?>\n<Clock xmlns:dt="urn:schemas-microsoft-com:datatypes"><Description dt:dt="string">E-Prime Primary Realtime Clock</Description><StartTime><Timestamp dt:dt="int">0</Timestamp><DateUtc dt:dt="string">2015-08-12T11:02:48Z</DateUtc></StartTime><FrequencyChanges><FrequencyChange><Frequency dt:dt="r8">2441416</Frequency><Timestamp dt:dt="r8">5769833900</Timestamp><Current dt:dt="r8">0</Current><DateUtc dt:dt="string">2015-08-12T11:02:48Z</DateUtc></FrequencyChange></FrequencyChanges></Clock>\n	1 ver1_main_procedure-15-1	99.927	1.0.0.880	1	hs	1475352094	prawa	1	2.0.10.356	08-12-2015	2015-08-12 11:02:49	13:02:49	mezczyzna	2.0.10.92	4	3	1	2																							l	{SPACE}		no	BlockProc1		BlockList									4	Free	dl	color_purple.png		0	13	555869	311																								75	prime_left.png	0	555589	0	0	13	0	555589	0	555589	1	555589	20	0	-1	554090	555589	555588	0		TrialProc1	right	0		0	0	0	0		0	0	TrialList1	target_both.png	0	dl	-999999	3	555639	0	d	217	555856												12	1	4				incomp			300
1 ver1_main_procedure	15	1	21	<?xml version="1.0"?>\n<Clock xmlns:dt="urn:schemas-microsoft-com:datatypes"><Description dt:dt="string">E-Prime Primary Realtime Clock</Description><StartTime><Timestamp dt:dt="int">0</Timestamp><DateUtc dt:dt="string">2015-08-12T11:02:48Z</DateUtc></StartTime><FrequencyChanges><FrequencyChange><Frequency dt:dt="r8">2441416</Frequency><Timestamp dt:dt="r8">5769833900</Timestamp><Current dt:dt="r8">0</Current><DateUtc dt:dt="string">2015-08-12T11:02:48Z</DateUtc></FrequencyChange></FrequencyChanges></Clock>\n	1 ver1_main_procedure-15-1	99.927	1.0.0.880	1	hs	1475352094	prawa	1	2.0.10.356	08-12-2015	2015-08-12 11:02:49	13:02:49	mezczyzna	2.0.10.92	4	3	1	2																							l	{SPACE}		no	BlockProc1		BlockList									5	Free	dl	color_red.png		0	9	558221	460																			1					75	prime_left.png	0	557991	0	0	13	0	557991	0	557991	1	557991	20	0	-1	556492	557991	557990	0	prime_left.png	TrialProc1	right	0		0	0	0	0		0	0	TrialList1	target_both.png	0	dl	-999999	3	558041	0	l	171	558212												11	1	5				neut			450
1 ver1_main_procedure	15	1	21	<?xml version="1.0"?>\n<Clock xmlns:dt="urn:schemas-microsoft-com:datatypes"><Description dt:dt="string">E-Prime Primary Realtime Clock</Description><StartTime><Timestamp dt:dt="int">0</Timestamp><DateUtc dt:dt="string">2015-08-12T11:02:48Z</DateUtc></StartTime><FrequencyChanges><FrequencyChange><Frequency dt:dt="r8">2441416</Frequency><Timestamp dt:dt="r8">5769833900</Timestamp><Current dt:dt="r8">0</Current><DateUtc dt:dt="string">2015-08-12T11:02:48Z</DateUtc></FrequencyChange></FrequencyChanges></Clock>\n	1 ver1_main_procedure-15-1	99.927	1.0.0.880	1	hs	1475352094	prawa	1	2.0.10.356	08-12-2015	2015-08-12 11:02:49	13:02:49	mezczyzna	2.0.10.92	4	3	1	2																							l	{SPACE}		no	BlockProc1		BlockList									6	Cued	l			0	10	560683	460																								75	prime_left.png	0	560493	0	0	13	0	560493	0	560493	1	560493	20	0	-1	558994	560493	560492	0		TrialProc1	right	0		0	0	0	0		0	0	TrialList1	target_right.png	0	l	-999999	3	560543	0	d	130	560673												6	1	6				incomp			450
1 ver1_main_procedure	15	1	21	<?xml version="1.0"?>\n<Clock xmlns:dt="urn:schemas-microsoft-com:datatypes"><Description dt:dt="string">E-Prime Primary Realtime Clock</Description><StartTime><Timestamp dt:dt="int">0</Timestamp><DateUtc dt:dt="string">2015-08-12T11:02:48Z</DateUtc></StartTime><FrequencyChanges><FrequencyChange><Frequency dt:dt="r8">2441416</Frequency><Timestamp dt:dt="r8">5769833900</Timestamp><Current dt:dt="r8">0</Current><DateUtc dt:dt="string">2015-08-12T11:02:48Z</DateUtc></FrequencyChange></FrequencyChanges></Clock>\n	1 ver1_main_procedure-15-1	99.927	1.0.0.880	1	hs	1475352094	prawa	1	2.0.10.356	08-12-2015	2015-08-12 11:02:49	13:02:49	mezczyzna	2.0.10.92	4	3	1	2																							l	{SPACE}		no	BlockProc1		BlockList									7	Cued	l	color_red.png		0	6	563145	460																			2					75	prime_right.png	0	562955	0	0	13	0	562955	0	562955	2	562955	20	0	-1	561456	562955	562953	0	prime_right.png	TrialProc1	right	0		0	0	0	0		0	0	TrialList1	target_right.png	1	l	-999999	3	563005	0	l	134	563139												5	1	7				neut			450
1 ver1_main_procedure	15	1	21	<?xml version="1.0"?>\n<Clock xmlns:dt="urn:schemas-microsoft-com:datatypes"><Description dt:dt="string">E-Prime Primary Realtime Clock</Description><StartTime><Timestamp dt:dt="int">0</Timestamp><DateUtc dt:dt="string">2015-08-12T11:02:48Z</DateUtc></StartTime><FrequencyChanges><FrequencyChange><Frequency dt:dt="r8">2441416</Frequency><Timestamp dt:dt="r8">5769833900</Timestamp><Current dt:dt="r8">0</Current><DateUtc dt:dt="string">2015-08-12T11:02:48Z</DateUtc></FrequencyChange></FrequencyChanges></Clock>\n	1 ver1_main_procedure-15-1	99.927	1.0.0.880	1	hs	1475352094	prawa	1	2.0.10.356	08-12-2015	2015-08-12 11:02:49	13:02:49	mezczyzna	2.0.10.92	4	3	1	2																							l	{SPACE}		no	BlockProc1		BlockList									8	Cued	d	color_blue.png		0	12	565617	160																			1					75	prime_left.png	0	565416	0	0	13	0	565417	0	565416	1	565416	20	0	-1	563918	565416	565415	0	prime_left.png	TrialProc1	left	0		0	0	0	0		0	0	TrialList1	target_left.png	1	d	-999999	3	565466	0	d	139	565605												2	1	8				neut			150
1 ver1_main_procedure	15	1	21	<?xml version="1.0"?>\n<Clock xmlns:dt="urn:schemas-microsoft-com:datatypes"><Description dt:dt="string">E-Prime Primary Realtime Clock</Description><StartTime><Timestamp dt:dt="int">0</Timestamp><DateUtc dt:dt="string">2015-08-12T11:02:48Z</DateUtc></StartTime><FrequencyChanges><FrequencyChange><Frequency dt:dt="r8">2441416</Frequency><Timestamp dt:dt="r8">5769833900</Timestamp><Current dt:dt="r8">0</Current><DateUtc dt:dt="string">2015-08-12T11:02:48Z</DateUtc></FrequencyChange></FrequencyChanges></Clock>\n	1 ver1_main_procedure-15-1	99.927	1.0.0.880	1	hs	1475352094	prawa	1	2.0.10.356	08-12-2015	2015-08-12 11:02:49	13:02:49	mezczyzna	2.0.10.92	4	3	1	2																							l	{SPACE}		no	BlockProc1		BlockList									9	Cued	l	color_orange.png		0	9	567838	461																								25	prime_left.png	0	567588	0	0	13	0	567588	0	567588	1	567588	20	0	-1	566089	567588	567587	0		TrialProc1	right	0		0	0	0	0		0	0	TrialList1	target_right.png	1	l	-999999	3	567638	0	l	191	567829												6	1	9				incomp			450
1 ver1_main_procedure	15	1	21	<?xml version="1.0"?>\n<Clock xmlns:dt="urn:schemas-microsoft-com:datatypes"><Description dt:dt="string">E-Prime Primary Realtime Clock</Description><StartTime><Timestamp dt:dt="int">0</Timestamp><DateUtc dt:dt="string">2015-08-12T11:02:48Z</DateUtc></StartTime><FrequencyChanges><FrequencyChange><Frequency dt:dt="r8">2441416</Frequency><Timestamp dt:dt="r8">5769833900</Timestamp><Current dt:dt="r8">0</Current><DateUtc dt:dt="string">2015-08-12T11:02:48Z</DateUtc></FrequencyChange></FrequencyChanges></Clock>\n	1 ver1_main_procedure-15-1	99.927	1.0.0.880	1	hs	1475352094	prawa	1	2.0.10.356	08-12-2015	2015-08-12 11:02:49	13:02:49	mezczyzna	2.0.10.92	4	3	1	2																							l	{SPACE}		no	BlockProc1		BlockList									10	Cued	d	color_purple.png		0	11	570460	160																								25	prime_left.png	0	570110	0	0	13	0	570110	0	570110	1	570110	20	0	-1	568611	570110	570109	0		TrialProc1	left	0		0	10	570420	-570420		0	0	TrialList1	target_left.png	1	d	0	3	570160	260	d	289	570449												1	1	10				comp			150
