ExperimentName	Subject	Session	Age	Clock.Information	DataFile.Basename	Display.RefreshRate	ExperimentVersion	Group	Name	RandomSeed	Recznosc	ResearcherID	RuntimeVersion	SessionDate	SessionStartDateTimeUtc	SessionTime	Sex	StudioVersion	Block	BlockList	BlockList.Cycle	BlockList.Sample	BlockNumber	GoodBye.RESP	GoodBye2.RESP	GoodByeList	GoodByeList.Cycle	GoodByeList.Sample	InstrList	InstrList.Cycle	InstrList.Sample	Instructions3.RESP	Instructions4.RESP	Instructions5.RESP	kobieta_S1	kobieta_S2	kobieta_S3	kobieta_S4	kobieta_S5	mezczyzna_S1	mezczyzna_S2	mezczyzna_S3	mezczyzna_S4	mezczyzna_S5	NextBlock.RESP	NextBlock0.RESP	planowanie	PracticeMode	Procedure[Block]	proszenie	Running[Block]	TrainingList	TrainingList.Cycle	TrainingList.Sample	WordList	WordList1	wykonanie	zauwazenie	zrozumienie	Trial	ChoiceType	CorrectRespon	Effect	ErrorText	Fixation2.DurationError	Fixation2.OnsetDelay	Fixation2.OnsetTime	Fixation2.OnsetToOnsetTime	GoalRespInd1	GoalRespInd2	GoalRespInd3	GoalRespInd4	GoalRespInd5	GoalRespInd6	GoalRespName1	GoalRespName2	GoalRespName3	GoalRespName4	GoalRespName5	GoalRespName6	kol1	kol2	kol3	kol4	kol5	kol6	NeutralPrimeList1	Ocena	Ocena.Cycle	Ocena.Sample	OverallRT	Posit	Prime	Prime.ActionDelay	Prime.ActionTime	Prime.CustomOffsetTime	Prime.CustomOnsetTime	Prime.Duration	Prime.DurationError	Prime.FinishTime	Prime.OffsetDelay	Prime.OffsetTime	Prime.OnsetDelay	Prime.OnsetTime	Prime.OnsetToOnsetTime	Prime.PendingInputMasks	Prime.PreRelease	Prime.StartTime	Prime.TargetOffsetTime	Prime.TargetOnsetTime	Prime.TimingMode	PrimeChoice	Procedure[Trial]	Resp	RespWin.ACC	RespWin.CRESP	RespWin.DurationError	RespWin.OnsetDelay	RespWin.OnsetTime	RespWin.OnsetToOnsetTime	RespWin.RESP	RespWin.RT	RespWin.RTTime	Running[Trial]	Target	TargetSlide.ACC	TargetSlide.CRESP	TargetSlide.DurationError	TargetSlide.OnsetDelay	TargetSlide.OnsetTime	TargetSlide.OnsetToOnsetTime	TargetSlide.RESP	TargetSlide.RT	TargetSlide.RTTime	TargetTraining	TBox1	TBox2	TBox3	TBox4	TBox5	TBox6	TrainingList1	TrainingList1.Cycle	TrainingList1.Sample	TrCorrectResp	TrialList1	TrialList1.Cycle	TrialList1.Sample	TrialList2	TrialList2.Cycle	TrialList2.Sample	TrialType	TrPosit	TrWaitTime	WaitTime
1 ver1_main_procedure	19	1	35	<?xml version="1.0"?>\n<Clock xmlns:dt="urn:schemas-microsoft-com:datatypes"><Description dt:dt="string">E-Prime Primary Realtime Clock</Description><StartTime><Timestamp dt:dt="int">0</Timestamp><DateUtc dt:dt="string">2015-08-12T15:01:32Z</DateUtc></StartTime><FrequencyChanges><FrequencyChange><Frequency dt:dt="r8">2441416</Frequency><Timestamp dt:dt="r8">40737931536</Timestamp><Current dt:dt="r8">0</Current><DateUtc dt:dt="string">2015-08-12T15:01:32Z</DateUtc></FrequencyChange></FrequencyChanges></Clock>\n	1 ver1_main_procedure-19-1	99.924	1.0.0.880	1	ej	2083690770	prawa	1	2.0.10.356	08-12-2015	2015-08-12 15:01:32	17:01:32	kobieta	2.0.10.92	1										1	1	1	{SPACE}	{SPACE}	l	poproszona	planowała	zrozumiałaś	wykonała		poproszony	planował	zrozumiałeś	wykonał				planowała		InstrProc	poproszona	InstrList				1		wykonała		zrozumiałaś																																																																																																
1 ver1_main_procedure	19	1	35	<?xml version="1.0"?>\n<Clock xmlns:dt="urn:schemas-microsoft-com:datatypes"><Description dt:dt="string">E-Prime Primary Realtime Clock</Description><StartTime><Timestamp dt:dt="int">0</Timestamp><DateUtc dt:dt="string">2015-08-12T15:01:32Z</DateUtc></StartTime><FrequencyChanges><FrequencyChange><Frequency dt:dt="r8">2441416</Frequency><Timestamp dt:dt="r8">40737931536</Timestamp><Current dt:dt="r8">0</Current><DateUtc dt:dt="string">2015-08-12T15:01:32Z</DateUtc></FrequencyChange></FrequencyChanges></Clock>\n	1 ver1_main_procedure-19-1	99.924	1.0.0.880	1	ej	2083690770	prawa	1	2.0.10.356	08-12-2015	2015-08-12 15:01:32	17:01:32	kobieta	2.0.10.92	2																														TrainingProc1		TrainingList	1	1	1						1																																																					TrainProc											TrainingList1											target_right.png							2	1	1	l								25	300	
1 ver1_main_procedure	19	1	35	<?xml version="1.0"?>\n<Clock xmlns:dt="urn:schemas-microsoft-com:datatypes"><Description dt:dt="string">E-Prime Primary Realtime Clock</Description><StartTime><Timestamp dt:dt="int">0</Timestamp><DateUtc dt:dt="string">2015-08-12T15:01:32Z</DateUtc></StartTime><FrequencyChanges><FrequencyChange><Frequency dt:dt="r8">2441416</Frequency><Timestamp dt:dt="r8">40737931536</Timestamp><Current dt:dt="r8">0</Current><DateUtc dt:dt="string">2015-08-12T15:01:32Z</DateUtc></FrequencyChange></FrequencyChanges></Clock>\n	1 ver1_main_procedure-19-1	99.924	1.0.0.880	1	ej	2083690770	prawa	1	2.0.10.356	08-12-2015	2015-08-12 15:01:32	17:01:32	kobieta	2.0.10.92	2																														TrainingProc1		TrainingList	1	1	1						2																																																					TrainProc											TrainingList1											target_left.png							1	1	2	d								75	300	
1 ver1_main_procedure	19	1	35	<?xml version="1.0"?>\n<Clock xmlns:dt="urn:schemas-microsoft-com:datatypes"><Description dt:dt="string">E-Prime Primary Realtime Clock</Description><StartTime><Timestamp dt:dt="int">0</Timestamp><DateUtc dt:dt="string">2015-08-12T15:01:32Z</DateUtc></StartTime><FrequencyChanges><FrequencyChange><Frequency dt:dt="r8">2441416</Frequency><Timestamp dt:dt="r8">40737931536</Timestamp><Current dt:dt="r8">0</Current><DateUtc dt:dt="string">2015-08-12T15:01:32Z</DateUtc></FrequencyChange></FrequencyChanges></Clock>\n	1 ver1_main_procedure-19-1	99.924	1.0.0.880	1	ej	2083690770	prawa	1	2.0.10.356	08-12-2015	2015-08-12 15:01:32	17:01:32	kobieta	2.0.10.92	2																														TrainingProc1		TrainingList	1	1	1						3																																																					TrainProc											TrainingList1											target_both.png							3	1	3	dl								25	150	
1 ver1_main_procedure	19	1	35	<?xml version="1.0"?>\n<Clock xmlns:dt="urn:schemas-microsoft-com:datatypes"><Description dt:dt="string">E-Prime Primary Realtime Clock</Description><StartTime><Timestamp dt:dt="int">0</Timestamp><DateUtc dt:dt="string">2015-08-12T15:01:32Z</DateUtc></StartTime><FrequencyChanges><FrequencyChange><Frequency dt:dt="r8">2441416</Frequency><Timestamp dt:dt="r8">40737931536</Timestamp><Current dt:dt="r8">0</Current><DateUtc dt:dt="string">2015-08-12T15:01:32Z</DateUtc></FrequencyChange></FrequencyChanges></Clock>\n	1 ver1_main_procedure-19-1	99.924	1.0.0.880	1	ej	2083690770	prawa	1	2.0.10.356	08-12-2015	2015-08-12 15:01:32	17:01:32	kobieta	2.0.10.92	2																														TrainingProc1		TrainingList	1	1	1						4																																																					TrainProc											TrainingList1											target_both.png							3	1	4	dl								25	450	
1 ver1_main_procedure	19	1	35	<?xml version="1.0"?>\n<Clock xmlns:dt="urn:schemas-microsoft-com:datatypes"><Description dt:dt="string">E-Prime Primary Realtime Clock</Description><StartTime><Timestamp dt:dt="int">0</Timestamp><DateUtc dt:dt="string">2015-08-12T15:01:32Z</DateUtc></StartTime><FrequencyChanges><FrequencyChange><Frequency dt:dt="r8">2441416</Frequency><Timestamp dt:dt="r8">40737931536</Timestamp><Current dt:dt="r8">0</Current><DateUtc dt:dt="string">2015-08-12T15:01:32Z</DateUtc></FrequencyChange></FrequencyChanges></Clock>\n	1 ver1_main_procedure-19-1	99.924	1.0.0.880	1	ej	2083690770	prawa	1	2.0.10.356	08-12-2015	2015-08-12 15:01:32	17:01:32	kobieta	2.0.10.92	2																														TrainingProc1		TrainingList	1	1	1						5																																																					TrainProc											TrainingList1											target_left.png							1	1	5	d								75	300	
1 ver1_main_procedure	19	1	35	<?xml version="1.0"?>\n<Clock xmlns:dt="urn:schemas-microsoft-com:datatypes"><Description dt:dt="string">E-Prime Primary Realtime Clock</Description><StartTime><Timestamp dt:dt="int">0</Timestamp><DateUtc dt:dt="string">2015-08-12T15:01:32Z</DateUtc></StartTime><FrequencyChanges><FrequencyChange><Frequency dt:dt="r8">2441416</Frequency><Timestamp dt:dt="r8">40737931536</Timestamp><Current dt:dt="r8">0</Current><DateUtc dt:dt="string">2015-08-12T15:01:32Z</DateUtc></FrequencyChange></FrequencyChanges></Clock>\n	1 ver1_main_procedure-19-1	99.924	1.0.0.880	1	ej	2083690770	prawa	1	2.0.10.356	08-12-2015	2015-08-12 15:01:32	17:01:32	kobieta	2.0.10.92	2																														TrainingProc1		TrainingList	1	1	1						6																																																					TrainProc											TrainingList1											target_right.png							2	1	6	l								25	450	
1 ver1_main_procedure	19	1	35	<?xml version="1.0"?>\n<Clock xmlns:dt="urn:schemas-microsoft-com:datatypes"><Description dt:dt="string">E-Prime Primary Realtime Clock</Description><StartTime><Timestamp dt:dt="int">0</Timestamp><DateUtc dt:dt="string">2015-08-12T15:01:32Z</DateUtc></StartTime><FrequencyChanges><FrequencyChange><Frequency dt:dt="r8">2441416</Frequency><Timestamp dt:dt="r8">40737931536</Timestamp><Current dt:dt="r8">0</Current><DateUtc dt:dt="string">2015-08-12T15:01:32Z</DateUtc></FrequencyChange></FrequencyChanges></Clock>\n	1 ver1_main_procedure-19-1	99.924	1.0.0.880	1	ej	2083690770	prawa	1	2.0.10.356	08-12-2015	2015-08-12 15:01:32	17:01:32	kobieta	2.0.10.92	2																														TrainingProc1		TrainingList	1	1	1						7																																																					TrainProc											TrainingList1											target_right.png							2	1	7	l								25	150	
1 ver1_main_procedure	19	1	35	<?xml version="1.0"?>\n<Clock xmlns:dt="urn:schemas-microsoft-com:datatypes"><Description dt:dt="string">E-Prime Primary Realtime Clock</Description><StartTime><Timestamp dt:dt="int">0</Timestamp><DateUtc dt:dt="string">2015-08-12T15:01:32Z</DateUtc></StartTime><FrequencyChanges><FrequencyChange><Frequency dt:dt="r8">2441416</Frequency><Timestamp dt:dt="r8">40737931536</Timestamp><Current dt:dt="r8">0</Current><DateUtc dt:dt="string">2015-08-12T15:01:32Z</DateUtc></FrequencyChange></FrequencyChanges></Clock>\n	1 ver1_main_procedure-19-1	99.924	1.0.0.880	1	ej	2083690770	prawa	1	2.0.10.356	08-12-2015	2015-08-12 15:01:32	17:01:32	kobieta	2.0.10.92	2																														TrainingProc1		TrainingList	1	1	1						8																																																					TrainProc											TrainingList1											target_both.png							3	1	8	dl								75	300	
1 ver1_main_procedure	19	1	35	<?xml version="1.0"?>\n<Clock xmlns:dt="urn:schemas-microsoft-com:datatypes"><Description dt:dt="string">E-Prime Primary Realtime Clock</Description><StartTime><Timestamp dt:dt="int">0</Timestamp><DateUtc dt:dt="string">2015-08-12T15:01:32Z</DateUtc></StartTime><FrequencyChanges><FrequencyChange><Frequency dt:dt="r8">2441416</Frequency><Timestamp dt:dt="r8">40737931536</Timestamp><Current dt:dt="r8">0</Current><DateUtc dt:dt="string">2015-08-12T15:01:32Z</DateUtc></FrequencyChange></FrequencyChanges></Clock>\n	1 ver1_main_procedure-19-1	99.924	1.0.0.880	1	ej	2083690770	prawa	1	2.0.10.356	08-12-2015	2015-08-12 15:01:32	17:01:32	kobieta	2.0.10.92	2																														TrainingProc1		TrainingList	1	1	1						9																																																					TrainProc											TrainingList1											target_left.png							1	1	9	d								25	450	
1 ver1_main_procedure	19	1	35	<?xml version="1.0"?>\n<Clock xmlns:dt="urn:schemas-microsoft-com:datatypes"><Description dt:dt="string">E-Prime Primary Realtime Clock</Description><StartTime><Timestamp dt:dt="int">0</Timestamp><DateUtc dt:dt="string">2015-08-12T15:01:32Z</DateUtc></StartTime><FrequencyChanges><FrequencyChange><Frequency dt:dt="r8">2441416</Frequency><Timestamp dt:dt="r8">40737931536</Timestamp><Current dt:dt="r8">0</Current><DateUtc dt:dt="string">2015-08-12T15:01:32Z</DateUtc></FrequencyChange></FrequencyChanges></Clock>\n	1 ver1_main_procedure-19-1	99.924	1.0.0.880	1	ej	2083690770	prawa	1	2.0.10.356	08-12-2015	2015-08-12 15:01:32	17:01:32	kobieta	2.0.10.92	3	4	1	1																							d	{SPACE}		no	BlockProc2		BlockList									1	Cued	d	color_red.png		0	10	277547	470																								25	prime_left.png	0	276866	0	0	13	0	276866	0	276866	1	276866	20	0	-1	275367	276866	276865	0		TrialProc1	left	0		0	20	277186	-277186		0	0	TrialList2	target_left.png	1	d	0	3	276916	270	d	621	277537															1	1	1	comp			450
1 ver1_main_procedure	19	1	35	<?xml version="1.0"?>\n<Clock xmlns:dt="urn:schemas-microsoft-com:datatypes"><Description dt:dt="string">E-Prime Primary Realtime Clock</Description><StartTime><Timestamp dt:dt="int">0</Timestamp><DateUtc dt:dt="string">2015-08-12T15:01:32Z</DateUtc></StartTime><FrequencyChanges><FrequencyChange><Frequency dt:dt="r8">2441416</Frequency><Timestamp dt:dt="r8">40737931536</Timestamp><Current dt:dt="r8">0</Current><DateUtc dt:dt="string">2015-08-12T15:01:32Z</DateUtc></FrequencyChange></FrequencyChanges></Clock>\n	1 ver1_main_procedure-19-1	99.924	1.0.0.880	1	ej	2083690770	prawa	1	2.0.10.356	08-12-2015	2015-08-12 15:01:32	17:01:32	kobieta	2.0.10.92	3	4	1	1																							d	{SPACE}		no	BlockProc2		BlockList									2	Free	dl	color_purple.png		0	14	280369	160																			1					25	prime_left.png	0	279828	0	0	13	0	279828	0	279828	1	279828	20	0	-1	278329	279828	279827	0	prime_left.png	TrialProc1	right	0		1	10	280138	-280138		0	0	TrialList2	target_both.png	0	dl	0	3	279878	260	l	477	280355															11	1	2	neut			150
1 ver1_main_procedure	19	1	35	<?xml version="1.0"?>\n<Clock xmlns:dt="urn:schemas-microsoft-com:datatypes"><Description dt:dt="string">E-Prime Primary Realtime Clock</Description><StartTime><Timestamp dt:dt="int">0</Timestamp><DateUtc dt:dt="string">2015-08-12T15:01:32Z</DateUtc></StartTime><FrequencyChanges><FrequencyChange><Frequency dt:dt="r8">2441416</Frequency><Timestamp dt:dt="r8">40737931536</Timestamp><Current dt:dt="r8">0</Current><DateUtc dt:dt="string">2015-08-12T15:01:32Z</DateUtc></FrequencyChange></FrequencyChanges></Clock>\n	1 ver1_main_procedure-19-1	99.924	1.0.0.880	1	ej	2083690770	prawa	1	2.0.10.356	08-12-2015	2015-08-12 15:01:32	17:01:32	kobieta	2.0.10.92	3	4	1	1																							d	{SPACE}		no	BlockProc2		BlockList									3	Free	dl	color_yellow.png		0	12	283491	310																			2					75	prime_right.png	0	282340	0	0	13	0	282340	0	282340	1	282340	20	0	-1	280841	282340	282339	0	prime_right.png	TrialProc1	right	0		0	10	282650	-282650		0	0	TrialList2	target_both.png	0	dl	0	3	282390	260	d	1089	283479															11	1	3	neut			300
1 ver1_main_procedure	19	1	35	<?xml version="1.0"?>\n<Clock xmlns:dt="urn:schemas-microsoft-com:datatypes"><Description dt:dt="string">E-Prime Primary Realtime Clock</Description><StartTime><Timestamp dt:dt="int">0</Timestamp><DateUtc dt:dt="string">2015-08-12T15:01:32Z</DateUtc></StartTime><FrequencyChanges><FrequencyChange><Frequency dt:dt="r8">2441416</Frequency><Timestamp dt:dt="r8">40737931536</Timestamp><Current dt:dt="r8">0</Current><DateUtc dt:dt="string">2015-08-12T15:01:32Z</DateUtc></FrequencyChange></FrequencyChanges></Clock>\n	1 ver1_main_procedure-19-1	99.924	1.0.0.880	1	ej	2083690770	prawa	1	2.0.10.356	08-12-2015	2015-08-12 15:01:32	17:01:32	kobieta	2.0.10.92	3	4	1	1																							d	{SPACE}		no	BlockProc2		BlockList									4	Free	dl	color_red.png		0	11	286513	460																								75	prime_left.png	1	285613	0	0	13	1	285613	1	285613	1	285612	20	0	-1	284114	285612	285611	0		TrialProc1	right	0		0	10	285923	-285923		0	0	TrialList2	target_both.png	0	dl	0	4	285663	260	d	839	286502															12	1	4	incomp			450
1 ver1_main_procedure	19	1	35	<?xml version="1.0"?>\n<Clock xmlns:dt="urn:schemas-microsoft-com:datatypes"><Description dt:dt="string">E-Prime Primary Realtime Clock</Description><StartTime><Timestamp dt:dt="int">0</Timestamp><DateUtc dt:dt="string">2015-08-12T15:01:32Z</DateUtc></StartTime><FrequencyChanges><FrequencyChange><Frequency dt:dt="r8">2441416</Frequency><Timestamp dt:dt="r8">40737931536</Timestamp><Current dt:dt="r8">0</Current><DateUtc dt:dt="string">2015-08-12T15:01:32Z</DateUtc></FrequencyChange></FrequencyChanges></Clock>\n	1 ver1_main_procedure-19-1	99.924	1.0.0.880	1	ej	2083690770	prawa	1	2.0.10.356	08-12-2015	2015-08-12 15:01:32	17:01:32	kobieta	2.0.10.92	3	4	1	1																							d	{SPACE}		no	BlockProc2		BlockList									5	Cued	d			0	5	289575	160																			1					75	prime_left.png	0	288785	0	0	13	0	288785	0	288785	1	288785	20	0	-1	287286	288785	288784	0	prime_left.png	TrialProc1	left	0		0	10	289095	-289095		0	0	TrialList2	target_left.png	0	d	0	3	288835	260	l	735	289570															2	1	5	neut			150
1 ver1_main_procedure	19	1	35	<?xml version="1.0"?>\n<Clock xmlns:dt="urn:schemas-microsoft-com:datatypes"><Description dt:dt="string">E-Prime Primary Realtime Clock</Description><StartTime><Timestamp dt:dt="int">0</Timestamp><DateUtc dt:dt="string">2015-08-12T15:01:32Z</DateUtc></StartTime><FrequencyChanges><FrequencyChange><Frequency dt:dt="r8">2441416</Frequency><Timestamp dt:dt="r8">40737931536</Timestamp><Current dt:dt="r8">0</Current><DateUtc dt:dt="string">2015-08-12T15:01:32Z</DateUtc></FrequencyChange></FrequencyChanges></Clock>\n	1 ver1_main_procedure-19-1	99.924	1.0.0.880	1	ej	2083690770	prawa	1	2.0.10.356	08-12-2015	2015-08-12 15:01:32	17:01:32	kobieta	2.0.10.92	3	4	1	1																							d	{SPACE}		no	BlockProc2		BlockList									6	Free	dl	color_blue.png		0	11	292297	311																								25	prime_left.png	0	291547	0	0	13	0	291547	0	291547	1	291547	20	0	-1	290048	291547	291546	0		TrialProc1	right	0		0	10	291857	-291857		0	0	TrialList2	target_both.png	0	dl	0	3	291597	260	l	689	292286															12	1	6	incomp			300
1 ver1_main_procedure	19	1	35	<?xml version="1.0"?>\n<Clock xmlns:dt="urn:schemas-microsoft-com:datatypes"><Description dt:dt="string">E-Prime Primary Realtime Clock</Description><StartTime><Timestamp dt:dt="int">0</Timestamp><DateUtc dt:dt="string">2015-08-12T15:01:32Z</DateUtc></StartTime><FrequencyChanges><FrequencyChange><Frequency dt:dt="r8">2441416</Frequency><Timestamp dt:dt="r8">40737931536</Timestamp><Current dt:dt="r8">0</Current><DateUtc dt:dt="string">2015-08-12T15:01:32Z</DateUtc></FrequencyChange></FrequencyChanges></Clock>\n	1 ver1_main_procedure-19-1	99.924	1.0.0.880	1	ej	2083690770	prawa	1	2.0.10.356	08-12-2015	2015-08-12 15:01:32	17:01:32	kobieta	2.0.10.92	3	4	1	1																							d	{SPACE}		no	BlockProc2		BlockList									7	Cued	l	color_green.png		0	13	295079	161																								25	prime_right.png	0	294419	0	0	13	0	294419	0	294419	1	294419	20	0	-1	292920	294419	294418	0		TrialProc1	right	0		0	10	294729	-294729		0	0	TrialList2	target_right.png	1	l	0	3	294469	260	l	597	295066															4	1	7	comp			150
1 ver1_main_procedure	19	1	35	<?xml version="1.0"?>\n<Clock xmlns:dt="urn:schemas-microsoft-com:datatypes"><Description dt:dt="string">E-Prime Primary Realtime Clock</Description><StartTime><Timestamp dt:dt="int">0</Timestamp><DateUtc dt:dt="string">2015-08-12T15:01:32Z</DateUtc></StartTime><FrequencyChanges><FrequencyChange><Frequency dt:dt="r8">2441416</Frequency><Timestamp dt:dt="r8">40737931536</Timestamp><Current dt:dt="r8">0</Current><DateUtc dt:dt="string">2015-08-12T15:01:32Z</DateUtc></FrequencyChange></FrequencyChanges></Clock>\n	1 ver1_main_procedure-19-1	99.924	1.0.0.880	1	ej	2083690770	prawa	1	2.0.10.356	08-12-2015	2015-08-12 15:01:32	17:01:32	kobieta	2.0.10.92	3	4	1	1																							d	{SPACE}		no	BlockProc2		BlockList									8	Free	dl	color_orange.png		0	14	297982	160																								75	prime_right.png	0	297051	0	0	13	0	297051	0	297051	1	297051	20	0	-1	295552	297051	297050	0		TrialProc1	right	0		0	10	297361	-297361		0	0	TrialList2	target_both.png	0	dl	0	3	297101	260	d	867	297968															10	1	8	comp			150
1 ver1_main_procedure	19	1	35	<?xml version="1.0"?>\n<Clock xmlns:dt="urn:schemas-microsoft-com:datatypes"><Description dt:dt="string">E-Prime Primary Realtime Clock</Description><StartTime><Timestamp dt:dt="int">0</Timestamp><DateUtc dt:dt="string">2015-08-12T15:01:32Z</DateUtc></StartTime><FrequencyChanges><FrequencyChange><Frequency dt:dt="r8">2441416</Frequency><Timestamp dt:dt="r8">40737931536</Timestamp><Current dt:dt="r8">0</Current><DateUtc dt:dt="string">2015-08-12T15:01:32Z</DateUtc></FrequencyChange></FrequencyChanges></Clock>\n	1 ver1_main_procedure-19-1	99.924	1.0.0.880	1	ej	2083690770	prawa	1	2.0.10.356	08-12-2015	2015-08-12 15:01:32	17:01:32	kobieta	2.0.10.92	3	4	1	1																							d	{SPACE}		no	BlockProc2		BlockList									9	Cued	l	color_purple.png		0	13	300553	461																			2					75	prime_right.png	0	299953	0	0	13	0	299953	0	299953	1	299953	20	0	-1	298454	299953	299952	0	prime_right.png	TrialProc1	right	0		0	10	300263	-300263		0	0	TrialList2	target_right.png	1	l	0	3	300003	260	l	537	300540															5	1	9	neut			450
1 ver1_main_procedure	19	1	35	<?xml version="1.0"?>\n<Clock xmlns:dt="urn:schemas-microsoft-com:datatypes"><Description dt:dt="string">E-Prime Primary Realtime Clock</Description><StartTime><Timestamp dt:dt="int">0</Timestamp><DateUtc dt:dt="string">2015-08-12T15:01:32Z</DateUtc></StartTime><FrequencyChanges><FrequencyChange><Frequency dt:dt="r8">2441416</Frequency><Timestamp dt:dt="r8">40737931536</Timestamp><Current dt:dt="r8">0</Current><DateUtc dt:dt="string">2015-08-12T15:01:32Z</DateUtc></FrequencyChange></FrequencyChanges></Clock>\n	1 ver1_main_procedure-19-1	99.924	1.0.0.880	1	ej	2083690770	prawa	1	2.0.10.356	08-12-2015	2015-08-12 15:01:32	17:01:32	kobieta	2.0.10.92	3	4	1	1																							d	{SPACE}		no	BlockProc2		BlockList									10	Free	dl	color_yellow.png		0	9	303306	310																			1					75	prime_left.png	0	302825	0	0	13	0	302825	0	302825	1	302825	20	0	-1	301326	302825	302824	0	prime_left.png	TrialProc1	left	0		1	10	303135	-303135		0	0	TrialList2	target_both.png	0	dl	0	3	302875	260	d	422	303297															8	1	10	neut			300
1 ver1_main_procedure	19	1	35	<?xml version="1.0"?>\n<Clock xmlns:dt="urn:schemas-microsoft-com:datatypes"><Description dt:dt="string">E-Prime Primary Realtime Clock</Description><StartTime><Timestamp dt:dt="int">0</Timestamp><DateUtc dt:dt="string">2015-08-12T15:01:32Z</DateUtc></StartTime><FrequencyChanges><FrequencyChange><Frequency dt:dt="r8">2441416</Frequency><Timestamp dt:dt="r8">40737931536</Timestamp><Current dt:dt="r8">0</Current><DateUtc dt:dt="string">2015-08-12T15:01:32Z</DateUtc></FrequencyChange></FrequencyChanges></Clock>\n	1 ver1_main_procedure-19-1	99.924	1.0.0.880	1	ej	2083690770	prawa	1	2.0.10.356	08-12-2015	2015-08-12 15:01:32	17:01:32	kobieta	2.0.10.92	3	4	1	1																							d	{SPACE}		no	BlockProc2		BlockList									11	Free	dl	color_orange.png		0	7	306238	460																								25	prime_right.png	0	305427	0	0	13	0	305427	0	305427	1	305427	20	0	-1	303928	305427	305426	0		TrialProc1	right	0		0	10	305737	-305737		0	0	TrialList2	target_both.png	0	dl	0	3	305477	260	d	753	306230															10	1	11	comp			450
1 ver1_main_procedure	19	1	35	<?xml version="1.0"?>\n<Clock xmlns:dt="urn:schemas-microsoft-com:datatypes"><Description dt:dt="string">E-Prime Primary Realtime Clock</Description><StartTime><Timestamp dt:dt="int">0</Timestamp><DateUtc dt:dt="string">2015-08-12T15:01:32Z</DateUtc></StartTime><FrequencyChanges><FrequencyChange><Frequency dt:dt="r8">2441416</Frequency><Timestamp dt:dt="r8">40737931536</Timestamp><Current dt:dt="r8">0</Current><DateUtc dt:dt="string">2015-08-12T15:01:32Z</DateUtc></FrequencyChange></FrequencyChanges></Clock>\n	1 ver1_main_procedure-19-1	99.924	1.0.0.880	1	ej	2083690770	prawa	1	2.0.10.356	08-12-2015	2015-08-12 15:01:32	17:01:32	kobieta	2.0.10.92	3	4	1	1																							d	{SPACE}		no	BlockProc2		BlockList									12	Free	dl	color_purple.png		0	5	309370	310																			2					25	prime_right.png	0	308509	0	0	13	0	308510	0	308509	1	308509	20	0	-1	307011	308509	308508	0	prime_right.png	TrialProc1	right	0		0	11	308820	-308820		0	0	TrialList2	target_both.png	0	dl	0	3	308559	261	l	806	309365															11	1	12	neut			300
1 ver1_main_procedure	19	1	35	<?xml version="1.0"?>\n<Clock xmlns:dt="urn:schemas-microsoft-com:datatypes"><Description dt:dt="string">E-Prime Primary Realtime Clock</Description><StartTime><Timestamp dt:dt="int">0</Timestamp><DateUtc dt:dt="string">2015-08-12T15:01:32Z</DateUtc></StartTime><FrequencyChanges><FrequencyChange><Frequency dt:dt="r8">2441416</Frequency><Timestamp dt:dt="r8">40737931536</Timestamp><Current dt:dt="r8">0</Current><DateUtc dt:dt="string">2015-08-12T15:01:32Z</DateUtc></FrequencyChange></FrequencyChanges></Clock>\n	1 ver1_main_procedure-19-1	99.924	1.0.0.880	1	ej	2083690770	prawa	1	2.0.10.356	08-12-2015	2015-08-12 15:01:32	17:01:32	kobieta	2.0.10.92	3	4	1	1																							d	{SPACE}		no	BlockProc2		BlockList									13	Free	dl	color_red.png		0	14	312672	311																								25	prime_left.png	0	311492	0	0	13	0	311492	0	311492	1	311492	20	0	-1	309993	311492	311491	0		TrialProc1	right	0		0	10	311802	-311802		0	0	TrialList2	target_both.png	0	dl	0	3	311542	260	d	1116	312658															12	1	13	incomp			300
1 ver1_main_procedure	19	1	35	<?xml version="1.0"?>\n<Clock xmlns:dt="urn:schemas-microsoft-com:datatypes"><Description dt:dt="string">E-Prime Primary Realtime Clock</Description><StartTime><Timestamp dt:dt="int">0</Timestamp><DateUtc dt:dt="string">2015-08-12T15:01:32Z</DateUtc></StartTime><FrequencyChanges><FrequencyChange><Frequency dt:dt="r8">2441416</Frequency><Timestamp dt:dt="r8">40737931536</Timestamp><Current dt:dt="r8">0</Current><DateUtc dt:dt="string">2015-08-12T15:01:32Z</DateUtc></FrequencyChange></FrequencyChanges></Clock>\n	1 ver1_main_procedure-19-1	99.924	1.0.0.880	1	ej	2083690770	prawa	1	2.0.10.356	08-12-2015	2015-08-12 15:01:32	17:01:32	kobieta	2.0.10.92	3	4	1	1																							d	{SPACE}		no	BlockProc2		BlockList									14	Cued	d			0	6	315164	461																			1					25	prime_left.png	0	314794	0	0	13	0	314794	0	314794	1	314794	20	0	-1	313295	314794	314793	0	prime_left.png	TrialProc1	left	0		0	10	315104	-315104		0	0	TrialList2	target_left.png	0	d	0	3	314844	260	l	314	315158															2	1	14	neut			450
1 ver1_main_procedure	19	1	35	<?xml version="1.0"?>\n<Clock xmlns:dt="urn:schemas-microsoft-com:datatypes"><Description dt:dt="string">E-Prime Primary Realtime Clock</Description><StartTime><Timestamp dt:dt="int">0</Timestamp><DateUtc dt:dt="string">2015-08-12T15:01:32Z</DateUtc></StartTime><FrequencyChanges><FrequencyChange><Frequency dt:dt="r8">2441416</Frequency><Timestamp dt:dt="r8">40737931536</Timestamp><Current dt:dt="r8">0</Current><DateUtc dt:dt="string">2015-08-12T15:01:32Z</DateUtc></FrequencyChange></FrequencyChanges></Clock>\n	1 ver1_main_procedure-19-1	99.924	1.0.0.880	1	ej	2083690770	prawa	1	2.0.10.356	08-12-2015	2015-08-12 15:01:32	17:01:32	kobieta	2.0.10.92	3	4	1	1																							d	{SPACE}		no	BlockProc2		BlockList									15	Free	dl	color_yellow.png		0	12	318106	161																			2					25	prime_right.png	0	317436	0	0	13	0	317436	0	317436	1	317436	20	0	-1	315937	317436	317435	0	prime_right.png	TrialProc1	left	0		0	10	317746	-317746		0	0	TrialList2	target_both.png	0	dl	0	3	317486	260	d	608	318094															8	1	15	neut			150
1 ver1_main_procedure	19	1	35	<?xml version="1.0"?>\n<Clock xmlns:dt="urn:schemas-microsoft-com:datatypes"><Description dt:dt="string">E-Prime Primary Realtime Clock</Description><StartTime><Timestamp dt:dt="int">0</Timestamp><DateUtc dt:dt="string">2015-08-12T15:01:32Z</DateUtc></StartTime><FrequencyChanges><FrequencyChange><Frequency dt:dt="r8">2441416</Frequency><Timestamp dt:dt="r8">40737931536</Timestamp><Current dt:dt="r8">0</Current><DateUtc dt:dt="string">2015-08-12T15:01:32Z</DateUtc></FrequencyChange></FrequencyChanges></Clock>\n	1 ver1_main_procedure-19-1	99.924	1.0.0.880	1	ej	2083690770	prawa	1	2.0.10.356	08-12-2015	2015-08-12 15:01:32	17:01:32	kobieta	2.0.10.92	3	4	1	1																							d	{SPACE}		no	BlockProc2		BlockList									16	Cued	l	color_purple.png		0	7	320548	160																			1					25	prime_left.png	0	320078	0	0	13	0	320078	0	320078	1	320078	20	0	-1	318579	320078	320077	0	prime_left.png	TrialProc1	right	0		0	10	320388	-320388		0	0	TrialList2	target_right.png	1	l	0	3	320128	260	l	413	320541															5	1	16	neut			150
1 ver1_main_procedure	19	1	35	<?xml version="1.0"?>\n<Clock xmlns:dt="urn:schemas-microsoft-com:datatypes"><Description dt:dt="string">E-Prime Primary Realtime Clock</Description><StartTime><Timestamp dt:dt="int">0</Timestamp><DateUtc dt:dt="string">2015-08-12T15:01:32Z</DateUtc></StartTime><FrequencyChanges><FrequencyChange><Frequency dt:dt="r8">2441416</Frequency><Timestamp dt:dt="r8">40737931536</Timestamp><Current dt:dt="r8">0</Current><DateUtc dt:dt="string">2015-08-12T15:01:32Z</DateUtc></FrequencyChange></FrequencyChanges></Clock>\n	1 ver1_main_procedure-19-1	99.924	1.0.0.880	1	ej	2083690770	prawa	1	2.0.10.356	08-12-2015	2015-08-12 15:01:32	17:01:32	kobieta	2.0.10.92	3	4	1	1																							d	{SPACE}		no	BlockProc2		BlockList									17	Cued	l	color_green.png		0	9	323030	460																								75	prime_right.png	0	322520	0	0	13	0	322520	0	322520	1	322520	20	0	-1	321021	322520	322519	0		TrialProc1	right	0		0	10	322830	-322830		0	0	TrialList2	target_right.png	1	l	0	3	322570	260	l	451	323021															4	1	17	comp			450
1 ver1_main_procedure	19	1	35	<?xml version="1.0"?>\n<Clock xmlns:dt="urn:schemas-microsoft-com:datatypes"><Description dt:dt="string">E-Prime Primary Realtime Clock</Description><StartTime><Timestamp dt:dt="int">0</Timestamp><DateUtc dt:dt="string">2015-08-12T15:01:32Z</DateUtc></StartTime><FrequencyChanges><FrequencyChange><Frequency dt:dt="r8">2441416</Frequency><Timestamp dt:dt="r8">40737931536</Timestamp><Current dt:dt="r8">0</Current><DateUtc dt:dt="string">2015-08-12T15:01:32Z</DateUtc></FrequencyChange></FrequencyChanges></Clock>\n	1 ver1_main_procedure-19-1	99.924	1.0.0.880	1	ej	2083690770	prawa	1	2.0.10.356	08-12-2015	2015-08-12 15:01:32	17:01:32	kobieta	2.0.10.92	3	4	1	1																							d	{SPACE}		no	BlockProc2		BlockList									18	Cued	d	color_orange.png		0	9	325892	160																								75	prime_right.png	0	325302	0	0	13	0	325302	0	325302	1	325302	20	0	-1	323803	325302	325301	0		TrialProc1	left	0		0	10	325612	-325612		0	0	TrialList2	target_left.png	1	d	0	3	325352	260	d	531	325883															3	1	18	incomp			150
1 ver1_main_procedure	19	1	35	<?xml version="1.0"?>\n<Clock xmlns:dt="urn:schemas-microsoft-com:datatypes"><Description dt:dt="string">E-Prime Primary Realtime Clock</Description><StartTime><Timestamp dt:dt="int">0</Timestamp><DateUtc dt:dt="string">2015-08-12T15:01:32Z</DateUtc></StartTime><FrequencyChanges><FrequencyChange><Frequency dt:dt="r8">2441416</Frequency><Timestamp dt:dt="r8">40737931536</Timestamp><Current dt:dt="r8">0</Current><DateUtc dt:dt="string">2015-08-12T15:01:32Z</DateUtc></FrequencyChange></FrequencyChanges></Clock>\n	1 ver1_main_procedure-19-1	99.924	1.0.0.880	1	ej	2083690770	prawa	1	2.0.10.356	08-12-2015	2015-08-12 15:01:32	17:01:32	kobieta	2.0.10.92	3	4	1	1																							d	{SPACE}		no	BlockProc2		BlockList									19	Cued	d	color_orange.png		0	9	328574	310																								25	prime_right.png	0	327864	0	0	13	0	327864	0	327864	1	327864	20	0	-1	326365	327864	327863	0		TrialProc1	left	0		0	10	328174	-328174		0	0	TrialList2	target_left.png	1	d	0	3	327914	260	d	651	328565															3	1	19	incomp			300
1 ver1_main_procedure	19	1	35	<?xml version="1.0"?>\n<Clock xmlns:dt="urn:schemas-microsoft-com:datatypes"><Description dt:dt="string">E-Prime Primary Realtime Clock</Description><StartTime><Timestamp dt:dt="int">0</Timestamp><DateUtc dt:dt="string">2015-08-12T15:01:32Z</DateUtc></StartTime><FrequencyChanges><FrequencyChange><Frequency dt:dt="r8">2441416</Frequency><Timestamp dt:dt="r8">40737931536</Timestamp><Current dt:dt="r8">0</Current><DateUtc dt:dt="string">2015-08-12T15:01:32Z</DateUtc></FrequencyChange></FrequencyChanges></Clock>\n	1 ver1_main_procedure-19-1	99.924	1.0.0.880	1	ej	2083690770	prawa	1	2.0.10.356	08-12-2015	2015-08-12 15:01:32	17:01:32	kobieta	2.0.10.92	3	4	1	1																							d	{SPACE}		no	BlockProc2		BlockList									20	Free	dl	color_green.png		0	13	331376	160																								25	prime_right.png	0	330696	0	0	13	0	330696	0	330696	1	330696	20	0	-1	329197	330696	330695	0		TrialProc1	right	0		0	10	331006	-331006		0	0	TrialList2	target_both.png	0	dl	0	3	330746	260	l	617	331363															10	1	20	comp			150
1 ver1_main_procedure	19	1	35	<?xml version="1.0"?>\n<Clock xmlns:dt="urn:schemas-microsoft-com:datatypes"><Description dt:dt="string">E-Prime Primary Realtime Clock</Description><StartTime><Timestamp dt:dt="int">0</Timestamp><DateUtc dt:dt="string">2015-08-12T15:01:32Z</DateUtc></StartTime><FrequencyChanges><FrequencyChange><Frequency dt:dt="r8">2441416</Frequency><Timestamp dt:dt="r8">40737931536</Timestamp><Current dt:dt="r8">0</Current><DateUtc dt:dt="string">2015-08-12T15:01:32Z</DateUtc></FrequencyChange></FrequencyChanges></Clock>\n	1 ver1_main_procedure-19-1	99.924	1.0.0.880	1	ej	2083690770	prawa	1	2.0.10.356	08-12-2015	2015-08-12 15:01:32	17:01:32	kobieta	2.0.10.92	3	4	1	1																							d	{SPACE}		no	BlockProc2		BlockList									21	Cued	l	color_blue.png		0	7	333838	460																								25	prime_left.png	0	333348	0	0	13	0	333348	0	333348	1	333348	20	0	-1	331849	333348	333347	0		TrialProc1	right	0		0	10	333658	-333658		0	0	TrialList2	target_right.png	1	l	0	3	333398	260	l	433	333831															6	1	21	incomp			450
1 ver1_main_procedure	19	1	35	<?xml version="1.0"?>\n<Clock xmlns:dt="urn:schemas-microsoft-com:datatypes"><Description dt:dt="string">E-Prime Primary Realtime Clock</Description><StartTime><Timestamp dt:dt="int">0</Timestamp><DateUtc dt:dt="string">2015-08-12T15:01:32Z</DateUtc></StartTime><FrequencyChanges><FrequencyChange><Frequency dt:dt="r8">2441416</Frequency><Timestamp dt:dt="r8">40737931536</Timestamp><Current dt:dt="r8">0</Current><DateUtc dt:dt="string">2015-08-12T15:01:32Z</DateUtc></FrequencyChange></FrequencyChanges></Clock>\n	1 ver1_main_procedure-19-1	99.924	1.0.0.880	1	ej	2083690770	prawa	1	2.0.10.356	08-12-2015	2015-08-12 15:01:32	17:01:32	kobieta	2.0.10.92	3	4	1	1																							d	{SPACE}		no	BlockProc2		BlockList									22	Free	dl	color_yellow.png		0	12	336810	160																			2					25	prime_right.png	0	336110	0	0	13	0	336110	0	336110	1	336110	20	0	-1	334611	336110	336109	0	prime_right.png	TrialProc1	left	0		0	10	336420	-336420		0	0	TrialList2	target_both.png	0	dl	0	3	336160	260	d	638	336798															8	1	22	neut			150
1 ver1_main_procedure	19	1	35	<?xml version="1.0"?>\n<Clock xmlns:dt="urn:schemas-microsoft-com:datatypes"><Description dt:dt="string">E-Prime Primary Realtime Clock</Description><StartTime><Timestamp dt:dt="int">0</Timestamp><DateUtc dt:dt="string">2015-08-12T15:01:32Z</DateUtc></StartTime><FrequencyChanges><FrequencyChange><Frequency dt:dt="r8">2441416</Frequency><Timestamp dt:dt="r8">40737931536</Timestamp><Current dt:dt="r8">0</Current><DateUtc dt:dt="string">2015-08-12T15:01:32Z</DateUtc></FrequencyChange></FrequencyChanges></Clock>\n	1 ver1_main_procedure-19-1	99.924	1.0.0.880	1	ej	2083690770	prawa	1	2.0.10.356	08-12-2015	2015-08-12 15:01:32	17:01:32	kobieta	2.0.10.92	3	4	1	1																							d	{SPACE}		no	BlockProc2		BlockList									23	Free	dl	color_green.png		0	10	339552	311																								25	prime_right.png	0	338782	0	0	13	0	338782	0	338782	1	338782	20	0	-1	337283	338782	338781	0		TrialProc1	right	0		0	10	339092	-339092		0	0	TrialList2	target_both.png	0	dl	0	3	338832	260	l	710	339542															10	1	23	comp			300
1 ver1_main_procedure	19	1	35	<?xml version="1.0"?>\n<Clock xmlns:dt="urn:schemas-microsoft-com:datatypes"><Description dt:dt="string">E-Prime Primary Realtime Clock</Description><StartTime><Timestamp dt:dt="int">0</Timestamp><DateUtc dt:dt="string">2015-08-12T15:01:32Z</DateUtc></StartTime><FrequencyChanges><FrequencyChange><Frequency dt:dt="r8">2441416</Frequency><Timestamp dt:dt="r8">40737931536</Timestamp><Current dt:dt="r8">0</Current><DateUtc dt:dt="string">2015-08-12T15:01:32Z</DateUtc></FrequencyChange></FrequencyChanges></Clock>\n	1 ver1_main_procedure-19-1	99.924	1.0.0.880	1	ej	2083690770	prawa	1	2.0.10.356	08-12-2015	2015-08-12 15:01:32	17:01:32	kobieta	2.0.10.92	3	4	1	1																							d	{SPACE}		no	BlockProc2		BlockList									24	Cued	d	color_orange.png		0	10	342194	160																								25	prime_right.png	0	341674	0	0	13	0	341674	0	341674	1	341674	20	0	-1	340175	341674	341673	0		TrialProc1	left	0		0	10	341984	-341984		0	0	TrialList2	target_left.png	1	d	0	3	341724	260	d	460	342184															3	1	24	incomp			150
1 ver1_main_procedure	19	1	35	<?xml version="1.0"?>\n<Clock xmlns:dt="urn:schemas-microsoft-com:datatypes"><Description dt:dt="string">E-Prime Primary Realtime Clock</Description><StartTime><Timestamp dt:dt="int">0</Timestamp><DateUtc dt:dt="string">2015-08-12T15:01:32Z</DateUtc></StartTime><FrequencyChanges><FrequencyChange><Frequency dt:dt="r8">2441416</Frequency><Timestamp dt:dt="r8">40737931536</Timestamp><Current dt:dt="r8">0</Current><DateUtc dt:dt="string">2015-08-12T15:01:32Z</DateUtc></FrequencyChange></FrequencyChanges></Clock>\n	1 ver1_main_procedure-19-1	99.924	1.0.0.880	1	ej	2083690770	prawa	1	2.0.10.356	08-12-2015	2015-08-12 15:01:32	17:01:32	kobieta	2.0.10.92	3	4	1	1																							d	{SPACE}		no	BlockProc2		BlockList									25	Free	dl	color_green.png		0	10	344906	461																								75	prime_right.png	0	344166	0	0	13	0	344166	0	344166	1	344166	20	0	-1	342667	344166	344165	0		TrialProc1	left	0		0	10	344476	-344476		0	0	TrialList2	target_both.png	0	dl	0	3	344216	260	l	680	344896															9	1	25	incomp			450
1 ver1_main_procedure	19	1	35	<?xml version="1.0"?>\n<Clock xmlns:dt="urn:schemas-microsoft-com:datatypes"><Description dt:dt="string">E-Prime Primary Realtime Clock</Description><StartTime><Timestamp dt:dt="int">0</Timestamp><DateUtc dt:dt="string">2015-08-12T15:01:32Z</DateUtc></StartTime><FrequencyChanges><FrequencyChange><Frequency dt:dt="r8">2441416</Frequency><Timestamp dt:dt="r8">40737931536</Timestamp><Current dt:dt="r8">0</Current><DateUtc dt:dt="string">2015-08-12T15:01:32Z</DateUtc></FrequencyChange></FrequencyChanges></Clock>\n	1 ver1_main_procedure-19-1	99.924	1.0.0.880	1	ej	2083690770	prawa	1	2.0.10.356	08-12-2015	2015-08-12 15:01:32	17:01:32	kobieta	2.0.10.92	3	4	1	1																							d	{SPACE}		no	BlockProc2		BlockList									26	Free	dl	color_purple.png		0	5	347909	310																			1					75	prime_left.png	0	347178	0	0	13	0	347178	0	347178	1	347178	20	0	-1	345679	347178	347177	0	prime_left.png	TrialProc1	left	0		0	10	347488	-347488		0	0	TrialList2	target_both.png	0	dl	0	3	347228	260	l	675	347903															8	1	26	neut			300
1 ver1_main_procedure	19	1	35	<?xml version="1.0"?>\n<Clock xmlns:dt="urn:schemas-microsoft-com:datatypes"><Description dt:dt="string">E-Prime Primary Realtime Clock</Description><StartTime><Timestamp dt:dt="int">0</Timestamp><DateUtc dt:dt="string">2015-08-12T15:01:32Z</DateUtc></StartTime><FrequencyChanges><FrequencyChange><Frequency dt:dt="r8">2441416</Frequency><Timestamp dt:dt="r8">40737931536</Timestamp><Current dt:dt="r8">0</Current><DateUtc dt:dt="string">2015-08-12T15:01:32Z</DateUtc></FrequencyChange></FrequencyChanges></Clock>\n	1 ver1_main_procedure-19-1	99.924	1.0.0.880	1	ej	2083690770	prawa	1	2.0.10.356	08-12-2015	2015-08-12 15:01:32	17:01:32	kobieta	2.0.10.92	3	4	1	1																							d	{SPACE}		no	BlockProc2		BlockList									27	Free	dl	color_red.png		0	13	350671	310																								25	prime_left.png	0	350030	0	0	13	0	350030	0	350030	1	350030	20	0	-1	348531	350030	350029	0		TrialProc1	left	0		0	10	350340	-350340		0	0	TrialList2	target_both.png	0	dl	0	3	350080	260	d	577	350657															7	1	27	comp			300
1 ver1_main_procedure	19	1	35	<?xml version="1.0"?>\n<Clock xmlns:dt="urn:schemas-microsoft-com:datatypes"><Description dt:dt="string">E-Prime Primary Realtime Clock</Description><StartTime><Timestamp dt:dt="int">0</Timestamp><DateUtc dt:dt="string">2015-08-12T15:01:32Z</DateUtc></StartTime><FrequencyChanges><FrequencyChange><Frequency dt:dt="r8">2441416</Frequency><Timestamp dt:dt="r8">40737931536</Timestamp><Current dt:dt="r8">0</Current><DateUtc dt:dt="string">2015-08-12T15:01:32Z</DateUtc></FrequencyChange></FrequencyChanges></Clock>\n	1 ver1_main_procedure-19-1	99.924	1.0.0.880	1	ej	2083690770	prawa	1	2.0.10.356	08-12-2015	2015-08-12 15:01:32	17:01:32	kobieta	2.0.10.92	3	4	1	1																							d	{SPACE}		no	BlockProc2		BlockList									28	Free	dl	color_purple.png		0	13	353373	320																			2					75	prime_right.png	0	352792	0	0	13	0	352792	0	352792	1	352792	20	0	-1	351293	352792	352791	0	prime_right.png	TrialProc1	left	0		0	10	353102	-353102		0	0	TrialList2	target_both.png	0	dl	0	3	352842	260	l	518	353360															8	1	28	neut			300
1 ver1_main_procedure	19	1	35	<?xml version="1.0"?>\n<Clock xmlns:dt="urn:schemas-microsoft-com:datatypes"><Description dt:dt="string">E-Prime Primary Realtime Clock</Description><StartTime><Timestamp dt:dt="int">0</Timestamp><DateUtc dt:dt="string">2015-08-12T15:01:32Z</DateUtc></StartTime><FrequencyChanges><FrequencyChange><Frequency dt:dt="r8">2441416</Frequency><Timestamp dt:dt="r8">40737931536</Timestamp><Current dt:dt="r8">0</Current><DateUtc dt:dt="string">2015-08-12T15:01:32Z</DateUtc></FrequencyChange></FrequencyChanges></Clock>\n	1 ver1_main_procedure-19-1	99.924	1.0.0.880	1	ej	2083690770	prawa	1	2.0.10.356	08-12-2015	2015-08-12 15:01:32	17:01:32	kobieta	2.0.10.92	3	4	1	1																							d	{SPACE}		no	BlockProc2		BlockList									29	Cued	d	color_yellow.png		0	8	355974	311																			1					25	prime_left.png	0	355504	0	0	13	0	355504	0	355504	1	355504	20	0	-1	354005	355504	355503	0	prime_left.png	TrialProc1	left	0		0	10	355814	-355814		0	0	TrialList2	target_left.png	1	d	0	3	355554	260	d	412	355966															2	1	29	neut			300
1 ver1_main_procedure	19	1	35	<?xml version="1.0"?>\n<Clock xmlns:dt="urn:schemas-microsoft-com:datatypes"><Description dt:dt="string">E-Prime Primary Realtime Clock</Description><StartTime><Timestamp dt:dt="int">0</Timestamp><DateUtc dt:dt="string">2015-08-12T15:01:32Z</DateUtc></StartTime><FrequencyChanges><FrequencyChange><Frequency dt:dt="r8">2441416</Frequency><Timestamp dt:dt="r8">40737931536</Timestamp><Current dt:dt="r8">0</Current><DateUtc dt:dt="string">2015-08-12T15:01:32Z</DateUtc></FrequencyChange></FrequencyChanges></Clock>\n	1 ver1_main_procedure-19-1	99.924	1.0.0.880	1	ej	2083690770	prawa	1	2.0.10.356	08-12-2015	2015-08-12 15:01:32	17:01:32	kobieta	2.0.10.92	3	4	1	1																							d	{SPACE}		no	BlockProc2		BlockList									30	Free	dl	color_purple.png		0	10	358666	461																			2					75	prime_right.png	0	358096	0	0	13	0	358096	0	358096	1	358096	20	0	-1	356597	358096	358095	0	prime_right.png	TrialProc1	right	0		0	10	358406	-358406		0	0	TrialList2	target_both.png	0	dl	0	3	358146	260	l	510	358656															11	1	30	neut			450
1 ver1_main_procedure	19	1	35	<?xml version="1.0"?>\n<Clock xmlns:dt="urn:schemas-microsoft-com:datatypes"><Description dt:dt="string">E-Prime Primary Realtime Clock</Description><StartTime><Timestamp dt:dt="int">0</Timestamp><DateUtc dt:dt="string">2015-08-12T15:01:32Z</DateUtc></StartTime><FrequencyChanges><FrequencyChange><Frequency dt:dt="r8">2441416</Frequency><Timestamp dt:dt="r8">40737931536</Timestamp><Current dt:dt="r8">0</Current><DateUtc dt:dt="string">2015-08-12T15:01:32Z</DateUtc></FrequencyChange></FrequencyChanges></Clock>\n	1 ver1_main_procedure-19-1	99.924	1.0.0.880	1	ej	2083690770	prawa	1	2.0.10.356	08-12-2015	2015-08-12 15:01:32	17:01:32	kobieta	2.0.10.92	3	4	1	1																							d	{SPACE}		no	BlockProc2		BlockList									31	Free	dl	color_orange.png		0	10	361168	461																								75	prime_right.png	0	360938	0	0	13	0	360938	0	360938	1	360938	20	0	-1	359439	360938	360937	0		TrialProc1	right	0		0	0	0	0		0	0	TrialList2	target_both.png	0	dl	-999999	3	360988	0	d	170	361158															10	1	31	comp			450
1 ver1_main_procedure	19	1	35	<?xml version="1.0"?>\n<Clock xmlns:dt="urn:schemas-microsoft-com:datatypes"><Description dt:dt="string">E-Prime Primary Realtime Clock</Description><StartTime><Timestamp dt:dt="int">0</Timestamp><DateUtc dt:dt="string">2015-08-12T15:01:32Z</DateUtc></StartTime><FrequencyChanges><FrequencyChange><Frequency dt:dt="r8">2441416</Frequency><Timestamp dt:dt="r8">40737931536</Timestamp><Current dt:dt="r8">0</Current><DateUtc dt:dt="string">2015-08-12T15:01:32Z</DateUtc></FrequencyChange></FrequencyChanges></Clock>\n	1 ver1_main_procedure-19-1	99.924	1.0.0.880	1	ej	2083690770	prawa	1	2.0.10.356	08-12-2015	2015-08-12 15:01:32	17:01:32	kobieta	2.0.10.92	3	4	1	1																							d	{SPACE}		no	BlockProc2		BlockList									32	Free	dl	color_green.png		0	14	363880	160																								25	prime_right.png	0	363440	0	0	13	0	363440	0	363440	1	363440	20	0	-1	361941	363440	363439	0		TrialProc1	right	0		0	10	363750	-363750		0	0	TrialList2	target_both.png	0	dl	0	3	363490	260	l	376	363866															10	1	32	comp			150
1 ver1_main_procedure	19	1	35	<?xml version="1.0"?>\n<Clock xmlns:dt="urn:schemas-microsoft-com:datatypes"><Description dt:dt="string">E-Prime Primary Realtime Clock</Description><StartTime><Timestamp dt:dt="int">0</Timestamp><DateUtc dt:dt="string">2015-08-12T15:01:32Z</DateUtc></StartTime><FrequencyChanges><FrequencyChange><Frequency dt:dt="r8">2441416</Frequency><Timestamp dt:dt="r8">40737931536</Timestamp><Current dt:dt="r8">0</Current><DateUtc dt:dt="string">2015-08-12T15:01:32Z</DateUtc></FrequencyChange></FrequencyChanges></Clock>\n	1 ver1_main_procedure-19-1	99.924	1.0.0.880	1	ej	2083690770	prawa	1	2.0.10.356	08-12-2015	2015-08-12 15:01:32	17:01:32	kobieta	2.0.10.92	3	4	1	1																							d	{SPACE}		no	BlockProc2		BlockList									33	Free	dl	color_orange.png		0	12	366352	310																								25	prime_right.png	0	365852	0	0	13	0	365852	0	365852	1	365852	20	0	-1	364353	365852	365851	0		TrialProc1	right	0		0	10	366162	-366162		0	0	TrialList2	target_both.png	0	dl	0	3	365902	260	d	438	366340															10	1	33	comp			300
1 ver1_main_procedure	19	1	35	<?xml version="1.0"?>\n<Clock xmlns:dt="urn:schemas-microsoft-com:datatypes"><Description dt:dt="string">E-Prime Primary Realtime Clock</Description><StartTime><Timestamp dt:dt="int">0</Timestamp><DateUtc dt:dt="string">2015-08-12T15:01:32Z</DateUtc></StartTime><FrequencyChanges><FrequencyChange><Frequency dt:dt="r8">2441416</Frequency><Timestamp dt:dt="r8">40737931536</Timestamp><Current dt:dt="r8">0</Current><DateUtc dt:dt="string">2015-08-12T15:01:32Z</DateUtc></FrequencyChange></FrequencyChanges></Clock>\n	1 ver1_main_procedure-19-1	99.924	1.0.0.880	1	ej	2083690770	prawa	1	2.0.10.356	08-12-2015	2015-08-12 15:01:32	17:01:32	kobieta	2.0.10.92	3	4	1	1																							d	{SPACE}		no	BlockProc2		BlockList									34	Cued	l	color_blue.png		0	12	368884	310																								75	prime_left.png	0	368474	0	0	13	0	368474	0	368474	1	368474	20	0	-1	366975	368474	368473	0		TrialProc1	right	0		0	10	368784	-368784		0	0	TrialList2	target_right.png	1	l	0	3	368524	260	l	348	368872															6	1	34	incomp			300
1 ver1_main_procedure	19	1	35	<?xml version="1.0"?>\n<Clock xmlns:dt="urn:schemas-microsoft-com:datatypes"><Description dt:dt="string">E-Prime Primary Realtime Clock</Description><StartTime><Timestamp dt:dt="int">0</Timestamp><DateUtc dt:dt="string">2015-08-12T15:01:32Z</DateUtc></StartTime><FrequencyChanges><FrequencyChange><Frequency dt:dt="r8">2441416</Frequency><Timestamp dt:dt="r8">40737931536</Timestamp><Current dt:dt="r8">0</Current><DateUtc dt:dt="string">2015-08-12T15:01:32Z</DateUtc></FrequencyChange></FrequencyChanges></Clock>\n	1 ver1_main_procedure-19-1	99.924	1.0.0.880	1	ej	2083690770	prawa	1	2.0.10.356	08-12-2015	2015-08-12 15:01:32	17:01:32	kobieta	2.0.10.92	3	4	1	1																							d	{SPACE}		no	BlockProc2		BlockList									35	Free	dl	color_red.png		0	13	371586	310																								25	prime_left.png	0	371006	0	0	13	0	371006	0	371006	2	371006	20	0	-1	369507	371006	371004	0		TrialProc1	left	0		0	10	371316	-371316		0	0	TrialList2	target_both.png	0	dl	0	3	371056	260	d	517	371573															7	1	35	comp			300
1 ver1_main_procedure	19	1	35	<?xml version="1.0"?>\n<Clock xmlns:dt="urn:schemas-microsoft-com:datatypes"><Description dt:dt="string">E-Prime Primary Realtime Clock</Description><StartTime><Timestamp dt:dt="int">0</Timestamp><DateUtc dt:dt="string">2015-08-12T15:01:32Z</DateUtc></StartTime><FrequencyChanges><FrequencyChange><Frequency dt:dt="r8">2441416</Frequency><Timestamp dt:dt="r8">40737931536</Timestamp><Current dt:dt="r8">0</Current><DateUtc dt:dt="string">2015-08-12T15:01:32Z</DateUtc></FrequencyChange></FrequencyChanges></Clock>\n	1 ver1_main_procedure-19-1	99.924	1.0.0.880	1	ej	2083690770	prawa	1	2.0.10.356	08-12-2015	2015-08-12 15:01:32	17:01:32	kobieta	2.0.10.92	3	4	1	1																							d	{SPACE}		no	BlockProc2		BlockList									36	Free	dl	color_blue.png		0	7	374258	460																								75	prime_left.png	0	373708	0	0	13	0	373708	0	373708	2	373708	20	0	-1	372209	373708	373706	0		TrialProc1	right	0		0	10	374018	-374018		0	0	TrialList2	target_both.png	0	dl	0	3	373758	260	l	493	374251															12	1	36	incomp			450
1 ver1_main_procedure	19	1	35	<?xml version="1.0"?>\n<Clock xmlns:dt="urn:schemas-microsoft-com:datatypes"><Description dt:dt="string">E-Prime Primary Realtime Clock</Description><StartTime><Timestamp dt:dt="int">0</Timestamp><DateUtc dt:dt="string">2015-08-12T15:01:32Z</DateUtc></StartTime><FrequencyChanges><FrequencyChange><Frequency dt:dt="r8">2441416</Frequency><Timestamp dt:dt="r8">40737931536</Timestamp><Current dt:dt="r8">0</Current><DateUtc dt:dt="string">2015-08-12T15:01:32Z</DateUtc></FrequencyChange></FrequencyChanges></Clock>\n	1 ver1_main_procedure-19-1	99.924	1.0.0.880	1	ej	2083690770	prawa	1	2.0.10.356	08-12-2015	2015-08-12 15:01:32	17:01:32	kobieta	2.0.10.92	3	4	1	1																							d	{SPACE}		no	BlockProc2		BlockList									37	Free	dl	color_yellow.png		0	11	377100	460																			1					75	prime_left.png	0	376530	0	0	13	0	376530	0	376530	1	376530	20	0	-1	375031	376530	376529	0	prime_left.png	TrialProc1	right	0		0	10	376840	-376840		0	0	TrialList2	target_both.png	0	dl	0	3	376580	260	d	509	377089															11	1	37	neut			450
1 ver1_main_procedure	19	1	35	<?xml version="1.0"?>\n<Clock xmlns:dt="urn:schemas-microsoft-com:datatypes"><Description dt:dt="string">E-Prime Primary Realtime Clock</Description><StartTime><Timestamp dt:dt="int">0</Timestamp><DateUtc dt:dt="string">2015-08-12T15:01:32Z</DateUtc></StartTime><FrequencyChanges><FrequencyChange><Frequency dt:dt="r8">2441416</Frequency><Timestamp dt:dt="r8">40737931536</Timestamp><Current dt:dt="r8">0</Current><DateUtc dt:dt="string">2015-08-12T15:01:32Z</DateUtc></FrequencyChange></FrequencyChanges></Clock>\n	1 ver1_main_procedure-19-1	99.924	1.0.0.880	1	ej	2083690770	prawa	1	2.0.10.356	08-12-2015	2015-08-12 15:01:32	17:01:32	kobieta	2.0.10.92	3	4	1	1																							d	{SPACE}		no	BlockProc2		BlockList									38	Free	dl	color_green.png		0	5	379992	310																								75	prime_right.png	0	379372	0	0	13	0	379372	0	379372	1	379372	20	0	-1	377873	379372	379371	0		TrialProc1	left	0		0	10	379682	-379682		0	0	TrialList2	target_both.png	0	dl	0	3	379422	260	l	565	379987															9	1	38	incomp			300
1 ver1_main_procedure	19	1	35	<?xml version="1.0"?>\n<Clock xmlns:dt="urn:schemas-microsoft-com:datatypes"><Description dt:dt="string">E-Prime Primary Realtime Clock</Description><StartTime><Timestamp dt:dt="int">0</Timestamp><DateUtc dt:dt="string">2015-08-12T15:01:32Z</DateUtc></StartTime><FrequencyChanges><FrequencyChange><Frequency dt:dt="r8">2441416</Frequency><Timestamp dt:dt="r8">40737931536</Timestamp><Current dt:dt="r8">0</Current><DateUtc dt:dt="string">2015-08-12T15:01:32Z</DateUtc></FrequencyChange></FrequencyChanges></Clock>\n	1 ver1_main_procedure-19-1	99.924	1.0.0.880	1	ej	2083690770	prawa	1	2.0.10.356	08-12-2015	2015-08-12 15:01:32	17:01:32	kobieta	2.0.10.92	3	4	1	1																							d	{SPACE}		no	BlockProc2		BlockList									39	Free	dl	color_yellow.png		0	11	382544	460																			2					75	prime_right.png	0	382114	0	0	13	0	382114	0	382114	1	382114	20	0	-1	380615	382114	382113	0	prime_right.png	TrialProc1	right	0		0	10	382424	-382424		0	0	TrialList2	target_both.png	0	dl	0	3	382164	260	d	369	382533															11	1	39	neut			450
1 ver1_main_procedure	19	1	35	<?xml version="1.0"?>\n<Clock xmlns:dt="urn:schemas-microsoft-com:datatypes"><Description dt:dt="string">E-Prime Primary Realtime Clock</Description><StartTime><Timestamp dt:dt="int">0</Timestamp><DateUtc dt:dt="string">2015-08-12T15:01:32Z</DateUtc></StartTime><FrequencyChanges><FrequencyChange><Frequency dt:dt="r8">2441416</Frequency><Timestamp dt:dt="r8">40737931536</Timestamp><Current dt:dt="r8">0</Current><DateUtc dt:dt="string">2015-08-12T15:01:32Z</DateUtc></FrequencyChange></FrequencyChanges></Clock>\n	1 ver1_main_procedure-19-1	99.924	1.0.0.880	1	ej	2083690770	prawa	1	2.0.10.356	08-12-2015	2015-08-12 15:01:32	17:01:32	kobieta	2.0.10.92	3	4	1	1																							d	{SPACE}		no	BlockProc2		BlockList									40	Free	dl	color_purple.png		0	9	385246	160																			1					75	prime_left.png	0	384816	0	0	13	0	384816	0	384816	1	384816	20	0	-1	383317	384816	384815	0	prime_left.png	TrialProc1	right	0		0	10	385126	-385126		0	0	TrialList2	target_both.png	0	dl	0	3	384866	260	l	371	385237															11	1	40	neut			150
1 ver1_main_procedure	19	1	35	<?xml version="1.0"?>\n<Clock xmlns:dt="urn:schemas-microsoft-com:datatypes"><Description dt:dt="string">E-Prime Primary Realtime Clock</Description><StartTime><Timestamp dt:dt="int">0</Timestamp><DateUtc dt:dt="string">2015-08-12T15:01:32Z</DateUtc></StartTime><FrequencyChanges><FrequencyChange><Frequency dt:dt="r8">2441416</Frequency><Timestamp dt:dt="r8">40737931536</Timestamp><Current dt:dt="r8">0</Current><DateUtc dt:dt="string">2015-08-12T15:01:32Z</DateUtc></FrequencyChange></FrequencyChanges></Clock>\n	1 ver1_main_procedure-19-1	99.924	1.0.0.880	1	ej	2083690770	prawa	1	2.0.10.356	08-12-2015	2015-08-12 15:01:32	17:01:32	kobieta	2.0.10.92	3	4	1	1																							d	{SPACE}		no	BlockProc2		BlockList									41	Free	dl	color_orange.png		0	10	387808	160																								25	prime_right.png	0	387218	0	0	13	0	387218	0	387218	2	387218	20	0	-1	385719	387218	387216	0		TrialProc1	left	0		0	10	387528	-387528		0	0	TrialList2	target_both.png	0	dl	0	3	387268	260	d	529	387797															9	1	41	incomp			150
1 ver1_main_procedure	19	1	35	<?xml version="1.0"?>\n<Clock xmlns:dt="urn:schemas-microsoft-com:datatypes"><Description dt:dt="string">E-Prime Primary Realtime Clock</Description><StartTime><Timestamp dt:dt="int">0</Timestamp><DateUtc dt:dt="string">2015-08-12T15:01:32Z</DateUtc></StartTime><FrequencyChanges><FrequencyChange><Frequency dt:dt="r8">2441416</Frequency><Timestamp dt:dt="r8">40737931536</Timestamp><Current dt:dt="r8">0</Current><DateUtc dt:dt="string">2015-08-12T15:01:32Z</DateUtc></FrequencyChange></FrequencyChanges></Clock>\n	1 ver1_main_procedure-19-1	99.924	1.0.0.880	1	ej	2083690770	prawa	1	2.0.10.356	08-12-2015	2015-08-12 15:01:32	17:01:32	kobieta	2.0.10.92	3	4	1	1																							d	{SPACE}		no	BlockProc2		BlockList									42	Cued	l	color_blue.png		0	10	390400	460																								75	prime_left.png	1	389780	0	0	13	1	389780	1	389780	1	389779	20	0	-1	388281	389779	389778	0		TrialProc1	right	0		0	11	390090	-390090		0	0	TrialList2	target_right.png	1	l	0	3	389829	261	l	560	390389															6	1	42	incomp			450
1 ver1_main_procedure	19	1	35	<?xml version="1.0"?>\n<Clock xmlns:dt="urn:schemas-microsoft-com:datatypes"><Description dt:dt="string">E-Prime Primary Realtime Clock</Description><StartTime><Timestamp dt:dt="int">0</Timestamp><DateUtc dt:dt="string">2015-08-12T15:01:32Z</DateUtc></StartTime><FrequencyChanges><FrequencyChange><Frequency dt:dt="r8">2441416</Frequency><Timestamp dt:dt="r8">40737931536</Timestamp><Current dt:dt="r8">0</Current><DateUtc dt:dt="string">2015-08-12T15:01:32Z</DateUtc></FrequencyChange></FrequencyChanges></Clock>\n	1 ver1_main_procedure-19-1	99.924	1.0.0.880	1	ej	2083690770	prawa	1	2.0.10.356	08-12-2015	2015-08-12 15:01:32	17:01:32	kobieta	2.0.10.92	3	4	1	1																							d	{SPACE}		no	BlockProc2		BlockList									43	Free	dl	color_purple.png		0	6	393492	310																			2					75	prime_right.png	0	392672	0	0	13	0	392672	0	392672	2	392672	20	0	-1	391173	392672	392670	0	prime_right.png	TrialProc1	right	0		0	10	392982	-392982		0	0	TrialList2	target_both.png	0	dl	0	3	392722	260	l	763	393485															11	1	43	neut			300
1 ver1_main_procedure	19	1	35	<?xml version="1.0"?>\n<Clock xmlns:dt="urn:schemas-microsoft-com:datatypes"><Description dt:dt="string">E-Prime Primary Realtime Clock</Description><StartTime><Timestamp dt:dt="int">0</Timestamp><DateUtc dt:dt="string">2015-08-12T15:01:32Z</DateUtc></StartTime><FrequencyChanges><FrequencyChange><Frequency dt:dt="r8">2441416</Frequency><Timestamp dt:dt="r8">40737931536</Timestamp><Current dt:dt="r8">0</Current><DateUtc dt:dt="string">2015-08-12T15:01:32Z</DateUtc></FrequencyChange></FrequencyChanges></Clock>\n	1 ver1_main_procedure-19-1	99.924	1.0.0.880	1	ej	2083690770	prawa	1	2.0.10.356	08-12-2015	2015-08-12 15:01:32	17:01:32	kobieta	2.0.10.92	3	4	1	1																							d	{SPACE}		no	BlockProc2		BlockList									44	Free	dl	color_red.png		0	11	395994	460																								75	prime_left.png	0	395614	0	0	13	0	395614	0	395614	1	395614	20	0	-1	394115	395614	395613	0		TrialProc1	left	0		0	10	395924	-395924		0	0	TrialList2	target_both.png	0	dl	0	3	395664	260	d	319	395983															7	1	44	comp			450
1 ver1_main_procedure	19	1	35	<?xml version="1.0"?>\n<Clock xmlns:dt="urn:schemas-microsoft-com:datatypes"><Description dt:dt="string">E-Prime Primary Realtime Clock</Description><StartTime><Timestamp dt:dt="int">0</Timestamp><DateUtc dt:dt="string">2015-08-12T15:01:32Z</DateUtc></StartTime><FrequencyChanges><FrequencyChange><Frequency dt:dt="r8">2441416</Frequency><Timestamp dt:dt="r8">40737931536</Timestamp><Current dt:dt="r8">0</Current><DateUtc dt:dt="string">2015-08-12T15:01:32Z</DateUtc></FrequencyChange></FrequencyChanges></Clock>\n	1 ver1_main_procedure-19-1	99.924	1.0.0.880	1	ej	2083690770	prawa	1	2.0.10.356	08-12-2015	2015-08-12 15:01:32	17:01:32	kobieta	2.0.10.92	3	4	1	1																							d	{SPACE}		no	BlockProc2		BlockList									45	Free	dl	color_purple.png		0	11	398816	310																			1					75	prime_left.png	0	398266	0	0	13	0	398266	0	398266	1	398266	20	0	-1	396767	398266	398265	0	prime_left.png	TrialProc1	right	0		0	10	398576	-398576		0	0	TrialList2	target_both.png	0	dl	0	3	398316	260	l	489	398805															11	1	45	neut			300
1 ver1_main_procedure	19	1	35	<?xml version="1.0"?>\n<Clock xmlns:dt="urn:schemas-microsoft-com:datatypes"><Description dt:dt="string">E-Prime Primary Realtime Clock</Description><StartTime><Timestamp dt:dt="int">0</Timestamp><DateUtc dt:dt="string">2015-08-12T15:01:32Z</DateUtc></StartTime><FrequencyChanges><FrequencyChange><Frequency dt:dt="r8">2441416</Frequency><Timestamp dt:dt="r8">40737931536</Timestamp><Current dt:dt="r8">0</Current><DateUtc dt:dt="string">2015-08-12T15:01:32Z</DateUtc></FrequencyChange></FrequencyChanges></Clock>\n	1 ver1_main_procedure-19-1	99.924	1.0.0.880	1	ej	2083690770	prawa	1	2.0.10.356	08-12-2015	2015-08-12 15:01:32	17:01:32	kobieta	2.0.10.92	3	4	1	1																							d	{SPACE}		no	BlockProc2		BlockList									46	Free	dl	color_red.png		0	13	401468	310																								25	prime_left.png	0	400938	0	0	13	0	400938	0	400938	1	400938	20	0	-1	399439	400938	400937	0		TrialProc1	left	0		0	10	401248	-401248		0	0	TrialList2	target_both.png	0	dl	0	3	400988	260	d	467	401455															7	1	46	comp			300
1 ver1_main_procedure	19	1	35	<?xml version="1.0"?>\n<Clock xmlns:dt="urn:schemas-microsoft-com:datatypes"><Description dt:dt="string">E-Prime Primary Realtime Clock</Description><StartTime><Timestamp dt:dt="int">0</Timestamp><DateUtc dt:dt="string">2015-08-12T15:01:32Z</DateUtc></StartTime><FrequencyChanges><FrequencyChange><Frequency dt:dt="r8">2441416</Frequency><Timestamp dt:dt="r8">40737931536</Timestamp><Current dt:dt="r8">0</Current><DateUtc dt:dt="string">2015-08-12T15:01:32Z</DateUtc></FrequencyChange></FrequencyChanges></Clock>\n	1 ver1_main_procedure-19-1	99.924	1.0.0.880	1	ej	2083690770	prawa	1	2.0.10.356	08-12-2015	2015-08-12 15:01:32	17:01:32	kobieta	2.0.10.92	3	4	1	1																							d	{SPACE}		no	BlockProc2		BlockList									47	Free	dl	color_purple.png		0	12	404300	160																			2					75	prime_right.png	0	403590	0	0	13	0	403590	0	403590	1	403590	20	0	-1	402091	403590	403589	0	prime_right.png	TrialProc1	left	0		0	10	403900	-403900		0	0	TrialList2	target_both.png	0	dl	0	3	403640	260	l	648	404288															8	1	47	neut			150
1 ver1_main_procedure	19	1	35	<?xml version="1.0"?>\n<Clock xmlns:dt="urn:schemas-microsoft-com:datatypes"><Description dt:dt="string">E-Prime Primary Realtime Clock</Description><StartTime><Timestamp dt:dt="int">0</Timestamp><DateUtc dt:dt="string">2015-08-12T15:01:32Z</DateUtc></StartTime><FrequencyChanges><FrequencyChange><Frequency dt:dt="r8">2441416</Frequency><Timestamp dt:dt="r8">40737931536</Timestamp><Current dt:dt="r8">0</Current><DateUtc dt:dt="string">2015-08-12T15:01:32Z</DateUtc></FrequencyChange></FrequencyChanges></Clock>\n	1 ver1_main_procedure-19-1	99.924	1.0.0.880	1	ej	2083690770	prawa	1	2.0.10.356	08-12-2015	2015-08-12 15:01:32	17:01:32	kobieta	2.0.10.92	3	4	1	1																							d	{SPACE}		no	BlockProc2		BlockList									48	Free	dl			0	1	408083	460																								75	prime_right.png	0	406272	0	0	13	0	406272	0	406272	2	406272	20	0	-1	404773	406272	406270	0		TrialProc1	left	0		0	10	406582	1501		0	0	TrialList2	target_both.png	0	dl	0	3	406322	260		0	0															9	1	48	incomp			450
1 ver1_main_procedure	19	1	35	<?xml version="1.0"?>\n<Clock xmlns:dt="urn:schemas-microsoft-com:datatypes"><Description dt:dt="string">E-Prime Primary Realtime Clock</Description><StartTime><Timestamp dt:dt="int">0</Timestamp><DateUtc dt:dt="string">2015-08-12T15:01:32Z</DateUtc></StartTime><FrequencyChanges><FrequencyChange><Frequency dt:dt="r8">2441416</Frequency><Timestamp dt:dt="r8">40737931536</Timestamp><Current dt:dt="r8">0</Current><DateUtc dt:dt="string">2015-08-12T15:01:32Z</DateUtc></FrequencyChange></FrequencyChanges></Clock>\n	1 ver1_main_procedure-19-1	99.924	1.0.0.880	1	ej	2083690770	prawa	1	2.0.10.356	08-12-2015	2015-08-12 15:01:32	17:01:32	kobieta	2.0.10.92	3	4	1	1																							d	{SPACE}		no	BlockProc2		BlockList									49	Cued	l	color_green.png		0	13	410855	310																								25	prime_right.png	0	410355	0	0	13	0	410355	0	410355	1	410355	20	0	-1	408856	410355	410354	0		TrialProc1	right	0		0	10	410665	-410665		0	0	TrialList2	target_right.png	1	l	0	3	410405	260	l	437	410842															4	1	49	comp			300
1 ver1_main_procedure	19	1	35	<?xml version="1.0"?>\n<Clock xmlns:dt="urn:schemas-microsoft-com:datatypes"><Description dt:dt="string">E-Prime Primary Realtime Clock</Description><StartTime><Timestamp dt:dt="int">0</Timestamp><DateUtc dt:dt="string">2015-08-12T15:01:32Z</DateUtc></StartTime><FrequencyChanges><FrequencyChange><Frequency dt:dt="r8">2441416</Frequency><Timestamp dt:dt="r8">40737931536</Timestamp><Current dt:dt="r8">0</Current><DateUtc dt:dt="string">2015-08-12T15:01:32Z</DateUtc></FrequencyChange></FrequencyChanges></Clock>\n	1 ver1_main_procedure-19-1	99.924	1.0.0.880	1	ej	2083690770	prawa	1	2.0.10.356	08-12-2015	2015-08-12 15:01:32	17:01:32	kobieta	2.0.10.92	3	4	1	1																							d	{SPACE}		no	BlockProc2		BlockList									50	Free	dl	color_red.png		0	7	413857	310																								25	prime_left.png	0	412977	0	0	13	0	412977	0	412977	2	412977	20	0	-1	411478	412977	412975	0		TrialProc1	left	0		0	10	413287	-413287		0	0	TrialList2	target_both.png	0	dl	0	3	413027	260	d	823	413850															7	1	50	comp			300
1 ver1_main_procedure	19	1	35	<?xml version="1.0"?>\n<Clock xmlns:dt="urn:schemas-microsoft-com:datatypes"><Description dt:dt="string">E-Prime Primary Realtime Clock</Description><StartTime><Timestamp dt:dt="int">0</Timestamp><DateUtc dt:dt="string">2015-08-12T15:01:32Z</DateUtc></StartTime><FrequencyChanges><FrequencyChange><Frequency dt:dt="r8">2441416</Frequency><Timestamp dt:dt="r8">40737931536</Timestamp><Current dt:dt="r8">0</Current><DateUtc dt:dt="string">2015-08-12T15:01:32Z</DateUtc></FrequencyChange></FrequencyChanges></Clock>\n	1 ver1_main_procedure-19-1	99.924	1.0.0.880	1	ej	2083690770	prawa	1	2.0.10.356	08-12-2015	2015-08-12 15:01:32	17:01:32	kobieta	2.0.10.92	3	4	1	1																							d	{SPACE}		no	BlockProc2		BlockList									51	Free	dl	color_green.png		0	9	416569	160																								25	prime_right.png	0	415979	0	0	13	0	415979	0	415979	1	415979	20	0	-1	414480	415979	415978	0		TrialProc1	right	0		0	10	416289	-416289		0	0	TrialList2	target_both.png	0	dl	0	3	416029	260	l	531	416560															10	1	51	comp			150
1 ver1_main_procedure	19	1	35	<?xml version="1.0"?>\n<Clock xmlns:dt="urn:schemas-microsoft-com:datatypes"><Description dt:dt="string">E-Prime Primary Realtime Clock</Description><StartTime><Timestamp dt:dt="int">0</Timestamp><DateUtc dt:dt="string">2015-08-12T15:01:32Z</DateUtc></StartTime><FrequencyChanges><FrequencyChange><Frequency dt:dt="r8">2441416</Frequency><Timestamp dt:dt="r8">40737931536</Timestamp><Current dt:dt="r8">0</Current><DateUtc dt:dt="string">2015-08-12T15:01:32Z</DateUtc></FrequencyChange></FrequencyChanges></Clock>\n	1 ver1_main_procedure-19-1	99.924	1.0.0.880	1	ej	2083690770	prawa	1	2.0.10.356	08-12-2015	2015-08-12 15:01:32	17:01:32	kobieta	2.0.10.92	3	4	1	1																							d	{SPACE}		no	BlockProc2		BlockList									52	Free	dl	color_red.png		0	13	419001	160																								75	prime_left.png	0	418541	0	0	13	0	418541	0	418541	1	418541	20	0	-1	417042	418541	418540	0		TrialProc1	left	0		0	10	418851	-418851		0	0	TrialList2	target_both.png	0	dl	0	3	418591	260	d	397	418988															7	1	52	comp			150
1 ver1_main_procedure	19	1	35	<?xml version="1.0"?>\n<Clock xmlns:dt="urn:schemas-microsoft-com:datatypes"><Description dt:dt="string">E-Prime Primary Realtime Clock</Description><StartTime><Timestamp dt:dt="int">0</Timestamp><DateUtc dt:dt="string">2015-08-12T15:01:32Z</DateUtc></StartTime><FrequencyChanges><FrequencyChange><Frequency dt:dt="r8">2441416</Frequency><Timestamp dt:dt="r8">40737931536</Timestamp><Current dt:dt="r8">0</Current><DateUtc dt:dt="string">2015-08-12T15:01:32Z</DateUtc></FrequencyChange></FrequencyChanges></Clock>\n	1 ver1_main_procedure-19-1	99.924	1.0.0.880	1	ej	2083690770	prawa	1	2.0.10.356	08-12-2015	2015-08-12 15:01:32	17:01:32	kobieta	2.0.10.92	3	4	1	1																							d	{SPACE}		no	BlockProc2		BlockList									53	Free	dl	color_blue.png		0	6	421413	460																								75	prime_left.png	1	420973	0	0	13	1	420973	1	420973	1	420972	20	0	-1	419474	420972	420971	0		TrialProc1	left	0		0	11	421283	-421283		0	0	TrialList2	target_both.png	0	dl	0	3	421022	261	l	385	421407															7	1	53	comp			450
1 ver1_main_procedure	19	1	35	<?xml version="1.0"?>\n<Clock xmlns:dt="urn:schemas-microsoft-com:datatypes"><Description dt:dt="string">E-Prime Primary Realtime Clock</Description><StartTime><Timestamp dt:dt="int">0</Timestamp><DateUtc dt:dt="string">2015-08-12T15:01:32Z</DateUtc></StartTime><FrequencyChanges><FrequencyChange><Frequency dt:dt="r8">2441416</Frequency><Timestamp dt:dt="r8">40737931536</Timestamp><Current dt:dt="r8">0</Current><DateUtc dt:dt="string">2015-08-12T15:01:32Z</DateUtc></FrequencyChange></FrequencyChanges></Clock>\n	1 ver1_main_procedure-19-1	99.924	1.0.0.880	1	ej	2083690770	prawa	1	2.0.10.356	08-12-2015	2015-08-12 15:01:32	17:01:32	kobieta	2.0.10.92	3	4	1	1																							d	{SPACE}		no	BlockProc2		BlockList									54	Free	dl	color_orange.png		0	8	424215	310																								25	prime_right.png	0	423685	0	0	13	0	423685	0	423685	2	423685	20	0	-1	422186	423685	423683	0		TrialProc1	left	0		0	11	423995	-423995		0	0	TrialList2	target_both.png	0	dl	0	2	423734	261	d	473	424207															9	1	54	incomp			300
1 ver1_main_procedure	19	1	35	<?xml version="1.0"?>\n<Clock xmlns:dt="urn:schemas-microsoft-com:datatypes"><Description dt:dt="string">E-Prime Primary Realtime Clock</Description><StartTime><Timestamp dt:dt="int">0</Timestamp><DateUtc dt:dt="string">2015-08-12T15:01:32Z</DateUtc></StartTime><FrequencyChanges><FrequencyChange><Frequency dt:dt="r8">2441416</Frequency><Timestamp dt:dt="r8">40737931536</Timestamp><Current dt:dt="r8">0</Current><DateUtc dt:dt="string">2015-08-12T15:01:32Z</DateUtc></FrequencyChange></FrequencyChanges></Clock>\n	1 ver1_main_procedure-19-1	99.924	1.0.0.880	1	ej	2083690770	prawa	1	2.0.10.356	08-12-2015	2015-08-12 15:01:32	17:01:32	kobieta	2.0.10.92	3	4	1	1																							d	{SPACE}		no	BlockProc2		BlockList									55	Cued	l	color_purple.png		0	14	426867	460																			1					25	prime_left.png	1	426337	0	0	13	1	426337	1	426337	1	426336	20	0	-1	424838	426336	426335	0	prime_left.png	TrialProc1	right	0		0	11	426647	-426647		0	0	TrialList2	target_right.png	1	l	0	3	426386	261	l	467	426853															5	1	55	neut			450
1 ver1_main_procedure	19	1	35	<?xml version="1.0"?>\n<Clock xmlns:dt="urn:schemas-microsoft-com:datatypes"><Description dt:dt="string">E-Prime Primary Realtime Clock</Description><StartTime><Timestamp dt:dt="int">0</Timestamp><DateUtc dt:dt="string">2015-08-12T15:01:32Z</DateUtc></StartTime><FrequencyChanges><FrequencyChange><Frequency dt:dt="r8">2441416</Frequency><Timestamp dt:dt="r8">40737931536</Timestamp><Current dt:dt="r8">0</Current><DateUtc dt:dt="string">2015-08-12T15:01:32Z</DateUtc></FrequencyChange></FrequencyChanges></Clock>\n	1 ver1_main_procedure-19-1	99.924	1.0.0.880	1	ej	2083690770	prawa	1	2.0.10.356	08-12-2015	2015-08-12 15:01:32	17:01:32	kobieta	2.0.10.92	3	4	1	1																							d	{SPACE}		no	BlockProc2		BlockList									56	Cued	d	color_red.png		0	8	429639	310																								75	prime_left.png	0	429139	0	0	13	0	429139	0	429139	2	429139	19	0	-1	427640	429139	429137	0		TrialProc1	left	0		0	10	429449	-429449		0	0	TrialList2	target_left.png	1	d	0	4	429189	260	d	442	429631															1	1	56	comp			300
1 ver1_main_procedure	19	1	35	<?xml version="1.0"?>\n<Clock xmlns:dt="urn:schemas-microsoft-com:datatypes"><Description dt:dt="string">E-Prime Primary Realtime Clock</Description><StartTime><Timestamp dt:dt="int">0</Timestamp><DateUtc dt:dt="string">2015-08-12T15:01:32Z</DateUtc></StartTime><FrequencyChanges><FrequencyChange><Frequency dt:dt="r8">2441416</Frequency><Timestamp dt:dt="r8">40737931536</Timestamp><Current dt:dt="r8">0</Current><DateUtc dt:dt="string">2015-08-12T15:01:32Z</DateUtc></FrequencyChange></FrequencyChanges></Clock>\n	1 ver1_main_procedure-19-1	99.924	1.0.0.880	1	ej	2083690770	prawa	1	2.0.10.356	08-12-2015	2015-08-12 15:01:32	17:01:32	kobieta	2.0.10.92	3	4	1	1																							d	{SPACE}		no	BlockProc2		BlockList									57	Free	dl	color_blue.png		0	10	432521	460																								25	prime_left.png	1	431761	0	0	13	1	431761	1	431761	1	431760	20	0	-1	430262	431760	431759	0		TrialProc1	right	0		0	11	432071	-432071		0	0	TrialList2	target_both.png	0	dl	0	3	431810	261	l	700	432510															12	1	57	incomp			450
1 ver1_main_procedure	19	1	35	<?xml version="1.0"?>\n<Clock xmlns:dt="urn:schemas-microsoft-com:datatypes"><Description dt:dt="string">E-Prime Primary Realtime Clock</Description><StartTime><Timestamp dt:dt="int">0</Timestamp><DateUtc dt:dt="string">2015-08-12T15:01:32Z</DateUtc></StartTime><FrequencyChanges><FrequencyChange><Frequency dt:dt="r8">2441416</Frequency><Timestamp dt:dt="r8">40737931536</Timestamp><Current dt:dt="r8">0</Current><DateUtc dt:dt="string">2015-08-12T15:01:32Z</DateUtc></FrequencyChange></FrequencyChanges></Clock>\n	1 ver1_main_procedure-19-1	99.924	1.0.0.880	1	ej	2083690770	prawa	1	2.0.10.356	08-12-2015	2015-08-12 15:01:32	17:01:32	kobieta	2.0.10.92	3	4	1	1																							d	{SPACE}		no	BlockProc2		BlockList									58	Cued	d	color_red.png		0	9	435233	460																								75	prime_left.png	0	434793	0	0	13	0	434793	0	434793	1	434793	20	0	-1	433294	434793	434792	0		TrialProc1	left	0		0	10	435103	-435103		0	0	TrialList2	target_left.png	1	d	0	3	434843	260	d	381	435224															1	1	58	comp			450
1 ver1_main_procedure	19	1	35	<?xml version="1.0"?>\n<Clock xmlns:dt="urn:schemas-microsoft-com:datatypes"><Description dt:dt="string">E-Prime Primary Realtime Clock</Description><StartTime><Timestamp dt:dt="int">0</Timestamp><DateUtc dt:dt="string">2015-08-12T15:01:32Z</DateUtc></StartTime><FrequencyChanges><FrequencyChange><Frequency dt:dt="r8">2441416</Frequency><Timestamp dt:dt="r8">40737931536</Timestamp><Current dt:dt="r8">0</Current><DateUtc dt:dt="string">2015-08-12T15:01:32Z</DateUtc></FrequencyChange></FrequencyChanges></Clock>\n	1 ver1_main_procedure-19-1	99.924	1.0.0.880	1	ej	2083690770	prawa	1	2.0.10.356	08-12-2015	2015-08-12 15:01:32	17:01:32	kobieta	2.0.10.92	3	4	1	1																							d	{SPACE}		no	BlockProc2		BlockList									59	Free	dl	color_blue.png		0	8	437905	460																								75	prime_left.png	0	437505	0	0	13	0	437505	0	437505	1	437505	20	0	-1	436006	437505	437504	0		TrialProc1	right	0		0	10	437815	-437815		0	0	TrialList2	target_both.png	0	dl	0	3	437555	260	l	342	437897															12	1	59	incomp			450
1 ver1_main_procedure	19	1	35	<?xml version="1.0"?>\n<Clock xmlns:dt="urn:schemas-microsoft-com:datatypes"><Description dt:dt="string">E-Prime Primary Realtime Clock</Description><StartTime><Timestamp dt:dt="int">0</Timestamp><DateUtc dt:dt="string">2015-08-12T15:01:32Z</DateUtc></StartTime><FrequencyChanges><FrequencyChange><Frequency dt:dt="r8">2441416</Frequency><Timestamp dt:dt="r8">40737931536</Timestamp><Current dt:dt="r8">0</Current><DateUtc dt:dt="string">2015-08-12T15:01:32Z</DateUtc></FrequencyChange></FrequencyChanges></Clock>\n	1 ver1_main_procedure-19-1	99.924	1.0.0.880	1	ej	2083690770	prawa	1	2.0.10.356	08-12-2015	2015-08-12 15:01:32	17:01:32	kobieta	2.0.10.92	3	4	1	1																							d	{SPACE}		no	BlockProc2		BlockList									60	Free	dl	color_orange.png		0	6	440877	160																								75	prime_right.png	0	440177	0	0	13	0	440177	0	440177	1	440177	20	0	-1	438678	440177	440176	0		TrialProc1	left	0		0	10	440487	-440487		0	0	TrialList2	target_both.png	0	dl	0	3	440227	260	d	644	440871															9	1	60	incomp			150
1 ver1_main_procedure	19	1	35	<?xml version="1.0"?>\n<Clock xmlns:dt="urn:schemas-microsoft-com:datatypes"><Description dt:dt="string">E-Prime Primary Realtime Clock</Description><StartTime><Timestamp dt:dt="int">0</Timestamp><DateUtc dt:dt="string">2015-08-12T15:01:32Z</DateUtc></StartTime><FrequencyChanges><FrequencyChange><Frequency dt:dt="r8">2441416</Frequency><Timestamp dt:dt="r8">40737931536</Timestamp><Current dt:dt="r8">0</Current><DateUtc dt:dt="string">2015-08-12T15:01:32Z</DateUtc></FrequencyChange></FrequencyChanges></Clock>\n	1 ver1_main_procedure-19-1	99.924	1.0.0.880	1	ej	2083690770	prawa	1	2.0.10.356	08-12-2015	2015-08-12 15:01:32	17:01:32	kobieta	2.0.10.92	3	4	1	1																							d	{SPACE}		no	BlockProc2		BlockList									61	Free	dl	color_green.png		0	14	443359	310																								25	prime_right.png	0	442849	0	0	13	0	442849	0	442849	1	442849	20	0	-1	441350	442849	442848	0		TrialProc1	right	0		0	10	443159	-443159		0	0	TrialList2	target_both.png	0	dl	0	3	442899	260	l	446	443345															10	1	61	comp			300
1 ver1_main_procedure	19	1	35	<?xml version="1.0"?>\n<Clock xmlns:dt="urn:schemas-microsoft-com:datatypes"><Description dt:dt="string">E-Prime Primary Realtime Clock</Description><StartTime><Timestamp dt:dt="int">0</Timestamp><DateUtc dt:dt="string">2015-08-12T15:01:32Z</DateUtc></StartTime><FrequencyChanges><FrequencyChange><Frequency dt:dt="r8">2441416</Frequency><Timestamp dt:dt="r8">40737931536</Timestamp><Current dt:dt="r8">0</Current><DateUtc dt:dt="string">2015-08-12T15:01:32Z</DateUtc></FrequencyChange></FrequencyChanges></Clock>\n	1 ver1_main_procedure-19-1	99.924	1.0.0.880	1	ej	2083690770	prawa	1	2.0.10.356	08-12-2015	2015-08-12 15:01:32	17:01:32	kobieta	2.0.10.92	3	4	1	1																							d	{SPACE}		no	BlockProc2		BlockList									62	Free	dl	color_orange.png		0	10	446041	310																								25	prime_right.png	0	445481	0	0	13	0	445481	0	445481	2	445481	20	0	-1	443982	445481	445479	0		TrialProc1	left	0		0	10	445791	-445791		0	0	TrialList2	target_both.png	0	dl	0	3	445531	260	d	500	446031															9	1	62	incomp			300
1 ver1_main_procedure	19	1	35	<?xml version="1.0"?>\n<Clock xmlns:dt="urn:schemas-microsoft-com:datatypes"><Description dt:dt="string">E-Prime Primary Realtime Clock</Description><StartTime><Timestamp dt:dt="int">0</Timestamp><DateUtc dt:dt="string">2015-08-12T15:01:32Z</DateUtc></StartTime><FrequencyChanges><FrequencyChange><Frequency dt:dt="r8">2441416</Frequency><Timestamp dt:dt="r8">40737931536</Timestamp><Current dt:dt="r8">0</Current><DateUtc dt:dt="string">2015-08-12T15:01:32Z</DateUtc></FrequencyChange></FrequencyChanges></Clock>\n	1 ver1_main_procedure-19-1	99.924	1.0.0.880	1	ej	2083690770	prawa	1	2.0.10.356	08-12-2015	2015-08-12 15:01:32	17:01:32	kobieta	2.0.10.92	3	4	1	1																							d	{SPACE}		no	BlockProc2		BlockList									63	Free	dl	color_blue.png		0	8	448653	160																								25	prime_left.png	0	448163	0	0	13	0	448163	0	448163	2	448163	20	0	-1	446664	448163	448161	0		TrialProc1	left	0		0	10	448473	-448473		0	0	TrialList2	target_both.png	0	dl	0	3	448213	260	l	432	448645															7	1	63	comp			150
1 ver1_main_procedure	19	1	35	<?xml version="1.0"?>\n<Clock xmlns:dt="urn:schemas-microsoft-com:datatypes"><Description dt:dt="string">E-Prime Primary Realtime Clock</Description><StartTime><Timestamp dt:dt="int">0</Timestamp><DateUtc dt:dt="string">2015-08-12T15:01:32Z</DateUtc></StartTime><FrequencyChanges><FrequencyChange><Frequency dt:dt="r8">2441416</Frequency><Timestamp dt:dt="r8">40737931536</Timestamp><Current dt:dt="r8">0</Current><DateUtc dt:dt="string">2015-08-12T15:01:32Z</DateUtc></FrequencyChange></FrequencyChanges></Clock>\n	1 ver1_main_procedure-19-1	99.924	1.0.0.880	1	ej	2083690770	prawa	1	2.0.10.356	08-12-2015	2015-08-12 15:01:32	17:01:32	kobieta	2.0.10.92	3	4	1	1																							d	{SPACE}		no	BlockProc2		BlockList									64	Free	dl	color_red.png		0	6	451195	160																								25	prime_left.png	0	450624	0	0	13	1	450625	1	450625	1	450624	20	0	-1	449126	450624	450623	0		TrialProc1	left	0		0	11	450935	-450935		0	0	TrialList2	target_both.png	0	dl	0	3	450674	261	d	515	451189															7	1	64	comp			150
1 ver1_main_procedure	19	1	35	<?xml version="1.0"?>\n<Clock xmlns:dt="urn:schemas-microsoft-com:datatypes"><Description dt:dt="string">E-Prime Primary Realtime Clock</Description><StartTime><Timestamp dt:dt="int">0</Timestamp><DateUtc dt:dt="string">2015-08-12T15:01:32Z</DateUtc></StartTime><FrequencyChanges><FrequencyChange><Frequency dt:dt="r8">2441416</Frequency><Timestamp dt:dt="r8">40737931536</Timestamp><Current dt:dt="r8">0</Current><DateUtc dt:dt="string">2015-08-12T15:01:32Z</DateUtc></FrequencyChange></FrequencyChanges></Clock>\n	1 ver1_main_procedure-19-1	99.924	1.0.0.880	1	ej	2083690770	prawa	1	2.0.10.356	08-12-2015	2015-08-12 15:01:32	17:01:32	kobieta	2.0.10.92	3	4	1	1																							d	{SPACE}		no	BlockProc2		BlockList									65	Free	dl	color_green.png		0	12	453867	460																								75	prime_right.png	0	453166	0	0	13	0	453166	0	453166	1	453166	20	0	-1	451667	453166	453165	0		TrialProc1	left	0		1	10	453476	-453476		0	0	TrialList2	target_both.png	0	dl	0	3	453216	260	l	639	453855															9	1	65	incomp			450
1 ver1_main_procedure	19	1	35	<?xml version="1.0"?>\n<Clock xmlns:dt="urn:schemas-microsoft-com:datatypes"><Description dt:dt="string">E-Prime Primary Realtime Clock</Description><StartTime><Timestamp dt:dt="int">0</Timestamp><DateUtc dt:dt="string">2015-08-12T15:01:32Z</DateUtc></StartTime><FrequencyChanges><FrequencyChange><Frequency dt:dt="r8">2441416</Frequency><Timestamp dt:dt="r8">40737931536</Timestamp><Current dt:dt="r8">0</Current><DateUtc dt:dt="string">2015-08-12T15:01:32Z</DateUtc></FrequencyChange></FrequencyChanges></Clock>\n	1 ver1_main_procedure-19-1	99.924	1.0.0.880	1	ej	2083690770	prawa	1	2.0.10.356	08-12-2015	2015-08-12 15:01:32	17:01:32	kobieta	2.0.10.92	3	4	1	1																							d	{SPACE}		no	BlockProc2		BlockList									66	Free	dl	color_yellow.png		0	11	456629	160																			2					25	prime_right.png	0	456138	0	0	13	1	456139	1	456139	1	456138	20	0	-1	454640	456138	456137	0	prime_right.png	TrialProc1	left	0		0	11	456449	-456449		0	0	TrialList2	target_both.png	0	dl	0	3	456188	261	d	430	456618															8	1	66	neut			150
1 ver1_main_procedure	19	1	35	<?xml version="1.0"?>\n<Clock xmlns:dt="urn:schemas-microsoft-com:datatypes"><Description dt:dt="string">E-Prime Primary Realtime Clock</Description><StartTime><Timestamp dt:dt="int">0</Timestamp><DateUtc dt:dt="string">2015-08-12T15:01:32Z</DateUtc></StartTime><FrequencyChanges><FrequencyChange><Frequency dt:dt="r8">2441416</Frequency><Timestamp dt:dt="r8">40737931536</Timestamp><Current dt:dt="r8">0</Current><DateUtc dt:dt="string">2015-08-12T15:01:32Z</DateUtc></FrequencyChange></FrequencyChanges></Clock>\n	1 ver1_main_procedure-19-1	99.924	1.0.0.880	1	ej	2083690770	prawa	1	2.0.10.356	08-12-2015	2015-08-12 15:01:32	17:01:32	kobieta	2.0.10.92	3	4	1	1																							d	{SPACE}		no	BlockProc2		BlockList									67	Free	dl	color_blue.png		0	5	459341	310																								25	prime_left.png	0	458600	0	0	13	0	458600	0	458600	1	458600	20	0	-1	457101	458600	458599	0		TrialProc1	right	0		1	10	458910	-458910		0	0	TrialList2	target_both.png	0	dl	0	3	458650	260	l	686	459336															12	1	67	incomp			300
1 ver1_main_procedure	19	1	35	<?xml version="1.0"?>\n<Clock xmlns:dt="urn:schemas-microsoft-com:datatypes"><Description dt:dt="string">E-Prime Primary Realtime Clock</Description><StartTime><Timestamp dt:dt="int">0</Timestamp><DateUtc dt:dt="string">2015-08-12T15:01:32Z</DateUtc></StartTime><FrequencyChanges><FrequencyChange><Frequency dt:dt="r8">2441416</Frequency><Timestamp dt:dt="r8">40737931536</Timestamp><Current dt:dt="r8">0</Current><DateUtc dt:dt="string">2015-08-12T15:01:32Z</DateUtc></FrequencyChange></FrequencyChanges></Clock>\n	1 ver1_main_procedure-19-1	99.924	1.0.0.880	1	ej	2083690770	prawa	1	2.0.10.356	08-12-2015	2015-08-12 15:01:32	17:01:32	kobieta	2.0.10.92	3	4	1	1																							d	{SPACE}		no	BlockProc2		BlockList									68	Free	dl	color_yellow.png		0	9	462163	460																			1					75	prime_left.png	0	461462	0	0	13	0	461463	0	461462	1	461462	20	0	-1	459964	461462	461461	0	prime_left.png	TrialProc1	left	0		0	11	461773	-461773		0	0	TrialList2	target_both.png	0	dl	0	3	461512	261	d	642	462154															8	1	68	neut			450
1 ver1_main_procedure	19	1	35	<?xml version="1.0"?>\n<Clock xmlns:dt="urn:schemas-microsoft-com:datatypes"><Description dt:dt="string">E-Prime Primary Realtime Clock</Description><StartTime><Timestamp dt:dt="int">0</Timestamp><DateUtc dt:dt="string">2015-08-12T15:01:32Z</DateUtc></StartTime><FrequencyChanges><FrequencyChange><Frequency dt:dt="r8">2441416</Frequency><Timestamp dt:dt="r8">40737931536</Timestamp><Current dt:dt="r8">0</Current><DateUtc dt:dt="string">2015-08-12T15:01:32Z</DateUtc></FrequencyChange></FrequencyChanges></Clock>\n	1 ver1_main_procedure-19-1	99.924	1.0.0.880	1	ej	2083690770	prawa	1	2.0.10.356	08-12-2015	2015-08-12 15:01:32	17:01:32	kobieta	2.0.10.92	3	4	1	1																							d	{SPACE}		no	BlockProc2		BlockList									69	Free	dl	color_blue.png		0	7	465245	160																								75	prime_left.png	0	464435	0	0	13	0	464435	0	464435	2	464435	20	0	-1	462936	464435	464433	0		TrialProc1	right	0		0	10	464745	-464745		0	0	TrialList2	target_both.png	0	dl	0	3	464485	260	l	753	465238															12	1	69	incomp			150
1 ver1_main_procedure	19	1	35	<?xml version="1.0"?>\n<Clock xmlns:dt="urn:schemas-microsoft-com:datatypes"><Description dt:dt="string">E-Prime Primary Realtime Clock</Description><StartTime><Timestamp dt:dt="int">0</Timestamp><DateUtc dt:dt="string">2015-08-12T15:01:32Z</DateUtc></StartTime><FrequencyChanges><FrequencyChange><Frequency dt:dt="r8">2441416</Frequency><Timestamp dt:dt="r8">40737931536</Timestamp><Current dt:dt="r8">0</Current><DateUtc dt:dt="string">2015-08-12T15:01:32Z</DateUtc></FrequencyChange></FrequencyChanges></Clock>\n	1 ver1_main_procedure-19-1	99.924	1.0.0.880	1	ej	2083690770	prawa	1	2.0.10.356	08-12-2015	2015-08-12 15:01:32	17:01:32	kobieta	2.0.10.92	3	4	1	1																							d	{SPACE}		no	BlockProc2		BlockList									70	Free	dl	color_yellow.png		0	7	467957	310																			2					25	prime_right.png	0	467217	0	0	13	0	467217	0	467217	1	467217	20	0	-1	465718	467217	467216	0	prime_right.png	TrialProc1	left	0		0	10	467527	-467527		0	0	TrialList2	target_both.png	0	dl	0	3	467267	260	d	683	467950															8	1	70	neut			300
1 ver1_main_procedure	19	1	35	<?xml version="1.0"?>\n<Clock xmlns:dt="urn:schemas-microsoft-com:datatypes"><Description dt:dt="string">E-Prime Primary Realtime Clock</Description><StartTime><Timestamp dt:dt="int">0</Timestamp><DateUtc dt:dt="string">2015-08-12T15:01:32Z</DateUtc></StartTime><FrequencyChanges><FrequencyChange><Frequency dt:dt="r8">2441416</Frequency><Timestamp dt:dt="r8">40737931536</Timestamp><Current dt:dt="r8">0</Current><DateUtc dt:dt="string">2015-08-12T15:01:32Z</DateUtc></FrequencyChange></FrequencyChanges></Clock>\n	1 ver1_main_procedure-19-1	99.924	1.0.0.880	1	ej	2083690770	prawa	1	2.0.10.356	08-12-2015	2015-08-12 15:01:32	17:01:32	kobieta	2.0.10.92	3	4	1	1																							d	{SPACE}		no	BlockProc2		BlockList									71	Free	dl	color_green.png		0	11	470749	461																								75	prime_right.png	0	470079	0	0	13	0	470079	0	470079	1	470079	20	0	-1	468580	470079	470078	0		TrialProc1	left	0		0	10	470389	-470389		0	0	TrialList2	target_both.png	0	dl	0	3	470129	260	l	608	470737															9	1	71	incomp			450
1 ver1_main_procedure	19	1	35	<?xml version="1.0"?>\n<Clock xmlns:dt="urn:schemas-microsoft-com:datatypes"><Description dt:dt="string">E-Prime Primary Realtime Clock</Description><StartTime><Timestamp dt:dt="int">0</Timestamp><DateUtc dt:dt="string">2015-08-12T15:01:32Z</DateUtc></StartTime><FrequencyChanges><FrequencyChange><Frequency dt:dt="r8">2441416</Frequency><Timestamp dt:dt="r8">40737931536</Timestamp><Current dt:dt="r8">0</Current><DateUtc dt:dt="string">2015-08-12T15:01:32Z</DateUtc></FrequencyChange></FrequencyChanges></Clock>\n	1 ver1_main_procedure-19-1	99.924	1.0.0.880	1	ej	2083690770	prawa	1	2.0.10.356	08-12-2015	2015-08-12 15:01:32	17:01:32	kobieta	2.0.10.92	3	4	1	1																							d	{SPACE}		no	BlockProc2		BlockList									72	Free	dl	color_red.png		0	12	473631	161																								25	prime_left.png	0	473021	0	0	13	0	473021	0	473021	1	473021	20	0	-1	471522	473021	473020	0		TrialProc1	right	0		0	10	473331	-473331		0	0	TrialList2	target_both.png	0	dl	0	3	473071	260	d	547	473618															12	1	72	incomp			150
1 ver1_main_procedure	19	1	35	<?xml version="1.0"?>\n<Clock xmlns:dt="urn:schemas-microsoft-com:datatypes"><Description dt:dt="string">E-Prime Primary Realtime Clock</Description><StartTime><Timestamp dt:dt="int">0</Timestamp><DateUtc dt:dt="string">2015-08-12T15:01:32Z</DateUtc></StartTime><FrequencyChanges><FrequencyChange><Frequency dt:dt="r8">2441416</Frequency><Timestamp dt:dt="r8">40737931536</Timestamp><Current dt:dt="r8">0</Current><DateUtc dt:dt="string">2015-08-12T15:01:32Z</DateUtc></FrequencyChange></FrequencyChanges></Clock>\n	1 ver1_main_procedure-19-1	99.924	1.0.0.880	1	ej	2083690770	prawa	1	2.0.10.356	08-12-2015	2015-08-12 15:01:32	17:01:32	kobieta	2.0.10.92	3	4	1	1																							d	{SPACE}		no	BlockProc2		BlockList									73									4	5	2	1	6	3	color_yellow.png	color_green.png	color_blue.png	color_purple.png	color_red.png	color_orange.png	color_purple.png	color_blue.png	color_orange.png	color_yellow.png	color_green.png	color_red.png		1	1	1	32811																						DragProc											Ocena																															
1 ver1_main_procedure	19	1	35	<?xml version="1.0"?>\n<Clock xmlns:dt="urn:schemas-microsoft-com:datatypes"><Description dt:dt="string">E-Prime Primary Realtime Clock</Description><StartTime><Timestamp dt:dt="int">0</Timestamp><DateUtc dt:dt="string">2015-08-12T15:01:32Z</DateUtc></StartTime><FrequencyChanges><FrequencyChange><Frequency dt:dt="r8">2441416</Frequency><Timestamp dt:dt="r8">40737931536</Timestamp><Current dt:dt="r8">0</Current><DateUtc dt:dt="string">2015-08-12T15:01:32Z</DateUtc></FrequencyChange></FrequencyChanges></Clock>\n	1 ver1_main_procedure-19-1	99.924	1.0.0.880	1	ej	2083690770	prawa	1	2.0.10.356	08-12-2015	2015-08-12 15:01:32	17:01:32	kobieta	2.0.10.92	3	4	1	1																							d	{SPACE}		no	BlockProc2		BlockList									74															color_yellow.png	color_green.png	color_blue.png	color_purple.png	color_red.png	color_orange.png								2	1	2																							EnterProc											Ocena												15	25	33	65	88	99														
1 ver1_main_procedure	19	1	35	<?xml version="1.0"?>\n<Clock xmlns:dt="urn:schemas-microsoft-com:datatypes"><Description dt:dt="string">E-Prime Primary Realtime Clock</Description><StartTime><Timestamp dt:dt="int">0</Timestamp><DateUtc dt:dt="string">2015-08-12T15:01:32Z</DateUtc></StartTime><FrequencyChanges><FrequencyChange><Frequency dt:dt="r8">2441416</Frequency><Timestamp dt:dt="r8">40737931536</Timestamp><Current dt:dt="r8">0</Current><DateUtc dt:dt="string">2015-08-12T15:01:32Z</DateUtc></FrequencyChange></FrequencyChanges></Clock>\n	1 ver1_main_procedure-19-1	99.924	1.0.0.880	1	ej	2083690770	prawa	1	2.0.10.356	08-12-2015	2015-08-12 15:01:32	17:01:32	kobieta	2.0.10.92	4	1	1	2																							l	{SPACE}		no	BlockProc1		BlockList									1	Free	dl			0	1	703811	461																								25	prime_left.png	0	702000	0	0	13	0	702000	0	702000	1	702000	20	0	-1	700501	702000	701999	0		TrialProc1	left	0		0	10	702310	1501		0	0	TrialList1	target_both.png	0	dl	0	3	702050	260		0	0												7	1	1				comp			450
1 ver1_main_procedure	19	1	35	<?xml version="1.0"?>\n<Clock xmlns:dt="urn:schemas-microsoft-com:datatypes"><Description dt:dt="string">E-Prime Primary Realtime Clock</Description><StartTime><Timestamp dt:dt="int">0</Timestamp><DateUtc dt:dt="string">2015-08-12T15:01:32Z</DateUtc></StartTime><FrequencyChanges><FrequencyChange><Frequency dt:dt="r8">2441416</Frequency><Timestamp dt:dt="r8">40737931536</Timestamp><Current dt:dt="r8">0</Current><DateUtc dt:dt="string">2015-08-12T15:01:32Z</DateUtc></FrequencyChange></FrequencyChanges></Clock>\n	1 ver1_main_procedure-19-1	99.924	1.0.0.880	1	ej	2083690770	prawa	1	2.0.10.356	08-12-2015	2015-08-12 15:01:32	17:01:32	kobieta	2.0.10.92	4	1	1	2																							l	{SPACE}		no	BlockProc1		BlockList									2	Cued	d	color_red.png		0	6	706734	460																								25	prime_right.png	0	706083	0	0	13	0	706083	0	706083	1	706083	20	0	-1	704584	706083	706082	0		TrialProc1	left	0		0	10	706393	-706393		0	0	TrialList1	target_left.png	1	d	0	3	706133	260	d	595	706728												3	1	2				incomp			450
1 ver1_main_procedure	19	1	35	<?xml version="1.0"?>\n<Clock xmlns:dt="urn:schemas-microsoft-com:datatypes"><Description dt:dt="string">E-Prime Primary Realtime Clock</Description><StartTime><Timestamp dt:dt="int">0</Timestamp><DateUtc dt:dt="string">2015-08-12T15:01:32Z</DateUtc></StartTime><FrequencyChanges><FrequencyChange><Frequency dt:dt="r8">2441416</Frequency><Timestamp dt:dt="r8">40737931536</Timestamp><Current dt:dt="r8">0</Current><DateUtc dt:dt="string">2015-08-12T15:01:32Z</DateUtc></FrequencyChange></FrequencyChanges></Clock>\n	1 ver1_main_procedure-19-1	99.924	1.0.0.880	1	ej	2083690770	prawa	1	2.0.10.356	08-12-2015	2015-08-12 15:01:32	17:01:32	kobieta	2.0.10.92	4	1	1	2																							l	{SPACE}		no	BlockProc1		BlockList									3	Free	dl	color_blue.png		0	9	709666	460																								25	prime_right.png	0	709005	0	0	13	0	709005	0	709005	1	709005	20	0	-1	707506	709005	709004	0		TrialProc1	right	0		1	10	709315	-709315		0	0	TrialList1	target_both.png	0	dl	0	3	709055	260	l	602	709657												10	1	3				comp			450
1 ver1_main_procedure	19	1	35	<?xml version="1.0"?>\n<Clock xmlns:dt="urn:schemas-microsoft-com:datatypes"><Description dt:dt="string">E-Prime Primary Realtime Clock</Description><StartTime><Timestamp dt:dt="int">0</Timestamp><DateUtc dt:dt="string">2015-08-12T15:01:32Z</DateUtc></StartTime><FrequencyChanges><FrequencyChange><Frequency dt:dt="r8">2441416</Frequency><Timestamp dt:dt="r8">40737931536</Timestamp><Current dt:dt="r8">0</Current><DateUtc dt:dt="string">2015-08-12T15:01:32Z</DateUtc></FrequencyChange></FrequencyChanges></Clock>\n	1 ver1_main_procedure-19-1	99.924	1.0.0.880	1	ej	2083690770	prawa	1	2.0.10.356	08-12-2015	2015-08-12 15:01:32	17:01:32	kobieta	2.0.10.92	4	1	1	2																							l	{SPACE}		no	BlockProc1		BlockList									4	Cued	d	color_yellow.png		0	7	712608	160																								75	prime_left.png	1	711938	0	0	13	1	711938	1	711938	1	711937	20	0	-1	710439	711937	711936	0		TrialProc1	left	0		0	11	712248	-712248		0	0	TrialList1	target_left.png	1	d	0	3	711987	261	d	614	712601												1	1	4				comp			150
1 ver1_main_procedure	19	1	35	<?xml version="1.0"?>\n<Clock xmlns:dt="urn:schemas-microsoft-com:datatypes"><Description dt:dt="string">E-Prime Primary Realtime Clock</Description><StartTime><Timestamp dt:dt="int">0</Timestamp><DateUtc dt:dt="string">2015-08-12T15:01:32Z</DateUtc></StartTime><FrequencyChanges><FrequencyChange><Frequency dt:dt="r8">2441416</Frequency><Timestamp dt:dt="r8">40737931536</Timestamp><Current dt:dt="r8">0</Current><DateUtc dt:dt="string">2015-08-12T15:01:32Z</DateUtc></FrequencyChange></FrequencyChanges></Clock>\n	1 ver1_main_procedure-19-1	99.924	1.0.0.880	1	ej	2083690770	prawa	1	2.0.10.356	08-12-2015	2015-08-12 15:01:32	17:01:32	kobieta	2.0.10.92	4	1	1	2																							l	{SPACE}		no	BlockProc1		BlockList									5	Free	dl	color_purple.png		0	5	715640	310																								25	prime_left.png	0	714579	0	0	13	1	714580	1	714580	1	714579	20	0	-1	713081	714579	714578	0		TrialProc1	left	0		0	11	714890	-714890		0	0	TrialList1	target_both.png	0	dl	0	3	714629	261	l	1006	715635												7	1	5				comp			300
1 ver1_main_procedure	19	1	35	<?xml version="1.0"?>\n<Clock xmlns:dt="urn:schemas-microsoft-com:datatypes"><Description dt:dt="string">E-Prime Primary Realtime Clock</Description><StartTime><Timestamp dt:dt="int">0</Timestamp><DateUtc dt:dt="string">2015-08-12T15:01:32Z</DateUtc></StartTime><FrequencyChanges><FrequencyChange><Frequency dt:dt="r8">2441416</Frequency><Timestamp dt:dt="r8">40737931536</Timestamp><Current dt:dt="r8">0</Current><DateUtc dt:dt="string">2015-08-12T15:01:32Z</DateUtc></FrequencyChange></FrequencyChanges></Clock>\n	1 ver1_main_procedure-19-1	99.924	1.0.0.880	1	ej	2083690770	prawa	1	2.0.10.356	08-12-2015	2015-08-12 15:01:32	17:01:32	kobieta	2.0.10.92	4	1	1	2																							l	{SPACE}		no	BlockProc1		BlockList									6	Cued	d	color_red.png		0	11	718332	310																								75	prime_right.png	0	717762	0	0	13	0	717762	0	717762	1	717762	20	0	-1	716263	717762	717761	0		TrialProc1	left	0		0	10	718072	-718072		0	0	TrialList1	target_left.png	1	d	0	3	717812	260	d	509	718321												3	1	6				incomp			300
1 ver1_main_procedure	19	1	35	<?xml version="1.0"?>\n<Clock xmlns:dt="urn:schemas-microsoft-com:datatypes"><Description dt:dt="string">E-Prime Primary Realtime Clock</Description><StartTime><Timestamp dt:dt="int">0</Timestamp><DateUtc dt:dt="string">2015-08-12T15:01:32Z</DateUtc></StartTime><FrequencyChanges><FrequencyChange><Frequency dt:dt="r8">2441416</Frequency><Timestamp dt:dt="r8">40737931536</Timestamp><Current dt:dt="r8">0</Current><DateUtc dt:dt="string">2015-08-12T15:01:32Z</DateUtc></FrequencyChange></FrequencyChanges></Clock>\n	1 ver1_main_procedure-19-1	99.924	1.0.0.880	1	ej	2083690770	prawa	1	2.0.10.356	08-12-2015	2015-08-12 15:01:32	17:01:32	kobieta	2.0.10.92	4	1	1	2																							l	{SPACE}		no	BlockProc1		BlockList									7	Cued	l	color_purple.png		0	5	720904	460																								75	prime_left.png	0	720454	0	0	13	0	720454	0	720454	1	720454	20	0	-1	718955	720454	720453	0		TrialProc1	right	0		0	10	720764	-720764		0	0	TrialList1	target_right.png	1	l	0	3	720504	260	l	394	720898												6	1	7				incomp			450
1 ver1_main_procedure	19	1	35	<?xml version="1.0"?>\n<Clock xmlns:dt="urn:schemas-microsoft-com:datatypes"><Description dt:dt="string">E-Prime Primary Realtime Clock</Description><StartTime><Timestamp dt:dt="int">0</Timestamp><DateUtc dt:dt="string">2015-08-12T15:01:32Z</DateUtc></StartTime><FrequencyChanges><FrequencyChange><Frequency dt:dt="r8">2441416</Frequency><Timestamp dt:dt="r8">40737931536</Timestamp><Current dt:dt="r8">0</Current><DateUtc dt:dt="string">2015-08-12T15:01:32Z</DateUtc></FrequencyChange></FrequencyChanges></Clock>\n	1 ver1_main_procedure-19-1	99.924	1.0.0.880	1	ej	2083690770	prawa	1	2.0.10.356	08-12-2015	2015-08-12 15:01:32	17:01:32	kobieta	2.0.10.92	4	1	1	2																							l	{SPACE}		no	BlockProc1		BlockList									8	Cued	d	color_red.png		0	13	723776	461																								25	prime_right.png	0	723176	0	0	13	0	723176	0	723176	1	723176	20	0	-1	721677	723176	723175	0		TrialProc1	left	0		0	10	723486	-723486		0	0	TrialList1	target_left.png	1	d	0	3	723226	260	d	536	723762												3	1	8				incomp			450
1 ver1_main_procedure	19	1	35	<?xml version="1.0"?>\n<Clock xmlns:dt="urn:schemas-microsoft-com:datatypes"><Description dt:dt="string">E-Prime Primary Realtime Clock</Description><StartTime><Timestamp dt:dt="int">0</Timestamp><DateUtc dt:dt="string">2015-08-12T15:01:32Z</DateUtc></StartTime><FrequencyChanges><FrequencyChange><Frequency dt:dt="r8">2441416</Frequency><Timestamp dt:dt="r8">40737931536</Timestamp><Current dt:dt="r8">0</Current><DateUtc dt:dt="string">2015-08-12T15:01:32Z</DateUtc></FrequencyChange></FrequencyChanges></Clock>\n	1 ver1_main_procedure-19-1	99.924	1.0.0.880	1	ej	2083690770	prawa	1	2.0.10.356	08-12-2015	2015-08-12 15:01:32	17:01:32	kobieta	2.0.10.92	4	1	1	2																							l	{SPACE}		no	BlockProc1		BlockList									9	Cued	l	color_blue.png		0	9	726528	310																								75	prime_right.png	0	726048	0	0	13	0	726048	0	726048	1	726048	20	0	-1	724549	726048	726047	0		TrialProc1	right	0		0	10	726358	-726358		0	0	TrialList1	target_right.png	1	l	0	3	726098	260	l	421	726519												4	1	9				comp			300
