ExperimentName	Subject	Session	Age	Clock.Information	DataFile.Basename	Display.RefreshRate	ExperimentVersion	Group	Name	RandomSeed	Recznosc	ResearcherID	RuntimeVersion	SessionDate	SessionStartDateTimeUtc	SessionTime	Sex	StudioVersion	Block	BlockList	BlockList.Cycle	BlockList.Sample	BlockNumber	GoodBye.RESP	GoodBye2.RESP	GoodByeList	GoodByeList.Cycle	GoodByeList.Sample	InstrList	InstrList.Cycle	InstrList.Sample	Instructions3.RESP	Instructions4.RESP	Instructions5.RESP	kobieta_S1	kobieta_S2	kobieta_S3	kobieta_S4	kobieta_S5	mezczyzna_S1	mezczyzna_S2	mezczyzna_S3	mezczyzna_S4	mezczyzna_S5	NextBlock.RESP	NextBlock0.RESP	planowanie	PracticeMode	Procedure[Block]	proszenie	Running[Block]	TrainingList	TrainingList.Cycle	TrainingList.Sample	WordList	WordList1	wykonanie	zauwazenie	zrozumienie	Trial	ChoiceType	CorrectRespon	Effect	ErrorText	Fixation2.DurationError	Fixation2.OnsetDelay	Fixation2.OnsetTime	Fixation2.OnsetToOnsetTime	GoalRespInd1	GoalRespInd2	GoalRespInd3	GoalRespInd4	GoalRespInd5	GoalRespInd6	GoalRespName1	GoalRespName2	GoalRespName3	GoalRespName4	GoalRespName5	GoalRespName6	kol1	kol2	kol3	kol4	kol5	kol6	NeutralPrimeList1	Ocena	Ocena.Cycle	Ocena.Sample	OverallRT	Posit	Prime	Prime.ActionDelay	Prime.ActionTime	Prime.CustomOffsetTime	Prime.CustomOnsetTime	Prime.Duration	Prime.DurationError	Prime.FinishTime	Prime.OffsetDelay	Prime.OffsetTime	Prime.OnsetDelay	Prime.OnsetTime	Prime.OnsetToOnsetTime	Prime.PendingInputMasks	Prime.PreRelease	Prime.StartTime	Prime.TargetOffsetTime	Prime.TargetOnsetTime	Prime.TimingMode	PrimeChoice	Procedure[Trial]	Resp	RespWin.ACC	RespWin.CRESP	RespWin.DurationError	RespWin.OnsetDelay	RespWin.OnsetTime	RespWin.OnsetToOnsetTime	RespWin.RESP	RespWin.RT	RespWin.RTTime	Running[Trial]	Target	TargetSlide.ACC	TargetSlide.CRESP	TargetSlide.DurationError	TargetSlide.OnsetDelay	TargetSlide.OnsetTime	TargetSlide.OnsetToOnsetTime	TargetSlide.RESP	TargetSlide.RT	TargetSlide.RTTime	TargetTraining	TBox1	TBox2	TBox3	TBox4	TBox5	TBox6	TrainingList1	TrainingList1.Cycle	TrainingList1.Sample	TrCorrectResp	TrialList1	TrialList1.Cycle	TrialList1.Sample	TrialList2	TrialList2.Cycle	TrialList2.Sample	TrialType	TrPosit	TrWaitTime	WaitTime
1 ver1_main_procedure	22	1	19	<?xml version="1.0"?>\n<Clock xmlns:dt="urn:schemas-microsoft-com:datatypes"><Description dt:dt="string">E-Prime Primary Realtime Clock</Description><StartTime><Timestamp dt:dt="int">0</Timestamp><DateUtc dt:dt="string">2015-08-13T12:53:52Z</DateUtc></StartTime><FrequencyChanges><FrequencyChange><Frequency dt:dt="r8">2441396</Frequency><Timestamp dt:dt="r8">19122037674</Timestamp><Current dt:dt="r8">0</Current><DateUtc dt:dt="string">2015-08-13T12:53:52Z</DateUtc></FrequencyChange></FrequencyChanges></Clock>\n	1 ver1_main_procedure-22-1	99.925	1.0.0.880	2	cb	1942659924	prawa	1	2.0.10.356	08-13-2015	2015-08-13 12:53:52	14:53:52	mezczyzna	2.0.10.92	1										1	1	1	{SPACE}	{SPACE}	d	poproszona	planowała	zrozumiałaś	wykonała		poproszony	planował	zrozumiałeś	wykonał				planował		InstrProc	poproszony	InstrList				1		wykonał		zrozumiałeś																																																																																																
1 ver1_main_procedure	22	1	19	<?xml version="1.0"?>\n<Clock xmlns:dt="urn:schemas-microsoft-com:datatypes"><Description dt:dt="string">E-Prime Primary Realtime Clock</Description><StartTime><Timestamp dt:dt="int">0</Timestamp><DateUtc dt:dt="string">2015-08-13T12:53:52Z</DateUtc></StartTime><FrequencyChanges><FrequencyChange><Frequency dt:dt="r8">2441396</Frequency><Timestamp dt:dt="r8">19122037674</Timestamp><Current dt:dt="r8">0</Current><DateUtc dt:dt="string">2015-08-13T12:53:52Z</DateUtc></FrequencyChange></FrequencyChanges></Clock>\n	1 ver1_main_procedure-22-1	99.925	1.0.0.880	2	cb	1942659924	prawa	1	2.0.10.356	08-13-2015	2015-08-13 12:53:52	14:53:52	mezczyzna	2.0.10.92	2																														TrainingProc1		TrainingList	1	1	1						1																																																					TrainProc											TrainingList1											target_left.png							1	1	1	d								25	300	
1 ver1_main_procedure	22	1	19	<?xml version="1.0"?>\n<Clock xmlns:dt="urn:schemas-microsoft-com:datatypes"><Description dt:dt="string">E-Prime Primary Realtime Clock</Description><StartTime><Timestamp dt:dt="int">0</Timestamp><DateUtc dt:dt="string">2015-08-13T12:53:52Z</DateUtc></StartTime><FrequencyChanges><FrequencyChange><Frequency dt:dt="r8">2441396</Frequency><Timestamp dt:dt="r8">19122037674</Timestamp><Current dt:dt="r8">0</Current><DateUtc dt:dt="string">2015-08-13T12:53:52Z</DateUtc></FrequencyChange></FrequencyChanges></Clock>\n	1 ver1_main_procedure-22-1	99.925	1.0.0.880	2	cb	1942659924	prawa	1	2.0.10.356	08-13-2015	2015-08-13 12:53:52	14:53:52	mezczyzna	2.0.10.92	2																														TrainingProc1		TrainingList	1	1	1						2																																																					TrainProc											TrainingList1											target_right.png							2	1	2	l								25	150	
1 ver1_main_procedure	22	1	19	<?xml version="1.0"?>\n<Clock xmlns:dt="urn:schemas-microsoft-com:datatypes"><Description dt:dt="string">E-Prime Primary Realtime Clock</Description><StartTime><Timestamp dt:dt="int">0</Timestamp><DateUtc dt:dt="string">2015-08-13T12:53:52Z</DateUtc></StartTime><FrequencyChanges><FrequencyChange><Frequency dt:dt="r8">2441396</Frequency><Timestamp dt:dt="r8">19122037674</Timestamp><Current dt:dt="r8">0</Current><DateUtc dt:dt="string">2015-08-13T12:53:52Z</DateUtc></FrequencyChange></FrequencyChanges></Clock>\n	1 ver1_main_procedure-22-1	99.925	1.0.0.880	2	cb	1942659924	prawa	1	2.0.10.356	08-13-2015	2015-08-13 12:53:52	14:53:52	mezczyzna	2.0.10.92	2																														TrainingProc1		TrainingList	1	1	1						3																																																					TrainProc											TrainingList1											target_both.png							3	1	3	dl								75	450	
1 ver1_main_procedure	22	1	19	<?xml version="1.0"?>\n<Clock xmlns:dt="urn:schemas-microsoft-com:datatypes"><Description dt:dt="string">E-Prime Primary Realtime Clock</Description><StartTime><Timestamp dt:dt="int">0</Timestamp><DateUtc dt:dt="string">2015-08-13T12:53:52Z</DateUtc></StartTime><FrequencyChanges><FrequencyChange><Frequency dt:dt="r8">2441396</Frequency><Timestamp dt:dt="r8">19122037674</Timestamp><Current dt:dt="r8">0</Current><DateUtc dt:dt="string">2015-08-13T12:53:52Z</DateUtc></FrequencyChange></FrequencyChanges></Clock>\n	1 ver1_main_procedure-22-1	99.925	1.0.0.880	2	cb	1942659924	prawa	1	2.0.10.356	08-13-2015	2015-08-13 12:53:52	14:53:52	mezczyzna	2.0.10.92	2																														TrainingProc1		TrainingList	1	1	1						4																																																					TrainProc											TrainingList1											target_both.png							3	1	4	dl								75	300	
1 ver1_main_procedure	22	1	19	<?xml version="1.0"?>\n<Clock xmlns:dt="urn:schemas-microsoft-com:datatypes"><Description dt:dt="string">E-Prime Primary Realtime Clock</Description><StartTime><Timestamp dt:dt="int">0</Timestamp><DateUtc dt:dt="string">2015-08-13T12:53:52Z</DateUtc></StartTime><FrequencyChanges><FrequencyChange><Frequency dt:dt="r8">2441396</Frequency><Timestamp dt:dt="r8">19122037674</Timestamp><Current dt:dt="r8">0</Current><DateUtc dt:dt="string">2015-08-13T12:53:52Z</DateUtc></FrequencyChange></FrequencyChanges></Clock>\n	1 ver1_main_procedure-22-1	99.925	1.0.0.880	2	cb	1942659924	prawa	1	2.0.10.356	08-13-2015	2015-08-13 12:53:52	14:53:52	mezczyzna	2.0.10.92	2																														TrainingProc1		TrainingList	1	1	1						5																																																					TrainProc											TrainingList1											target_both.png							3	1	5	dl								75	300	
1 ver1_main_procedure	22	1	19	<?xml version="1.0"?>\n<Clock xmlns:dt="urn:schemas-microsoft-com:datatypes"><Description dt:dt="string">E-Prime Primary Realtime Clock</Description><StartTime><Timestamp dt:dt="int">0</Timestamp><DateUtc dt:dt="string">2015-08-13T12:53:52Z</DateUtc></StartTime><FrequencyChanges><FrequencyChange><Frequency dt:dt="r8">2441396</Frequency><Timestamp dt:dt="r8">19122037674</Timestamp><Current dt:dt="r8">0</Current><DateUtc dt:dt="string">2015-08-13T12:53:52Z</DateUtc></FrequencyChange></FrequencyChanges></Clock>\n	1 ver1_main_procedure-22-1	99.925	1.0.0.880	2	cb	1942659924	prawa	1	2.0.10.356	08-13-2015	2015-08-13 12:53:52	14:53:52	mezczyzna	2.0.10.92	2																														TrainingProc1		TrainingList	1	1	1						6																																																					TrainProc											TrainingList1											target_right.png							2	1	6	l								25	450	
1 ver1_main_procedure	22	1	19	<?xml version="1.0"?>\n<Clock xmlns:dt="urn:schemas-microsoft-com:datatypes"><Description dt:dt="string">E-Prime Primary Realtime Clock</Description><StartTime><Timestamp dt:dt="int">0</Timestamp><DateUtc dt:dt="string">2015-08-13T12:53:52Z</DateUtc></StartTime><FrequencyChanges><FrequencyChange><Frequency dt:dt="r8">2441396</Frequency><Timestamp dt:dt="r8">19122037674</Timestamp><Current dt:dt="r8">0</Current><DateUtc dt:dt="string">2015-08-13T12:53:52Z</DateUtc></FrequencyChange></FrequencyChanges></Clock>\n	1 ver1_main_procedure-22-1	99.925	1.0.0.880	2	cb	1942659924	prawa	1	2.0.10.356	08-13-2015	2015-08-13 12:53:52	14:53:52	mezczyzna	2.0.10.92	2																														TrainingProc1		TrainingList	1	1	1						7																																																					TrainProc											TrainingList1											target_right.png							2	1	7	l								25	300	
1 ver1_main_procedure	22	1	19	<?xml version="1.0"?>\n<Clock xmlns:dt="urn:schemas-microsoft-com:datatypes"><Description dt:dt="string">E-Prime Primary Realtime Clock</Description><StartTime><Timestamp dt:dt="int">0</Timestamp><DateUtc dt:dt="string">2015-08-13T12:53:52Z</DateUtc></StartTime><FrequencyChanges><FrequencyChange><Frequency dt:dt="r8">2441396</Frequency><Timestamp dt:dt="r8">19122037674</Timestamp><Current dt:dt="r8">0</Current><DateUtc dt:dt="string">2015-08-13T12:53:52Z</DateUtc></FrequencyChange></FrequencyChanges></Clock>\n	1 ver1_main_procedure-22-1	99.925	1.0.0.880	2	cb	1942659924	prawa	1	2.0.10.356	08-13-2015	2015-08-13 12:53:52	14:53:52	mezczyzna	2.0.10.92	2																														TrainingProc1		TrainingList	1	1	1						8																																																					TrainProc											TrainingList1											target_left.png							1	1	8	d								25	150	
1 ver1_main_procedure	22	1	19	<?xml version="1.0"?>\n<Clock xmlns:dt="urn:schemas-microsoft-com:datatypes"><Description dt:dt="string">E-Prime Primary Realtime Clock</Description><StartTime><Timestamp dt:dt="int">0</Timestamp><DateUtc dt:dt="string">2015-08-13T12:53:52Z</DateUtc></StartTime><FrequencyChanges><FrequencyChange><Frequency dt:dt="r8">2441396</Frequency><Timestamp dt:dt="r8">19122037674</Timestamp><Current dt:dt="r8">0</Current><DateUtc dt:dt="string">2015-08-13T12:53:52Z</DateUtc></FrequencyChange></FrequencyChanges></Clock>\n	1 ver1_main_procedure-22-1	99.925	1.0.0.880	2	cb	1942659924	prawa	1	2.0.10.356	08-13-2015	2015-08-13 12:53:52	14:53:52	mezczyzna	2.0.10.92	2																														TrainingProc1		TrainingList	1	1	1						9																																																					TrainProc											TrainingList1											target_left.png							1	1	9	d								25	150	
1 ver1_main_procedure	22	1	19	<?xml version="1.0"?>\n<Clock xmlns:dt="urn:schemas-microsoft-com:datatypes"><Description dt:dt="string">E-Prime Primary Realtime Clock</Description><StartTime><Timestamp dt:dt="int">0</Timestamp><DateUtc dt:dt="string">2015-08-13T12:53:52Z</DateUtc></StartTime><FrequencyChanges><FrequencyChange><Frequency dt:dt="r8">2441396</Frequency><Timestamp dt:dt="r8">19122037674</Timestamp><Current dt:dt="r8">0</Current><DateUtc dt:dt="string">2015-08-13T12:53:52Z</DateUtc></FrequencyChange></FrequencyChanges></Clock>\n	1 ver1_main_procedure-22-1	99.925	1.0.0.880	2	cb	1942659924	prawa	1	2.0.10.356	08-13-2015	2015-08-13 12:53:52	14:53:52	mezczyzna	2.0.10.92	3	6	1	1																							d	{SPACE}		no	BlockProc2		BlockList									1	Cued	d	color_blue.png		0	12	204903	471																								75	prime_left.png	0	204523	0	0	13	0	204523	0	204523	1	204523	20	0	-1	203024	204523	204522	0		TrialProc1	left	0		1	20	204843	-204843		0	0	TrialList2	target_left.png	1	d	0	3	204573	270	d	318	204891															1	1	1	comp			450
1 ver1_main_procedure	22	1	19	<?xml version="1.0"?>\n<Clock xmlns:dt="urn:schemas-microsoft-com:datatypes"><Description dt:dt="string">E-Prime Primary Realtime Clock</Description><StartTime><Timestamp dt:dt="int">0</Timestamp><DateUtc dt:dt="string">2015-08-13T12:53:52Z</DateUtc></StartTime><FrequencyChanges><FrequencyChange><Frequency dt:dt="r8">2441396</Frequency><Timestamp dt:dt="r8">19122037674</Timestamp><Current dt:dt="r8">0</Current><DateUtc dt:dt="string">2015-08-13T12:53:52Z</DateUtc></FrequencyChange></FrequencyChanges></Clock>\n	1 ver1_main_procedure-22-1	99.925	1.0.0.880	2	cb	1942659924	prawa	1	2.0.10.356	08-13-2015	2015-08-13 12:53:52	14:53:52	mezczyzna	2.0.10.92	3	6	1	1																							d	{SPACE}		no	BlockProc2		BlockList									2	Free	dl	color_blue.png		0	11	207465	311																								25	prime_left.png	0	207185	0	0	13	0	207185	0	207185	1	207185	20	0	-1	205686	207185	207184	0		TrialProc1	left	0		0	0	0	0		0	0	TrialList2	target_both.png	0	dl	-999999	3	207235	0	d	219	207454															7	1	2	comp			300
1 ver1_main_procedure	22	1	19	<?xml version="1.0"?>\n<Clock xmlns:dt="urn:schemas-microsoft-com:datatypes"><Description dt:dt="string">E-Prime Primary Realtime Clock</Description><StartTime><Timestamp dt:dt="int">0</Timestamp><DateUtc dt:dt="string">2015-08-13T12:53:52Z</DateUtc></StartTime><FrequencyChanges><FrequencyChange><Frequency dt:dt="r8">2441396</Frequency><Timestamp dt:dt="r8">19122037674</Timestamp><Current dt:dt="r8">0</Current><DateUtc dt:dt="string">2015-08-13T12:53:52Z</DateUtc></FrequencyChange></FrequencyChanges></Clock>\n	1 ver1_main_procedure-22-1	99.925	1.0.0.880	2	cb	1942659924	prawa	1	2.0.10.356	08-13-2015	2015-08-13 12:53:52	14:53:52	mezczyzna	2.0.10.92	3	6	1	1																							d	{SPACE}		no	BlockProc2		BlockList									3	Cued	l	color_purple.png		0	7	209847	160																								75	prime_right.png	0	209587	0	0	13	0	209587	0	209587	1	209587	20	0	-1	208088	209587	209586	0		TrialProc1	right	0		0	0	0	0		0	0	TrialList2	target_right.png	1	l	-999999	3	209637	0	l	203	209840															4	1	3	comp			150
1 ver1_main_procedure	22	1	19	<?xml version="1.0"?>\n<Clock xmlns:dt="urn:schemas-microsoft-com:datatypes"><Description dt:dt="string">E-Prime Primary Realtime Clock</Description><StartTime><Timestamp dt:dt="int">0</Timestamp><DateUtc dt:dt="string">2015-08-13T12:53:52Z</DateUtc></StartTime><FrequencyChanges><FrequencyChange><Frequency dt:dt="r8">2441396</Frequency><Timestamp dt:dt="r8">19122037674</Timestamp><Current dt:dt="r8">0</Current><DateUtc dt:dt="string">2015-08-13T12:53:52Z</DateUtc></FrequencyChange></FrequencyChanges></Clock>\n	1 ver1_main_procedure-22-1	99.925	1.0.0.880	2	cb	1942659924	prawa	1	2.0.10.356	08-13-2015	2015-08-13 12:53:52	14:53:52	mezczyzna	2.0.10.92	3	6	1	1																							d	{SPACE}		no	BlockProc2		BlockList									4	Free	dl	color_orange.png		0	15	212109	310																								75	prime_left.png	0	211819	0	0	13	0	211819	0	211819	1	211819	20	0	-1	210320	211819	211818	0		TrialProc1	right	0		0	0	0	0		0	0	TrialList2	target_both.png	0	dl	-999999	3	211869	0	l	225	212094															12	1	4	incomp			300
1 ver1_main_procedure	22	1	19	<?xml version="1.0"?>\n<Clock xmlns:dt="urn:schemas-microsoft-com:datatypes"><Description dt:dt="string">E-Prime Primary Realtime Clock</Description><StartTime><Timestamp dt:dt="int">0</Timestamp><DateUtc dt:dt="string">2015-08-13T12:53:52Z</DateUtc></StartTime><FrequencyChanges><FrequencyChange><Frequency dt:dt="r8">2441396</Frequency><Timestamp dt:dt="r8">19122037674</Timestamp><Current dt:dt="r8">0</Current><DateUtc dt:dt="string">2015-08-13T12:53:52Z</DateUtc></FrequencyChange></FrequencyChanges></Clock>\n	1 ver1_main_procedure-22-1	99.925	1.0.0.880	2	cb	1942659924	prawa	1	2.0.10.356	08-13-2015	2015-08-13 12:53:52	14:53:52	mezczyzna	2.0.10.92	3	6	1	1																							d	{SPACE}		no	BlockProc2		BlockList									5	Cued	l	color_yellow.png		0	11	214511	310																			2					75	prime_right.png	1	214231	0	0	13	1	214231	1	214231	1	214230	20	0	-1	212732	214230	214229	0	prime_right.png	TrialProc1	right	0		0	0	0	0		0	0	TrialList2	target_right.png	1	l	-999999	4	214281	0	l	219	214500															5	1	5	neut			300
1 ver1_main_procedure	22	1	19	<?xml version="1.0"?>\n<Clock xmlns:dt="urn:schemas-microsoft-com:datatypes"><Description dt:dt="string">E-Prime Primary Realtime Clock</Description><StartTime><Timestamp dt:dt="int">0</Timestamp><DateUtc dt:dt="string">2015-08-13T12:53:52Z</DateUtc></StartTime><FrequencyChanges><FrequencyChange><Frequency dt:dt="r8">2441396</Frequency><Timestamp dt:dt="r8">19122037674</Timestamp><Current dt:dt="r8">0</Current><DateUtc dt:dt="string">2015-08-13T12:53:52Z</DateUtc></FrequencyChange></FrequencyChanges></Clock>\n	1 ver1_main_procedure-22-1	99.925	1.0.0.880	2	cb	1942659924	prawa	1	2.0.10.356	08-13-2015	2015-08-13 12:53:52	14:53:52	mezczyzna	2.0.10.92	3	6	1	1																							d	{SPACE}		no	BlockProc2		BlockList									6	Free	dl	color_blue.png		0	12	216872	461																								75	prime_left.png	0	216632	0	0	13	0	216632	0	216632	1	216632	20	0	-1	215133	216632	216631	0		TrialProc1	left	0		0	0	0	0		0	0	TrialList2	target_both.png	0	dl	-999999	3	216682	0	d	178	216860															7	1	6	comp			450
1 ver1_main_procedure	22	1	19	<?xml version="1.0"?>\n<Clock xmlns:dt="urn:schemas-microsoft-com:datatypes"><Description dt:dt="string">E-Prime Primary Realtime Clock</Description><StartTime><Timestamp dt:dt="int">0</Timestamp><DateUtc dt:dt="string">2015-08-13T12:53:52Z</DateUtc></StartTime><FrequencyChanges><FrequencyChange><Frequency dt:dt="r8">2441396</Frequency><Timestamp dt:dt="r8">19122037674</Timestamp><Current dt:dt="r8">0</Current><DateUtc dt:dt="string">2015-08-13T12:53:52Z</DateUtc></FrequencyChange></FrequencyChanges></Clock>\n	1 ver1_main_procedure-22-1	99.925	1.0.0.880	2	cb	1942659924	prawa	1	2.0.10.356	08-13-2015	2015-08-13 12:53:52	14:53:52	mezczyzna	2.0.10.92	3	6	1	1																							d	{SPACE}		no	BlockProc2		BlockList									7	Cued	d			0	10	219374	160																								75	prime_right.png	0	219144	0	0	13	0	219144	0	219144	1	219144	20	0	-1	217645	219144	219143	0		TrialProc1	left	0		0	0	0	0		0	0	TrialList2	target_left.png	0	d	-999999	3	219194	0	l	170	219364															3	1	7	incomp			150
1 ver1_main_procedure	22	1	19	<?xml version="1.0"?>\n<Clock xmlns:dt="urn:schemas-microsoft-com:datatypes"><Description dt:dt="string">E-Prime Primary Realtime Clock</Description><StartTime><Timestamp dt:dt="int">0</Timestamp><DateUtc dt:dt="string">2015-08-13T12:53:52Z</DateUtc></StartTime><FrequencyChanges><FrequencyChange><Frequency dt:dt="r8">2441396</Frequency><Timestamp dt:dt="r8">19122037674</Timestamp><Current dt:dt="r8">0</Current><DateUtc dt:dt="string">2015-08-13T12:53:52Z</DateUtc></FrequencyChange></FrequencyChanges></Clock>\n	1 ver1_main_procedure-22-1	99.925	1.0.0.880	2	cb	1942659924	prawa	1	2.0.10.356	08-13-2015	2015-08-13 12:53:52	14:53:52	mezczyzna	2.0.10.92	3	6	1	1																							d	{SPACE}		no	BlockProc2		BlockList									8	Free	dl	color_purple.png		0	12	221586	160																								75	prime_right.png	0	221346	0	0	13	0	221346	0	221346	1	221346	20	0	-1	219847	221346	221345	0		TrialProc1	right	0		0	0	0	0		0	0	TrialList2	target_both.png	0	dl	-999999	3	221396	0	l	178	221574															10	1	8	comp			150
1 ver1_main_procedure	22	1	19	<?xml version="1.0"?>\n<Clock xmlns:dt="urn:schemas-microsoft-com:datatypes"><Description dt:dt="string">E-Prime Primary Realtime Clock</Description><StartTime><Timestamp dt:dt="int">0</Timestamp><DateUtc dt:dt="string">2015-08-13T12:53:52Z</DateUtc></StartTime><FrequencyChanges><FrequencyChange><Frequency dt:dt="r8">2441396</Frequency><Timestamp dt:dt="r8">19122037674</Timestamp><Current dt:dt="r8">0</Current><DateUtc dt:dt="string">2015-08-13T12:53:52Z</DateUtc></FrequencyChange></FrequencyChanges></Clock>\n	1 ver1_main_procedure-22-1	99.925	1.0.0.880	2	cb	1942659924	prawa	1	2.0.10.356	08-13-2015	2015-08-13 12:53:52	14:53:52	mezczyzna	2.0.10.92	3	6	1	1																							d	{SPACE}		no	BlockProc2		BlockList									9	Cued	l	color_orange.png		0	11	223858	160																								75	prime_left.png	1	223558	0	0	13	1	223558	1	223558	1	223557	20	0	-1	222059	223557	223556	0		TrialProc1	right	0		0	0	0	0		0	0	TrialList2	target_right.png	1	l	-999999	3	223607	0	l	240	223847															6	1	9	incomp			150
1 ver1_main_procedure	22	1	19	<?xml version="1.0"?>\n<Clock xmlns:dt="urn:schemas-microsoft-com:datatypes"><Description dt:dt="string">E-Prime Primary Realtime Clock</Description><StartTime><Timestamp dt:dt="int">0</Timestamp><DateUtc dt:dt="string">2015-08-13T12:53:52Z</DateUtc></StartTime><FrequencyChanges><FrequencyChange><Frequency dt:dt="r8">2441396</Frequency><Timestamp dt:dt="r8">19122037674</Timestamp><Current dt:dt="r8">0</Current><DateUtc dt:dt="string">2015-08-13T12:53:52Z</DateUtc></FrequencyChange></FrequencyChanges></Clock>\n	1 ver1_main_procedure-22-1	99.925	1.0.0.880	2	cb	1942659924	prawa	1	2.0.10.356	08-13-2015	2015-08-13 12:53:52	14:53:52	mezczyzna	2.0.10.92	3	6	1	1																							d	{SPACE}		no	BlockProc2		BlockList									10	Free	dl	color_blue.png		0	12	226139	161																								75	prime_left.png	0	225829	0	0	13	0	225829	0	225829	1	225829	20	0	-1	224330	225829	225828	0		TrialProc1	left	0		0	0	0	0		0	0	TrialList2	target_both.png	0	dl	-999999	3	225879	0	d	248	226127															7	1	10	comp			150
1 ver1_main_procedure	22	1	19	<?xml version="1.0"?>\n<Clock xmlns:dt="urn:schemas-microsoft-com:datatypes"><Description dt:dt="string">E-Prime Primary Realtime Clock</Description><StartTime><Timestamp dt:dt="int">0</Timestamp><DateUtc dt:dt="string">2015-08-13T12:53:52Z</DateUtc></StartTime><FrequencyChanges><FrequencyChange><Frequency dt:dt="r8">2441396</Frequency><Timestamp dt:dt="r8">19122037674</Timestamp><Current dt:dt="r8">0</Current><DateUtc dt:dt="string">2015-08-13T12:53:52Z</DateUtc></FrequencyChange></FrequencyChanges></Clock>\n	1 ver1_main_procedure-22-1	99.925	1.0.0.880	2	cb	1942659924	prawa	1	2.0.10.356	08-13-2015	2015-08-13 12:53:52	14:53:52	mezczyzna	2.0.10.92	3	6	1	1																							d	{SPACE}		no	BlockProc2		BlockList									11	Cued	d			0	8	228391	310																								75	prime_left.png	0	228111	0	0	13	0	228111	0	228111	1	228111	20	0	-1	226612	228111	228110	0		TrialProc1	left	0		0	0	0	0		0	0	TrialList2	target_left.png	0	d	-999999	3	228161	0	l	222	228383															1	1	11	comp			300
1 ver1_main_procedure	22	1	19	<?xml version="1.0"?>\n<Clock xmlns:dt="urn:schemas-microsoft-com:datatypes"><Description dt:dt="string">E-Prime Primary Realtime Clock</Description><StartTime><Timestamp dt:dt="int">0</Timestamp><DateUtc dt:dt="string">2015-08-13T12:53:52Z</DateUtc></StartTime><FrequencyChanges><FrequencyChange><Frequency dt:dt="r8">2441396</Frequency><Timestamp dt:dt="r8">19122037674</Timestamp><Current dt:dt="r8">0</Current><DateUtc dt:dt="string">2015-08-13T12:53:52Z</DateUtc></FrequencyChange></FrequencyChanges></Clock>\n	1 ver1_main_procedure-22-1	99.925	1.0.0.880	2	cb	1942659924	prawa	1	2.0.10.356	08-13-2015	2015-08-13 12:53:52	14:53:52	mezczyzna	2.0.10.92	3	6	1	1																							d	{SPACE}		no	BlockProc2		BlockList									12	Free	dl	color_orange.png		0	6	230933	460																								25	prime_left.png	0	230513	0	0	13	0	230513	0	230513	1	230513	20	0	-1	229014	230513	230512	0		TrialProc1	left	0		0	10	230823	-230823		0	0	TrialList2	target_both.png	0	dl	0	3	230563	260	l	364	230927															7	1	12	comp			450
1 ver1_main_procedure	22	1	19	<?xml version="1.0"?>\n<Clock xmlns:dt="urn:schemas-microsoft-com:datatypes"><Description dt:dt="string">E-Prime Primary Realtime Clock</Description><StartTime><Timestamp dt:dt="int">0</Timestamp><DateUtc dt:dt="string">2015-08-13T12:53:52Z</DateUtc></StartTime><FrequencyChanges><FrequencyChange><Frequency dt:dt="r8">2441396</Frequency><Timestamp dt:dt="r8">19122037674</Timestamp><Current dt:dt="r8">0</Current><DateUtc dt:dt="string">2015-08-13T12:53:52Z</DateUtc></FrequencyChange></FrequencyChanges></Clock>\n	1 ver1_main_procedure-22-1	99.925	1.0.0.880	2	cb	1942659924	prawa	1	2.0.10.356	08-13-2015	2015-08-13 12:53:52	14:53:52	mezczyzna	2.0.10.92	3	6	1	1																							d	{SPACE}		no	BlockProc2		BlockList									13	Cued	d			0	10	233455	460																								75	prime_left.png	0	233205	0	0	13	0	233205	0	233205	1	233205	20	0	-1	231706	233205	233204	0		TrialProc1	left	0		0	0	0	0		0	0	TrialList2	target_left.png	0	d	-999999	3	233255	0	l	190	233445															1	1	13	comp			450
1 ver1_main_procedure	22	1	19	<?xml version="1.0"?>\n<Clock xmlns:dt="urn:schemas-microsoft-com:datatypes"><Description dt:dt="string">E-Prime Primary Realtime Clock</Description><StartTime><Timestamp dt:dt="int">0</Timestamp><DateUtc dt:dt="string">2015-08-13T12:53:52Z</DateUtc></StartTime><FrequencyChanges><FrequencyChange><Frequency dt:dt="r8">2441396</Frequency><Timestamp dt:dt="r8">19122037674</Timestamp><Current dt:dt="r8">0</Current><DateUtc dt:dt="string">2015-08-13T12:53:52Z</DateUtc></FrequencyChange></FrequencyChanges></Clock>\n	1 ver1_main_procedure-22-1	99.925	1.0.0.880	2	cb	1942659924	prawa	1	2.0.10.356	08-13-2015	2015-08-13 12:53:52	14:53:52	mezczyzna	2.0.10.92	3	6	1	1																							d	{SPACE}		no	BlockProc2		BlockList									14	Free	dl	color_red.png		0	8	235977	310																								25	prime_right.png	0	235727	0	0	13	0	235727	0	235727	2	235727	20	0	-1	234228	235727	235725	0		TrialProc1	left	0		0	0	0	0		0	0	TrialList2	target_both.png	0	dl	-999999	3	235777	0	d	192	235969															9	1	14	incomp			300
1 ver1_main_procedure	22	1	19	<?xml version="1.0"?>\n<Clock xmlns:dt="urn:schemas-microsoft-com:datatypes"><Description dt:dt="string">E-Prime Primary Realtime Clock</Description><StartTime><Timestamp dt:dt="int">0</Timestamp><DateUtc dt:dt="string">2015-08-13T12:53:52Z</DateUtc></StartTime><FrequencyChanges><FrequencyChange><Frequency dt:dt="r8">2441396</Frequency><Timestamp dt:dt="r8">19122037674</Timestamp><Current dt:dt="r8">0</Current><DateUtc dt:dt="string">2015-08-13T12:53:52Z</DateUtc></FrequencyChange></FrequencyChanges></Clock>\n	1 ver1_main_procedure-22-1	99.925	1.0.0.880	2	cb	1942659924	prawa	1	2.0.10.356	08-13-2015	2015-08-13 12:53:52	14:53:52	mezczyzna	2.0.10.92	3	6	1	1																							d	{SPACE}		no	BlockProc2		BlockList									15	Free	dl	color_purple.png		0	8	238419	160																								75	prime_right.png	1	238099	0	0	13	1	238099	1	238099	1	238098	20	0	-1	236600	238098	238097	0		TrialProc1	right	0		0	11	238409	-238409		0	0	TrialList2	target_both.png	0	dl	0	3	238148	261	l	263	238411															10	1	15	comp			150
1 ver1_main_procedure	22	1	19	<?xml version="1.0"?>\n<Clock xmlns:dt="urn:schemas-microsoft-com:datatypes"><Description dt:dt="string">E-Prime Primary Realtime Clock</Description><StartTime><Timestamp dt:dt="int">0</Timestamp><DateUtc dt:dt="string">2015-08-13T12:53:52Z</DateUtc></StartTime><FrequencyChanges><FrequencyChange><Frequency dt:dt="r8">2441396</Frequency><Timestamp dt:dt="r8">19122037674</Timestamp><Current dt:dt="r8">0</Current><DateUtc dt:dt="string">2015-08-13T12:53:52Z</DateUtc></FrequencyChange></FrequencyChanges></Clock>\n	1 ver1_main_procedure-22-1	99.925	1.0.0.880	2	cb	1942659924	prawa	1	2.0.10.356	08-13-2015	2015-08-13 12:53:52	14:53:52	mezczyzna	2.0.10.92	3	6	1	1																							d	{SPACE}		no	BlockProc2		BlockList									16	Free	dl	color_purple.png		0	10	240770	160																								75	prime_right.png	0	240390	0	0	13	0	240390	0	240390	1	240390	20	0	-1	238891	240390	240389	0		TrialProc1	right	0		0	10	240700	-240700		0	0	TrialList2	target_both.png	0	dl	0	3	240440	260	l	319	240759															10	1	16	comp			150
1 ver1_main_procedure	22	1	19	<?xml version="1.0"?>\n<Clock xmlns:dt="urn:schemas-microsoft-com:datatypes"><Description dt:dt="string">E-Prime Primary Realtime Clock</Description><StartTime><Timestamp dt:dt="int">0</Timestamp><DateUtc dt:dt="string">2015-08-13T12:53:52Z</DateUtc></StartTime><FrequencyChanges><FrequencyChange><Frequency dt:dt="r8">2441396</Frequency><Timestamp dt:dt="r8">19122037674</Timestamp><Current dt:dt="r8">0</Current><DateUtc dt:dt="string">2015-08-13T12:53:52Z</DateUtc></FrequencyChange></FrequencyChanges></Clock>\n	1 ver1_main_procedure-22-1	99.925	1.0.0.880	2	cb	1942659924	prawa	1	2.0.10.356	08-13-2015	2015-08-13 12:53:52	14:53:52	mezczyzna	2.0.10.92	3	6	1	1																							d	{SPACE}		no	BlockProc2		BlockList									17	Free	dl	color_green.png		0	4	243082	160																			1					25	prime_left.png	0	242742	0	0	13	0	242742	0	242742	1	242742	20	0	-1	241243	242742	242741	0	prime_left.png	TrialProc1	right	0		0	10	243052	-243052		0	0	TrialList2	target_both.png	0	dl	0	3	242792	260	d	285	243077															11	1	17	neut			150
1 ver1_main_procedure	22	1	19	<?xml version="1.0"?>\n<Clock xmlns:dt="urn:schemas-microsoft-com:datatypes"><Description dt:dt="string">E-Prime Primary Realtime Clock</Description><StartTime><Timestamp dt:dt="int">0</Timestamp><DateUtc dt:dt="string">2015-08-13T12:53:52Z</DateUtc></StartTime><FrequencyChanges><FrequencyChange><Frequency dt:dt="r8">2441396</Frequency><Timestamp dt:dt="r8">19122037674</Timestamp><Current dt:dt="r8">0</Current><DateUtc dt:dt="string">2015-08-13T12:53:52Z</DateUtc></FrequencyChange></FrequencyChanges></Clock>\n	1 ver1_main_procedure-22-1	99.925	1.0.0.880	2	cb	1942659924	prawa	1	2.0.10.356	08-13-2015	2015-08-13 12:53:52	14:53:52	mezczyzna	2.0.10.92	3	6	1	1																							d	{SPACE}		no	BlockProc2		BlockList									18	Cued	l	color_purple.png		0	11	245344	460																								25	prime_right.png	0	245054	0	0	13	0	245054	0	245054	2	245054	20	0	-1	243555	245054	245052	0		TrialProc1	right	0		0	0	0	0		0	0	TrialList2	target_right.png	1	l	-999999	3	245104	0	l	229	245333															4	1	18	comp			450
1 ver1_main_procedure	22	1	19	<?xml version="1.0"?>\n<Clock xmlns:dt="urn:schemas-microsoft-com:datatypes"><Description dt:dt="string">E-Prime Primary Realtime Clock</Description><StartTime><Timestamp dt:dt="int">0</Timestamp><DateUtc dt:dt="string">2015-08-13T12:53:52Z</DateUtc></StartTime><FrequencyChanges><FrequencyChange><Frequency dt:dt="r8">2441396</Frequency><Timestamp dt:dt="r8">19122037674</Timestamp><Current dt:dt="r8">0</Current><DateUtc dt:dt="string">2015-08-13T12:53:52Z</DateUtc></FrequencyChange></FrequencyChanges></Clock>\n	1 ver1_main_procedure-22-1	99.925	1.0.0.880	2	cb	1942659924	prawa	1	2.0.10.356	08-13-2015	2015-08-13 12:53:52	14:53:52	mezczyzna	2.0.10.92	3	6	1	1																							d	{SPACE}		no	BlockProc2		BlockList									19	Free	dl	color_blue.png		0	13	247886	460																								75	prime_left.png	0	247616	0	0	13	0	247616	0	247616	2	247616	20	0	-1	246117	247616	247614	0		TrialProc1	left	0		0	0	0	0		0	0	TrialList2	target_both.png	0	dl	-999999	3	247666	0	d	207	247873															7	1	19	comp			450
1 ver1_main_procedure	22	1	19	<?xml version="1.0"?>\n<Clock xmlns:dt="urn:schemas-microsoft-com:datatypes"><Description dt:dt="string">E-Prime Primary Realtime Clock</Description><StartTime><Timestamp dt:dt="int">0</Timestamp><DateUtc dt:dt="string">2015-08-13T12:53:52Z</DateUtc></StartTime><FrequencyChanges><FrequencyChange><Frequency dt:dt="r8">2441396</Frequency><Timestamp dt:dt="r8">19122037674</Timestamp><Current dt:dt="r8">0</Current><DateUtc dt:dt="string">2015-08-13T12:53:52Z</DateUtc></FrequencyChange></FrequencyChanges></Clock>\n	1 ver1_main_procedure-22-1	99.925	1.0.0.880	2	cb	1942659924	prawa	1	2.0.10.356	08-13-2015	2015-08-13 12:53:52	14:53:52	mezczyzna	2.0.10.92	3	6	1	1																							d	{SPACE}		no	BlockProc2		BlockList									20	Free	dl	color_orange.png		0	13	250488	310																								25	prime_left.png	0	250157	0	0	13	1	250158	1	250158	1	250157	20	0	-1	248659	250157	250156	0		TrialProc1	right	0		0	11	250468	-250468		0	0	TrialList2	target_both.png	0	dl	0	3	250207	261	l	268	250475															12	1	20	incomp			300
1 ver1_main_procedure	22	1	19	<?xml version="1.0"?>\n<Clock xmlns:dt="urn:schemas-microsoft-com:datatypes"><Description dt:dt="string">E-Prime Primary Realtime Clock</Description><StartTime><Timestamp dt:dt="int">0</Timestamp><DateUtc dt:dt="string">2015-08-13T12:53:52Z</DateUtc></StartTime><FrequencyChanges><FrequencyChange><Frequency dt:dt="r8">2441396</Frequency><Timestamp dt:dt="r8">19122037674</Timestamp><Current dt:dt="r8">0</Current><DateUtc dt:dt="string">2015-08-13T12:53:52Z</DateUtc></FrequencyChange></FrequencyChanges></Clock>\n	1 ver1_main_procedure-22-1	99.925	1.0.0.880	2	cb	1942659924	prawa	1	2.0.10.356	08-13-2015	2015-08-13 12:53:52	14:53:52	mezczyzna	2.0.10.92	3	6	1	1																							d	{SPACE}		no	BlockProc2		BlockList									21	Free	dl	color_yellow.png		0	12	252869	161																			2					75	prime_right.png	0	252609	0	0	13	0	252609	0	252609	1	252609	20	0	-1	251110	252609	252608	0	prime_right.png	TrialProc1	right	0		0	0	0	0		0	0	TrialList2	target_both.png	0	dl	-999999	3	252659	0	l	198	252857															11	1	21	neut			150
1 ver1_main_procedure	22	1	19	<?xml version="1.0"?>\n<Clock xmlns:dt="urn:schemas-microsoft-com:datatypes"><Description dt:dt="string">E-Prime Primary Realtime Clock</Description><StartTime><Timestamp dt:dt="int">0</Timestamp><DateUtc dt:dt="string">2015-08-13T12:53:52Z</DateUtc></StartTime><FrequencyChanges><FrequencyChange><Frequency dt:dt="r8">2441396</Frequency><Timestamp dt:dt="r8">19122037674</Timestamp><Current dt:dt="r8">0</Current><DateUtc dt:dt="string">2015-08-13T12:53:52Z</DateUtc></FrequencyChange></FrequencyChanges></Clock>\n	1 ver1_main_procedure-22-1	99.925	1.0.0.880	2	cb	1942659924	prawa	1	2.0.10.356	08-13-2015	2015-08-13 12:53:52	14:53:52	mezczyzna	2.0.10.92	3	6	1	1																							d	{SPACE}		no	BlockProc2		BlockList									22	Free	dl	color_yellow.png		0	6	255121	310																			1					75	prime_left.png	0	254841	0	0	13	0	254841	0	254841	1	254841	20	0	-1	253342	254841	254840	0	prime_left.png	TrialProc1	right	0		0	0	0	0		0	0	TrialList2	target_both.png	0	dl	-999999	3	254891	0	l	224	255115															11	1	22	neut			300
1 ver1_main_procedure	22	1	19	<?xml version="1.0"?>\n<Clock xmlns:dt="urn:schemas-microsoft-com:datatypes"><Description dt:dt="string">E-Prime Primary Realtime Clock</Description><StartTime><Timestamp dt:dt="int">0</Timestamp><DateUtc dt:dt="string">2015-08-13T12:53:52Z</DateUtc></StartTime><FrequencyChanges><FrequencyChange><Frequency dt:dt="r8">2441396</Frequency><Timestamp dt:dt="r8">19122037674</Timestamp><Current dt:dt="r8">0</Current><DateUtc dt:dt="string">2015-08-13T12:53:52Z</DateUtc></FrequencyChange></FrequencyChanges></Clock>\n	1 ver1_main_procedure-22-1	99.925	1.0.0.880	2	cb	1942659924	prawa	1	2.0.10.356	08-13-2015	2015-08-13 12:53:52	14:53:52	mezczyzna	2.0.10.92	3	6	1	1																							d	{SPACE}		no	BlockProc2		BlockList									23	Free	dl	color_green.png		0	9	257433	460																			2					75	prime_right.png	0	257243	0	0	13	0	257243	0	257243	1	257243	20	0	-1	255744	257243	257242	0	prime_right.png	TrialProc1	left	0		0	0	0	0		0	0	TrialList2	target_both.png	0	dl	-999999	3	257293	0	d	131	257424															8	1	23	neut			450
1 ver1_main_procedure	22	1	19	<?xml version="1.0"?>\n<Clock xmlns:dt="urn:schemas-microsoft-com:datatypes"><Description dt:dt="string">E-Prime Primary Realtime Clock</Description><StartTime><Timestamp dt:dt="int">0</Timestamp><DateUtc dt:dt="string">2015-08-13T12:53:52Z</DateUtc></StartTime><FrequencyChanges><FrequencyChange><Frequency dt:dt="r8">2441396</Frequency><Timestamp dt:dt="r8">19122037674</Timestamp><Current dt:dt="r8">0</Current><DateUtc dt:dt="string">2015-08-13T12:53:52Z</DateUtc></FrequencyChange></FrequencyChanges></Clock>\n	1 ver1_main_procedure-22-1	99.925	1.0.0.880	2	cb	1942659924	prawa	1	2.0.10.356	08-13-2015	2015-08-13 12:53:52	14:53:52	mezczyzna	2.0.10.92	3	6	1	1																							d	{SPACE}		no	BlockProc2		BlockList									24	Free	dl	color_blue.png		0	15	259885	310																								25	prime_left.png	0	259705	0	0	13	0	259705	0	259705	2	259705	20	0	-1	258206	259705	259703	0		TrialProc1	left	0		0	0	0	0		0	0	TrialList2	target_both.png	0	dl	-999999	3	259755	0	d	115	259870															7	1	24	comp			300
1 ver1_main_procedure	22	1	19	<?xml version="1.0"?>\n<Clock xmlns:dt="urn:schemas-microsoft-com:datatypes"><Description dt:dt="string">E-Prime Primary Realtime Clock</Description><StartTime><Timestamp dt:dt="int">0</Timestamp><DateUtc dt:dt="string">2015-08-13T12:53:52Z</DateUtc></StartTime><FrequencyChanges><FrequencyChange><Frequency dt:dt="r8">2441396</Frequency><Timestamp dt:dt="r8">19122037674</Timestamp><Current dt:dt="r8">0</Current><DateUtc dt:dt="string">2015-08-13T12:53:52Z</DateUtc></FrequencyChange></FrequencyChanges></Clock>\n	1 ver1_main_procedure-22-1	99.925	1.0.0.880	2	cb	1942659924	prawa	1	2.0.10.356	08-13-2015	2015-08-13 12:53:52	14:53:52	mezczyzna	2.0.10.92	3	6	1	1																							d	{SPACE}		no	BlockProc2		BlockList									25	Free	dl	color_purple.png		0	15	262267	160																								75	prime_right.png	0	262006	0	0	13	1	262007	1	262007	1	262006	20	0	-1	260507	262006	262005	0		TrialProc1	left	0		0	0	0	0		0	0	TrialList2	target_both.png	0	dl	-999999	3	262056	0	l	196	262252															9	1	25	incomp			150
1 ver1_main_procedure	22	1	19	<?xml version="1.0"?>\n<Clock xmlns:dt="urn:schemas-microsoft-com:datatypes"><Description dt:dt="string">E-Prime Primary Realtime Clock</Description><StartTime><Timestamp dt:dt="int">0</Timestamp><DateUtc dt:dt="string">2015-08-13T12:53:52Z</DateUtc></StartTime><FrequencyChanges><FrequencyChange><Frequency dt:dt="r8">2441396</Frequency><Timestamp dt:dt="r8">19122037674</Timestamp><Current dt:dt="r8">0</Current><DateUtc dt:dt="string">2015-08-13T12:53:52Z</DateUtc></FrequencyChange></FrequencyChanges></Clock>\n	1 ver1_main_procedure-22-1	99.925	1.0.0.880	2	cb	1942659924	prawa	1	2.0.10.356	08-13-2015	2015-08-13 12:53:52	14:53:52	mezczyzna	2.0.10.92	3	6	1	1																							d	{SPACE}		no	BlockProc2		BlockList									26	Free	dl	color_green.png		0	10	264448	310																			1					25	prime_left.png	0	264238	0	0	13	0	264238	0	264238	1	264238	20	0	-1	262739	264238	264237	0	prime_left.png	TrialProc1	right	0		0	0	0	0		0	0	TrialList2	target_both.png	0	dl	-999999	3	264288	0	d	150	264438															11	1	26	neut			300
1 ver1_main_procedure	22	1	19	<?xml version="1.0"?>\n<Clock xmlns:dt="urn:schemas-microsoft-com:datatypes"><Description dt:dt="string">E-Prime Primary Realtime Clock</Description><StartTime><Timestamp dt:dt="int">0</Timestamp><DateUtc dt:dt="string">2015-08-13T12:53:52Z</DateUtc></StartTime><FrequencyChanges><FrequencyChange><Frequency dt:dt="r8">2441396</Frequency><Timestamp dt:dt="r8">19122037674</Timestamp><Current dt:dt="r8">0</Current><DateUtc dt:dt="string">2015-08-13T12:53:52Z</DateUtc></FrequencyChange></FrequencyChanges></Clock>\n	1 ver1_main_procedure-22-1	99.925	1.0.0.880	2	cb	1942659924	prawa	1	2.0.10.356	08-13-2015	2015-08-13 12:53:52	14:53:52	mezczyzna	2.0.10.92	3	6	1	1																							d	{SPACE}		no	BlockProc2		BlockList									27	Free	dl	color_green.png		0	6	266840	310																			2					25	prime_right.png	0	266570	0	0	13	0	266570	0	266570	1	266570	20	0	-1	265071	266570	266569	0	prime_right.png	TrialProc1	left	0		0	0	0	0		0	0	TrialList2	target_both.png	0	dl	-999999	3	266620	0	d	214	266834															8	1	27	neut			300
1 ver1_main_procedure	22	1	19	<?xml version="1.0"?>\n<Clock xmlns:dt="urn:schemas-microsoft-com:datatypes"><Description dt:dt="string">E-Prime Primary Realtime Clock</Description><StartTime><Timestamp dt:dt="int">0</Timestamp><DateUtc dt:dt="string">2015-08-13T12:53:52Z</DateUtc></StartTime><FrequencyChanges><FrequencyChange><Frequency dt:dt="r8">2441396</Frequency><Timestamp dt:dt="r8">19122037674</Timestamp><Current dt:dt="r8">0</Current><DateUtc dt:dt="string">2015-08-13T12:53:52Z</DateUtc></FrequencyChange></FrequencyChanges></Clock>\n	1 ver1_main_procedure-22-1	99.925	1.0.0.880	2	cb	1942659924	prawa	1	2.0.10.356	08-13-2015	2015-08-13 12:53:52	14:53:52	mezczyzna	2.0.10.92	3	6	1	1																							d	{SPACE}		no	BlockProc2		BlockList									28	Free	dl	color_blue.png		0	10	269022	160																								25	prime_left.png	0	268962	0	0	13	0	268962	0	268962	2	268962	20	0	-1	267463	268962	268960	0		TrialProc1	left	0		0	0	0	0		0	0	TrialList2	target_both.png	0	dl	-999999	3	269012	0	d	0	269012															7	1	28	comp			150
1 ver1_main_procedure	22	1	19	<?xml version="1.0"?>\n<Clock xmlns:dt="urn:schemas-microsoft-com:datatypes"><Description dt:dt="string">E-Prime Primary Realtime Clock</Description><StartTime><Timestamp dt:dt="int">0</Timestamp><DateUtc dt:dt="string">2015-08-13T12:53:52Z</DateUtc></StartTime><FrequencyChanges><FrequencyChange><Frequency dt:dt="r8">2441396</Frequency><Timestamp dt:dt="r8">19122037674</Timestamp><Current dt:dt="r8">0</Current><DateUtc dt:dt="string">2015-08-13T12:53:52Z</DateUtc></FrequencyChange></FrequencyChanges></Clock>\n	1 ver1_main_procedure-22-1	99.925	1.0.0.880	2	cb	1942659924	prawa	1	2.0.10.356	08-13-2015	2015-08-13 12:53:52	14:53:52	mezczyzna	2.0.10.92	3	6	1	1																							d	{SPACE}		no	BlockProc2		BlockList									29	Free	dl			0	1	272804	461																			1					25	prime_left.png	0	270993	0	0	13	0	270993	0	270993	1	270993	20	0	-1	269494	270993	270992	0	prime_left.png	TrialProc1	right	0		0	10	271303	1501		0	0	TrialList2	target_both.png	0	dl	0	3	271043	260		0	0															11	1	29	neut			450
1 ver1_main_procedure	22	1	19	<?xml version="1.0"?>\n<Clock xmlns:dt="urn:schemas-microsoft-com:datatypes"><Description dt:dt="string">E-Prime Primary Realtime Clock</Description><StartTime><Timestamp dt:dt="int">0</Timestamp><DateUtc dt:dt="string">2015-08-13T12:53:52Z</DateUtc></StartTime><FrequencyChanges><FrequencyChange><Frequency dt:dt="r8">2441396</Frequency><Timestamp dt:dt="r8">19122037674</Timestamp><Current dt:dt="r8">0</Current><DateUtc dt:dt="string">2015-08-13T12:53:52Z</DateUtc></FrequencyChange></FrequencyChanges></Clock>\n	1 ver1_main_procedure-22-1	99.925	1.0.0.880	2	cb	1942659924	prawa	1	2.0.10.356	08-13-2015	2015-08-13 12:53:52	14:53:52	mezczyzna	2.0.10.92	3	6	1	1																							d	{SPACE}		no	BlockProc2		BlockList									30	Cued	l			0	5	275286	311																								25	prime_left.png	0	275076	0	0	13	0	275076	0	275076	1	275076	20	0	-1	273577	275076	275075	0		TrialProc1	right	0		0	0	0	0		0	0	TrialList2	target_right.png	0	l	-999999	3	275126	0	d	155	275281															6	1	30	incomp			300
1 ver1_main_procedure	22	1	19	<?xml version="1.0"?>\n<Clock xmlns:dt="urn:schemas-microsoft-com:datatypes"><Description dt:dt="string">E-Prime Primary Realtime Clock</Description><StartTime><Timestamp dt:dt="int">0</Timestamp><DateUtc dt:dt="string">2015-08-13T12:53:52Z</DateUtc></StartTime><FrequencyChanges><FrequencyChange><Frequency dt:dt="r8">2441396</Frequency><Timestamp dt:dt="r8">19122037674</Timestamp><Current dt:dt="r8">0</Current><DateUtc dt:dt="string">2015-08-13T12:53:52Z</DateUtc></FrequencyChange></FrequencyChanges></Clock>\n	1 ver1_main_procedure-22-1	99.925	1.0.0.880	2	cb	1942659924	prawa	1	2.0.10.356	08-13-2015	2015-08-13 12:53:52	14:53:52	mezczyzna	2.0.10.92	3	6	1	1																							d	{SPACE}		no	BlockProc2		BlockList									31	Free	dl	color_green.png		0	5	277708	160																			2					75	prime_right.png	0	277408	0	0	13	0	277408	0	277408	1	277408	20	0	-1	275909	277408	277407	0	prime_right.png	TrialProc1	left	0		0	0	0	0		0	0	TrialList2	target_both.png	0	dl	-999999	3	277458	0	d	245	277703															8	1	31	neut			150
1 ver1_main_procedure	22	1	19	<?xml version="1.0"?>\n<Clock xmlns:dt="urn:schemas-microsoft-com:datatypes"><Description dt:dt="string">E-Prime Primary Realtime Clock</Description><StartTime><Timestamp dt:dt="int">0</Timestamp><DateUtc dt:dt="string">2015-08-13T12:53:52Z</DateUtc></StartTime><FrequencyChanges><FrequencyChange><Frequency dt:dt="r8">2441396</Frequency><Timestamp dt:dt="r8">19122037674</Timestamp><Current dt:dt="r8">0</Current><DateUtc dt:dt="string">2015-08-13T12:53:52Z</DateUtc></FrequencyChange></FrequencyChanges></Clock>\n	1 ver1_main_procedure-22-1	99.925	1.0.0.880	2	cb	1942659924	prawa	1	2.0.10.356	08-13-2015	2015-08-13 12:53:52	14:53:52	mezczyzna	2.0.10.92	3	6	1	1																							d	{SPACE}		no	BlockProc2		BlockList									32	Free	dl	color_yellow.png		0	13	279950	160																			1					75	prime_left.png	0	279680	0	0	13	0	279680	0	279680	2	279680	20	0	-1	278181	279680	279678	0	prime_left.png	TrialProc1	right	0		0	0	0	0		0	0	TrialList2	target_both.png	0	dl	-999999	3	279730	0	l	207	279937															11	1	32	neut			150
1 ver1_main_procedure	22	1	19	<?xml version="1.0"?>\n<Clock xmlns:dt="urn:schemas-microsoft-com:datatypes"><Description dt:dt="string">E-Prime Primary Realtime Clock</Description><StartTime><Timestamp dt:dt="int">0</Timestamp><DateUtc dt:dt="string">2015-08-13T12:53:52Z</DateUtc></StartTime><FrequencyChanges><FrequencyChange><Frequency dt:dt="r8">2441396</Frequency><Timestamp dt:dt="r8">19122037674</Timestamp><Current dt:dt="r8">0</Current><DateUtc dt:dt="string">2015-08-13T12:53:52Z</DateUtc></FrequencyChange></FrequencyChanges></Clock>\n	1 ver1_main_procedure-22-1	99.925	1.0.0.880	2	cb	1942659924	prawa	1	2.0.10.356	08-13-2015	2015-08-13 12:53:52	14:53:52	mezczyzna	2.0.10.92	3	6	1	1																							d	{SPACE}		no	BlockProc2		BlockList									33	Free	dl	color_yellow.png		0	13	282252	310																			2					75	prime_right.png	0	281921	0	0	13	0	281922	0	281921	1	281921	20	0	-1	280422	281921	281920	0	prime_right.png	TrialProc1	left	0		0	11	282232	-282232		0	0	TrialList2	target_both.png	0	dl	0	3	281971	261	l	268	282239															8	1	33	neut			300
1 ver1_main_procedure	22	1	19	<?xml version="1.0"?>\n<Clock xmlns:dt="urn:schemas-microsoft-com:datatypes"><Description dt:dt="string">E-Prime Primary Realtime Clock</Description><StartTime><Timestamp dt:dt="int">0</Timestamp><DateUtc dt:dt="string">2015-08-13T12:53:52Z</DateUtc></StartTime><FrequencyChanges><FrequencyChange><Frequency dt:dt="r8">2441396</Frequency><Timestamp dt:dt="r8">19122037674</Timestamp><Current dt:dt="r8">0</Current><DateUtc dt:dt="string">2015-08-13T12:53:52Z</DateUtc></FrequencyChange></FrequencyChanges></Clock>\n	1 ver1_main_procedure-22-1	99.925	1.0.0.880	2	cb	1942659924	prawa	1	2.0.10.356	08-13-2015	2015-08-13 12:53:52	14:53:52	mezczyzna	2.0.10.92	3	6	1	1																							d	{SPACE}		no	BlockProc2		BlockList									34	Free	dl	color_blue.png		0	12	284573	160																								75	prime_left.png	0	284373	0	0	13	0	284373	0	284373	1	284373	20	0	-1	282874	284373	284372	0		TrialProc1	right	0		0	0	0	0		0	0	TrialList2	target_both.png	0	dl	-999999	3	284423	0	d	138	284561															12	1	34	incomp			150
1 ver1_main_procedure	22	1	19	<?xml version="1.0"?>\n<Clock xmlns:dt="urn:schemas-microsoft-com:datatypes"><Description dt:dt="string">E-Prime Primary Realtime Clock</Description><StartTime><Timestamp dt:dt="int">0</Timestamp><DateUtc dt:dt="string">2015-08-13T12:53:52Z</DateUtc></StartTime><FrequencyChanges><FrequencyChange><Frequency dt:dt="r8">2441396</Frequency><Timestamp dt:dt="r8">19122037674</Timestamp><Current dt:dt="r8">0</Current><DateUtc dt:dt="string">2015-08-13T12:53:52Z</DateUtc></FrequencyChange></FrequencyChanges></Clock>\n	1 ver1_main_procedure-22-1	99.925	1.0.0.880	2	cb	1942659924	prawa	1	2.0.10.356	08-13-2015	2015-08-13 12:53:52	14:53:52	mezczyzna	2.0.10.92	3	6	1	1																							d	{SPACE}		no	BlockProc2		BlockList									35	Free	dl	color_blue.png		0	8	286845	160																								25	prime_left.png	0	286545	0	0	13	0	286545	0	286545	1	286545	20	0	-1	285046	286545	286544	0		TrialProc1	left	0		0	0	0	0		0	0	TrialList2	target_both.png	0	dl	-999999	3	286595	0	d	242	286837															7	1	35	comp			150
1 ver1_main_procedure	22	1	19	<?xml version="1.0"?>\n<Clock xmlns:dt="urn:schemas-microsoft-com:datatypes"><Description dt:dt="string">E-Prime Primary Realtime Clock</Description><StartTime><Timestamp dt:dt="int">0</Timestamp><DateUtc dt:dt="string">2015-08-13T12:53:52Z</DateUtc></StartTime><FrequencyChanges><FrequencyChange><Frequency dt:dt="r8">2441396</Frequency><Timestamp dt:dt="r8">19122037674</Timestamp><Current dt:dt="r8">0</Current><DateUtc dt:dt="string">2015-08-13T12:53:52Z</DateUtc></FrequencyChange></FrequencyChanges></Clock>\n	1 ver1_main_procedure-22-1	99.925	1.0.0.880	2	cb	1942659924	prawa	1	2.0.10.356	08-13-2015	2015-08-13 12:53:52	14:53:52	mezczyzna	2.0.10.92	3	6	1	1																							d	{SPACE}		no	BlockProc2		BlockList									36	Cued	d			0	6	289057	310																			1					25	prime_left.png	1	288817	0	0	13	1	288817	1	288817	1	288816	21	0	-1	287318	288816	288815	0	prime_left.png	TrialProc1	left	0		0	0	0	0		0	0	TrialList2	target_left.png	0	d	-999999	3	288867	0	l	184	289051															2	1	36	neut			300
1 ver1_main_procedure	22	1	19	<?xml version="1.0"?>\n<Clock xmlns:dt="urn:schemas-microsoft-com:datatypes"><Description dt:dt="string">E-Prime Primary Realtime Clock</Description><StartTime><Timestamp dt:dt="int">0</Timestamp><DateUtc dt:dt="string">2015-08-13T12:53:52Z</DateUtc></StartTime><FrequencyChanges><FrequencyChange><Frequency dt:dt="r8">2441396</Frequency><Timestamp dt:dt="r8">19122037674</Timestamp><Current dt:dt="r8">0</Current><DateUtc dt:dt="string">2015-08-13T12:53:52Z</DateUtc></FrequencyChange></FrequencyChanges></Clock>\n	1 ver1_main_procedure-22-1	99.925	1.0.0.880	2	cb	1942659924	prawa	1	2.0.10.356	08-13-2015	2015-08-13 12:53:52	14:53:52	mezczyzna	2.0.10.92	3	6	1	1																							d	{SPACE}		no	BlockProc2		BlockList									37	Free	dl	color_purple.png		0	6	291338	311																								75	prime_right.png	0	291178	0	0	13	0	291178	0	291178	1	291178	20	0	-1	289679	291178	291177	0		TrialProc1	left	0		0	0	0	0		0	0	TrialList2	target_both.png	0	dl	-999999	3	291228	0	l	104	291332															9	1	37	incomp			300
1 ver1_main_procedure	22	1	19	<?xml version="1.0"?>\n<Clock xmlns:dt="urn:schemas-microsoft-com:datatypes"><Description dt:dt="string">E-Prime Primary Realtime Clock</Description><StartTime><Timestamp dt:dt="int">0</Timestamp><DateUtc dt:dt="string">2015-08-13T12:53:52Z</DateUtc></StartTime><FrequencyChanges><FrequencyChange><Frequency dt:dt="r8">2441396</Frequency><Timestamp dt:dt="r8">19122037674</Timestamp><Current dt:dt="r8">0</Current><DateUtc dt:dt="string">2015-08-13T12:53:52Z</DateUtc></FrequencyChange></FrequencyChanges></Clock>\n	1 ver1_main_procedure-22-1	99.925	1.0.0.880	2	cb	1942659924	prawa	1	2.0.10.356	08-13-2015	2015-08-13 12:53:52	14:53:52	mezczyzna	2.0.10.92	3	6	1	1																							d	{SPACE}		no	BlockProc2		BlockList									38	Free	dl	color_blue.png		0	10	293660	460																								25	prime_left.png	0	293460	0	0	13	0	293460	0	293460	1	293460	20	0	-1	291961	293460	293459	0		TrialProc1	right	0		0	0	0	0		0	0	TrialList2	target_both.png	0	dl	-999999	3	293510	0	d	140	293650															12	1	38	incomp			450
1 ver1_main_procedure	22	1	19	<?xml version="1.0"?>\n<Clock xmlns:dt="urn:schemas-microsoft-com:datatypes"><Description dt:dt="string">E-Prime Primary Realtime Clock</Description><StartTime><Timestamp dt:dt="int">0</Timestamp><DateUtc dt:dt="string">2015-08-13T12:53:52Z</DateUtc></StartTime><FrequencyChanges><FrequencyChange><Frequency dt:dt="r8">2441396</Frequency><Timestamp dt:dt="r8">19122037674</Timestamp><Current dt:dt="r8">0</Current><DateUtc dt:dt="string">2015-08-13T12:53:52Z</DateUtc></FrequencyChange></FrequencyChanges></Clock>\n	1 ver1_main_procedure-22-1	99.925	1.0.0.880	2	cb	1942659924	prawa	1	2.0.10.356	08-13-2015	2015-08-13 12:53:52	14:53:52	mezczyzna	2.0.10.92	3	6	1	1																							d	{SPACE}		no	BlockProc2		BlockList									39	Free	dl	color_red.png		0	8	296212	160																								25	prime_right.png	0	295932	0	0	13	0	295932	0	295932	1	295932	20	0	-1	294433	295932	295931	0		TrialProc1	left	0		0	0	0	0		0	0	TrialList2	target_both.png	0	dl	-999999	3	295982	0	d	222	296204															9	1	39	incomp			150
1 ver1_main_procedure	22	1	19	<?xml version="1.0"?>\n<Clock xmlns:dt="urn:schemas-microsoft-com:datatypes"><Description dt:dt="string">E-Prime Primary Realtime Clock</Description><StartTime><Timestamp dt:dt="int">0</Timestamp><DateUtc dt:dt="string">2015-08-13T12:53:52Z</DateUtc></StartTime><FrequencyChanges><FrequencyChange><Frequency dt:dt="r8">2441396</Frequency><Timestamp dt:dt="r8">19122037674</Timestamp><Current dt:dt="r8">0</Current><DateUtc dt:dt="string">2015-08-13T12:53:52Z</DateUtc></FrequencyChange></FrequencyChanges></Clock>\n	1 ver1_main_procedure-22-1	99.925	1.0.0.880	2	cb	1942659924	prawa	1	2.0.10.356	08-13-2015	2015-08-13 12:53:52	14:53:52	mezczyzna	2.0.10.92	3	6	1	1																							d	{SPACE}		no	BlockProc2		BlockList									40	Free	dl	color_red.png		0	12	298384	460																								25	prime_right.png	0	298184	0	0	13	0	298184	0	298184	2	298184	20	0	-1	296685	298184	298182	0		TrialProc1	left	0		0	0	0	0		0	0	TrialList2	target_both.png	0	dl	-999999	3	298234	0	d	138	298372															9	1	40	incomp			450
1 ver1_main_procedure	22	1	19	<?xml version="1.0"?>\n<Clock xmlns:dt="urn:schemas-microsoft-com:datatypes"><Description dt:dt="string">E-Prime Primary Realtime Clock</Description><StartTime><Timestamp dt:dt="int">0</Timestamp><DateUtc dt:dt="string">2015-08-13T12:53:52Z</DateUtc></StartTime><FrequencyChanges><FrequencyChange><Frequency dt:dt="r8">2441396</Frequency><Timestamp dt:dt="r8">19122037674</Timestamp><Current dt:dt="r8">0</Current><DateUtc dt:dt="string">2015-08-13T12:53:52Z</DateUtc></FrequencyChange></FrequencyChanges></Clock>\n	1 ver1_main_procedure-22-1	99.925	1.0.0.880	2	cb	1942659924	prawa	1	2.0.10.356	08-13-2015	2015-08-13 12:53:52	14:53:52	mezczyzna	2.0.10.92	3	6	1	1																							d	{SPACE}		no	BlockProc2		BlockList									41	Free	dl	color_yellow.png		0	6	300896	160																			2					25	prime_right.png	0	300655	0	0	13	1	300656	1	300656	1	300655	20	0	-1	299157	300655	300654	0	prime_right.png	TrialProc1	left	0		0	0	0	0		0	0	TrialList2	target_both.png	0	dl	-999999	3	300705	0	l	185	300890															8	1	41	neut			150
1 ver1_main_procedure	22	1	19	<?xml version="1.0"?>\n<Clock xmlns:dt="urn:schemas-microsoft-com:datatypes"><Description dt:dt="string">E-Prime Primary Realtime Clock</Description><StartTime><Timestamp dt:dt="int">0</Timestamp><DateUtc dt:dt="string">2015-08-13T12:53:52Z</DateUtc></StartTime><FrequencyChanges><FrequencyChange><Frequency dt:dt="r8">2441396</Frequency><Timestamp dt:dt="r8">19122037674</Timestamp><Current dt:dt="r8">0</Current><DateUtc dt:dt="string">2015-08-13T12:53:52Z</DateUtc></FrequencyChange></FrequencyChanges></Clock>\n	1 ver1_main_procedure-22-1	99.925	1.0.0.880	2	cb	1942659924	prawa	1	2.0.10.356	08-13-2015	2015-08-13 12:53:52	14:53:52	mezczyzna	2.0.10.92	3	6	1	1																							d	{SPACE}		no	BlockProc2		BlockList									42	Free	dl	color_blue.png		0	9	303147	461																								25	prime_left.png	0	302867	0	0	13	0	302867	0	302867	1	302867	20	0	-1	301368	302867	302866	0		TrialProc1	right	0		0	0	0	0		0	0	TrialList2	target_both.png	0	dl	-999999	3	302917	0	d	221	303138															12	1	42	incomp			450
1 ver1_main_procedure	22	1	19	<?xml version="1.0"?>\n<Clock xmlns:dt="urn:schemas-microsoft-com:datatypes"><Description dt:dt="string">E-Prime Primary Realtime Clock</Description><StartTime><Timestamp dt:dt="int">0</Timestamp><DateUtc dt:dt="string">2015-08-13T12:53:52Z</DateUtc></StartTime><FrequencyChanges><FrequencyChange><Frequency dt:dt="r8">2441396</Frequency><Timestamp dt:dt="r8">19122037674</Timestamp><Current dt:dt="r8">0</Current><DateUtc dt:dt="string">2015-08-13T12:53:52Z</DateUtc></FrequencyChange></FrequencyChanges></Clock>\n	1 ver1_main_procedure-22-1	99.925	1.0.0.880	2	cb	1942659924	prawa	1	2.0.10.356	08-13-2015	2015-08-13 12:53:52	14:53:52	mezczyzna	2.0.10.92	3	6	1	1																							d	{SPACE}		no	BlockProc2		BlockList									43	Free	dl	color_green.png		0	9	305499	310																			1					25	prime_left.png	0	305419	0	0	13	0	305419	0	305419	1	305419	20	0	-1	303920	305419	305418	0	prime_left.png	TrialProc1	left	0		0	0	0	0		0	0	TrialList2	target_both.png	0	dl	-999999	3	305469	0	d	20	305489															8	1	43	neut			300
1 ver1_main_procedure	22	1	19	<?xml version="1.0"?>\n<Clock xmlns:dt="urn:schemas-microsoft-com:datatypes"><Description dt:dt="string">E-Prime Primary Realtime Clock</Description><StartTime><Timestamp dt:dt="int">0</Timestamp><DateUtc dt:dt="string">2015-08-13T12:53:52Z</DateUtc></StartTime><FrequencyChanges><FrequencyChange><Frequency dt:dt="r8">2441396</Frequency><Timestamp dt:dt="r8">19122037674</Timestamp><Current dt:dt="r8">0</Current><DateUtc dt:dt="string">2015-08-13T12:53:52Z</DateUtc></FrequencyChange></FrequencyChanges></Clock>\n	1 ver1_main_procedure-22-1	99.925	1.0.0.880	2	cb	1942659924	prawa	1	2.0.10.356	08-13-2015	2015-08-13 12:53:52	14:53:52	mezczyzna	2.0.10.92	3	6	1	1																							d	{SPACE}		no	BlockProc2		BlockList									44	Free	dl	color_orange.png		0	10	307801	160																								75	prime_left.png	0	307621	0	0	13	0	307621	0	307621	2	307621	20	0	-1	306122	307621	307619	0		TrialProc1	right	0		0	0	0	0		0	0	TrialList2	target_both.png	0	dl	-999999	3	307671	0	l	119	307790															12	1	44	incomp			150
1 ver1_main_procedure	22	1	19	<?xml version="1.0"?>\n<Clock xmlns:dt="urn:schemas-microsoft-com:datatypes"><Description dt:dt="string">E-Prime Primary Realtime Clock</Description><StartTime><Timestamp dt:dt="int">0</Timestamp><DateUtc dt:dt="string">2015-08-13T12:53:52Z</DateUtc></StartTime><FrequencyChanges><FrequencyChange><Frequency dt:dt="r8">2441396</Frequency><Timestamp dt:dt="r8">19122037674</Timestamp><Current dt:dt="r8">0</Current><DateUtc dt:dt="string">2015-08-13T12:53:52Z</DateUtc></FrequencyChange></FrequencyChanges></Clock>\n	1 ver1_main_procedure-22-1	99.925	1.0.0.880	2	cb	1942659924	prawa	1	2.0.10.356	08-13-2015	2015-08-13 12:53:52	14:53:52	mezczyzna	2.0.10.92	3	6	1	1																							d	{SPACE}		no	BlockProc2		BlockList									45	Free	dl	color_blue.png		0	12	310002	161																								25	prime_left.png	0	309772	0	0	13	0	309772	0	309772	1	309772	20	0	-1	308273	309772	309771	0		TrialProc1	right	0		0	0	0	0		0	0	TrialList2	target_both.png	0	dl	-999999	3	309822	0	d	168	309990															12	1	45	incomp			150
1 ver1_main_procedure	22	1	19	<?xml version="1.0"?>\n<Clock xmlns:dt="urn:schemas-microsoft-com:datatypes"><Description dt:dt="string">E-Prime Primary Realtime Clock</Description><StartTime><Timestamp dt:dt="int">0</Timestamp><DateUtc dt:dt="string">2015-08-13T12:53:52Z</DateUtc></StartTime><FrequencyChanges><FrequencyChange><Frequency dt:dt="r8">2441396</Frequency><Timestamp dt:dt="r8">19122037674</Timestamp><Current dt:dt="r8">0</Current><DateUtc dt:dt="string">2015-08-13T12:53:52Z</DateUtc></FrequencyChange></FrequencyChanges></Clock>\n	1 ver1_main_procedure-22-1	99.925	1.0.0.880	2	cb	1942659924	prawa	1	2.0.10.356	08-13-2015	2015-08-13 12:53:52	14:53:52	mezczyzna	2.0.10.92	3	6	1	1																							d	{SPACE}		no	BlockProc2		BlockList									46	Free	dl	color_purple.png		0	6	312184	460																								25	prime_right.png	0	311974	0	0	13	0	311974	0	311974	1	311974	20	0	-1	310475	311974	311973	0		TrialProc1	left	0		0	0	0	0		0	0	TrialList2	target_both.png	0	dl	-999999	3	312024	0	l	154	312178															9	1	46	incomp			450
1 ver1_main_procedure	22	1	19	<?xml version="1.0"?>\n<Clock xmlns:dt="urn:schemas-microsoft-com:datatypes"><Description dt:dt="string">E-Prime Primary Realtime Clock</Description><StartTime><Timestamp dt:dt="int">0</Timestamp><DateUtc dt:dt="string">2015-08-13T12:53:52Z</DateUtc></StartTime><FrequencyChanges><FrequencyChange><Frequency dt:dt="r8">2441396</Frequency><Timestamp dt:dt="r8">19122037674</Timestamp><Current dt:dt="r8">0</Current><DateUtc dt:dt="string">2015-08-13T12:53:52Z</DateUtc></FrequencyChange></FrequencyChanges></Clock>\n	1 ver1_main_procedure-22-1	99.925	1.0.0.880	2	cb	1942659924	prawa	1	2.0.10.356	08-13-2015	2015-08-13 12:53:52	14:53:52	mezczyzna	2.0.10.92	3	6	1	1																							d	{SPACE}		no	BlockProc2		BlockList									47	Free	dl	color_red.png		0	14	314576	160																								25	prime_right.png	0	314456	0	0	13	0	314456	0	314456	1	314456	20	0	-1	312957	314456	314455	0		TrialProc1	right	0		0	0	0	0		0	0	TrialList2	target_both.png	0	dl	-999999	3	314506	0	d	56	314562															10	1	47	comp			150
1 ver1_main_procedure	22	1	19	<?xml version="1.0"?>\n<Clock xmlns:dt="urn:schemas-microsoft-com:datatypes"><Description dt:dt="string">E-Prime Primary Realtime Clock</Description><StartTime><Timestamp dt:dt="int">0</Timestamp><DateUtc dt:dt="string">2015-08-13T12:53:52Z</DateUtc></StartTime><FrequencyChanges><FrequencyChange><Frequency dt:dt="r8">2441396</Frequency><Timestamp dt:dt="r8">19122037674</Timestamp><Current dt:dt="r8">0</Current><DateUtc dt:dt="string">2015-08-13T12:53:52Z</DateUtc></FrequencyChange></FrequencyChanges></Clock>\n	1 ver1_main_procedure-22-1	99.925	1.0.0.880	2	cb	1942659924	prawa	1	2.0.10.356	08-13-2015	2015-08-13 12:53:52	14:53:52	mezczyzna	2.0.10.92	3	6	1	1																							d	{SPACE}		no	BlockProc2		BlockList									48	Free	dl	color_red.png		0	12	316818	160																								75	prime_right.png	0	316547	0	0	13	1	316548	1	316548	1	316547	20	0	-1	315048	316547	316546	0		TrialProc1	right	0		0	0	0	0		0	0	TrialList2	target_both.png	0	dl	-999999	3	316597	0	d	209	316806															10	1	48	comp			150
1 ver1_main_procedure	22	1	19	<?xml version="1.0"?>\n<Clock xmlns:dt="urn:schemas-microsoft-com:datatypes"><Description dt:dt="string">E-Prime Primary Realtime Clock</Description><StartTime><Timestamp dt:dt="int">0</Timestamp><DateUtc dt:dt="string">2015-08-13T12:53:52Z</DateUtc></StartTime><FrequencyChanges><FrequencyChange><Frequency dt:dt="r8">2441396</Frequency><Timestamp dt:dt="r8">19122037674</Timestamp><Current dt:dt="r8">0</Current><DateUtc dt:dt="string">2015-08-13T12:53:52Z</DateUtc></FrequencyChange></FrequencyChanges></Clock>\n	1 ver1_main_procedure-22-1	99.925	1.0.0.880	2	cb	1942659924	prawa	1	2.0.10.356	08-13-2015	2015-08-13 12:53:52	14:53:52	mezczyzna	2.0.10.92	3	6	1	1																							d	{SPACE}		no	BlockProc2		BlockList									49	Free	dl	color_red.png		0	13	319059	461																								75	prime_right.png	0	318789	0	0	13	0	318789	0	318789	1	318789	20	0	-1	317290	318789	318788	0		TrialProc1	right	0		0	0	0	0		0	0	TrialList2	target_both.png	0	dl	-999999	3	318839	0	d	207	319046															10	1	49	comp			450
1 ver1_main_procedure	22	1	19	<?xml version="1.0"?>\n<Clock xmlns:dt="urn:schemas-microsoft-com:datatypes"><Description dt:dt="string">E-Prime Primary Realtime Clock</Description><StartTime><Timestamp dt:dt="int">0</Timestamp><DateUtc dt:dt="string">2015-08-13T12:53:52Z</DateUtc></StartTime><FrequencyChanges><FrequencyChange><Frequency dt:dt="r8">2441396</Frequency><Timestamp dt:dt="r8">19122037674</Timestamp><Current dt:dt="r8">0</Current><DateUtc dt:dt="string">2015-08-13T12:53:52Z</DateUtc></FrequencyChange></FrequencyChanges></Clock>\n	1 ver1_main_procedure-22-1	99.925	1.0.0.880	2	cb	1942659924	prawa	1	2.0.10.356	08-13-2015	2015-08-13 12:53:52	14:53:52	mezczyzna	2.0.10.92	3	6	1	1																							d	{SPACE}		no	BlockProc2		BlockList									50	Free	dl	color_red.png		0	15	321521	160																								75	prime_right.png	0	321331	0	0	13	0	321331	0	321331	1	321331	20	0	-1	319832	321331	321330	0		TrialProc1	left	0		0	0	0	0		0	0	TrialList2	target_both.png	0	dl	-999999	3	321381	0	d	125	321506															9	1	50	incomp			150
1 ver1_main_procedure	22	1	19	<?xml version="1.0"?>\n<Clock xmlns:dt="urn:schemas-microsoft-com:datatypes"><Description dt:dt="string">E-Prime Primary Realtime Clock</Description><StartTime><Timestamp dt:dt="int">0</Timestamp><DateUtc dt:dt="string">2015-08-13T12:53:52Z</DateUtc></StartTime><FrequencyChanges><FrequencyChange><Frequency dt:dt="r8">2441396</Frequency><Timestamp dt:dt="r8">19122037674</Timestamp><Current dt:dt="r8">0</Current><DateUtc dt:dt="string">2015-08-13T12:53:52Z</DateUtc></FrequencyChange></FrequencyChanges></Clock>\n	1 ver1_main_procedure-22-1	99.925	1.0.0.880	2	cb	1942659924	prawa	1	2.0.10.356	08-13-2015	2015-08-13 12:53:52	14:53:52	mezczyzna	2.0.10.92	3	6	1	1																							d	{SPACE}		no	BlockProc2		BlockList									51	Cued	d	color_green.png		0	13	323733	160																			2					25	prime_right.png	1	323493	0	0	13	1	323493	1	323493	1	323492	21	0	-1	321994	323492	323491	0	prime_right.png	TrialProc1	left	0		0	0	0	0		0	0	TrialList2	target_left.png	1	d	-999999	3	323543	0	d	177	323720															2	1	51	neut			150
1 ver1_main_procedure	22	1	19	<?xml version="1.0"?>\n<Clock xmlns:dt="urn:schemas-microsoft-com:datatypes"><Description dt:dt="string">E-Prime Primary Realtime Clock</Description><StartTime><Timestamp dt:dt="int">0</Timestamp><DateUtc dt:dt="string">2015-08-13T12:53:52Z</DateUtc></StartTime><FrequencyChanges><FrequencyChange><Frequency dt:dt="r8">2441396</Frequency><Timestamp dt:dt="r8">19122037674</Timestamp><Current dt:dt="r8">0</Current><DateUtc dt:dt="string">2015-08-13T12:53:52Z</DateUtc></FrequencyChange></FrequencyChanges></Clock>\n	1 ver1_main_procedure-22-1	99.925	1.0.0.880	2	cb	1942659924	prawa	1	2.0.10.356	08-13-2015	2015-08-13 12:53:52	14:53:52	mezczyzna	2.0.10.92	3	6	1	1																							d	{SPACE}		no	BlockProc2		BlockList									52	Cued	d			0	9	325934	461																								75	prime_right.png	0	325704	0	0	13	0	325704	0	325704	1	325704	20	0	-1	324205	325704	325703	0		TrialProc1	left	0		0	0	0	0		0	0	TrialList2	target_left.png	0	d	-999999	3	325754	0	l	171	325925															3	1	52	incomp			450
1 ver1_main_procedure	22	1	19	<?xml version="1.0"?>\n<Clock xmlns:dt="urn:schemas-microsoft-com:datatypes"><Description dt:dt="string">E-Prime Primary Realtime Clock</Description><StartTime><Timestamp dt:dt="int">0</Timestamp><DateUtc dt:dt="string">2015-08-13T12:53:52Z</DateUtc></StartTime><FrequencyChanges><FrequencyChange><Frequency dt:dt="r8">2441396</Frequency><Timestamp dt:dt="r8">19122037674</Timestamp><Current dt:dt="r8">0</Current><DateUtc dt:dt="string">2015-08-13T12:53:52Z</DateUtc></FrequencyChange></FrequencyChanges></Clock>\n	1 ver1_main_procedure-22-1	99.925	1.0.0.880	2	cb	1942659924	prawa	1	2.0.10.356	08-13-2015	2015-08-13 12:53:52	14:53:52	mezczyzna	2.0.10.92	3	6	1	1																							d	{SPACE}		no	BlockProc2		BlockList									53	Free	dl	color_green.png		0	5	328496	160																			1					25	prime_left.png	0	328206	0	0	13	0	328206	0	328206	1	328206	20	0	-1	326707	328206	328205	0	prime_left.png	TrialProc1	right	0		0	0	0	0		0	0	TrialList2	target_both.png	0	dl	-999999	3	328256	0	d	235	328491															11	1	53	neut			150
1 ver1_main_procedure	22	1	19	<?xml version="1.0"?>\n<Clock xmlns:dt="urn:schemas-microsoft-com:datatypes"><Description dt:dt="string">E-Prime Primary Realtime Clock</Description><StartTime><Timestamp dt:dt="int">0</Timestamp><DateUtc dt:dt="string">2015-08-13T12:53:52Z</DateUtc></StartTime><FrequencyChanges><FrequencyChange><Frequency dt:dt="r8">2441396</Frequency><Timestamp dt:dt="r8">19122037674</Timestamp><Current dt:dt="r8">0</Current><DateUtc dt:dt="string">2015-08-13T12:53:52Z</DateUtc></FrequencyChange></FrequencyChanges></Clock>\n	1 ver1_main_procedure-22-1	99.925	1.0.0.880	2	cb	1942659924	prawa	1	2.0.10.356	08-13-2015	2015-08-13 12:53:52	14:53:52	mezczyzna	2.0.10.92	3	6	1	1																							d	{SPACE}		no	BlockProc2		BlockList									54	Cued	l			0	9	330768	310																								25	prime_right.png	0	330468	0	0	13	0	330468	0	330468	1	330468	20	0	-1	328969	330468	330467	0		TrialProc1	right	0		0	0	0	0		0	0	TrialList2	target_right.png	0	l	-999999	3	330518	0	d	241	330759															4	1	54	comp			300
1 ver1_main_procedure	22	1	19	<?xml version="1.0"?>\n<Clock xmlns:dt="urn:schemas-microsoft-com:datatypes"><Description dt:dt="string">E-Prime Primary Realtime Clock</Description><StartTime><Timestamp dt:dt="int">0</Timestamp><DateUtc dt:dt="string">2015-08-13T12:53:52Z</DateUtc></StartTime><FrequencyChanges><FrequencyChange><Frequency dt:dt="r8">2441396</Frequency><Timestamp dt:dt="r8">19122037674</Timestamp><Current dt:dt="r8">0</Current><DateUtc dt:dt="string">2015-08-13T12:53:52Z</DateUtc></FrequencyChange></FrequencyChanges></Clock>\n	1 ver1_main_procedure-22-1	99.925	1.0.0.880	2	cb	1942659924	prawa	1	2.0.10.356	08-13-2015	2015-08-13 12:53:52	14:53:52	mezczyzna	2.0.10.92	3	6	1	1																							d	{SPACE}		no	BlockProc2		BlockList									55	Cued	d			0	11	333160	460																								25	prime_right.png	0	332890	0	0	13	0	332890	0	332890	2	332890	20	0	-1	331391	332890	332888	0		TrialProc1	left	0		0	0	0	0		0	0	TrialList2	target_left.png	0	d	-999999	3	332940	0	l	209	333149															3	1	55	incomp			450
1 ver1_main_procedure	22	1	19	<?xml version="1.0"?>\n<Clock xmlns:dt="urn:schemas-microsoft-com:datatypes"><Description dt:dt="string">E-Prime Primary Realtime Clock</Description><StartTime><Timestamp dt:dt="int">0</Timestamp><DateUtc dt:dt="string">2015-08-13T12:53:52Z</DateUtc></StartTime><FrequencyChanges><FrequencyChange><Frequency dt:dt="r8">2441396</Frequency><Timestamp dt:dt="r8">19122037674</Timestamp><Current dt:dt="r8">0</Current><DateUtc dt:dt="string">2015-08-13T12:53:52Z</DateUtc></FrequencyChange></FrequencyChanges></Clock>\n	1 ver1_main_procedure-22-1	99.925	1.0.0.880	2	cb	1942659924	prawa	1	2.0.10.356	08-13-2015	2015-08-13 12:53:52	14:53:52	mezczyzna	2.0.10.92	3	6	1	1																							d	{SPACE}		no	BlockProc2		BlockList									56	Free	dl	color_yellow.png		0	7	335642	160																			2					25	prime_right.png	0	335432	0	0	13	0	335432	0	335432	2	335432	19	0	-1	333933	335432	335430	0	prime_right.png	TrialProc1	right	0		0	0	0	0		0	0	TrialList2	target_both.png	0	dl	-999999	4	335482	0	l	153	335635															11	1	56	neut			150
1 ver1_main_procedure	22	1	19	<?xml version="1.0"?>\n<Clock xmlns:dt="urn:schemas-microsoft-com:datatypes"><Description dt:dt="string">E-Prime Primary Realtime Clock</Description><StartTime><Timestamp dt:dt="int">0</Timestamp><DateUtc dt:dt="string">2015-08-13T12:53:52Z</DateUtc></StartTime><FrequencyChanges><FrequencyChange><Frequency dt:dt="r8">2441396</Frequency><Timestamp dt:dt="r8">19122037674</Timestamp><Current dt:dt="r8">0</Current><DateUtc dt:dt="string">2015-08-13T12:53:52Z</DateUtc></FrequencyChange></FrequencyChanges></Clock>\n	1 ver1_main_procedure-22-1	99.925	1.0.0.880	2	cb	1942659924	prawa	1	2.0.10.356	08-13-2015	2015-08-13 12:53:52	14:53:52	mezczyzna	2.0.10.92	3	6	1	1																							d	{SPACE}		no	BlockProc2		BlockList									57	Free	dl	color_yellow.png		0	8	337903	311																			1					75	prime_left.png	0	337613	0	0	13	0	337613	0	337613	1	337613	20	0	-1	336114	337613	337612	0	prime_left.png	TrialProc1	left	0		0	0	0	0		0	0	TrialList2	target_both.png	0	dl	-999999	3	337663	0	l	232	337895															8	1	57	neut			300
1 ver1_main_procedure	22	1	19	<?xml version="1.0"?>\n<Clock xmlns:dt="urn:schemas-microsoft-com:datatypes"><Description dt:dt="string">E-Prime Primary Realtime Clock</Description><StartTime><Timestamp dt:dt="int">0</Timestamp><DateUtc dt:dt="string">2015-08-13T12:53:52Z</DateUtc></StartTime><FrequencyChanges><FrequencyChange><Frequency dt:dt="r8">2441396</Frequency><Timestamp dt:dt="r8">19122037674</Timestamp><Current dt:dt="r8">0</Current><DateUtc dt:dt="string">2015-08-13T12:53:52Z</DateUtc></FrequencyChange></FrequencyChanges></Clock>\n	1 ver1_main_procedure-22-1	99.925	1.0.0.880	2	cb	1942659924	prawa	1	2.0.10.356	08-13-2015	2015-08-13 12:53:52	14:53:52	mezczyzna	2.0.10.92	3	6	1	1																							d	{SPACE}		no	BlockProc2		BlockList									58	Free	dl	color_orange.png		0	6	340315	310																								75	prime_left.png	0	340025	0	0	13	0	340025	0	340025	1	340025	20	0	-1	338526	340025	340024	0		TrialProc1	left	0		0	0	0	0		0	0	TrialList2	target_both.png	0	dl	-999999	3	340075	0	l	234	340309															7	1	58	comp			300
1 ver1_main_procedure	22	1	19	<?xml version="1.0"?>\n<Clock xmlns:dt="urn:schemas-microsoft-com:datatypes"><Description dt:dt="string">E-Prime Primary Realtime Clock</Description><StartTime><Timestamp dt:dt="int">0</Timestamp><DateUtc dt:dt="string">2015-08-13T12:53:52Z</DateUtc></StartTime><FrequencyChanges><FrequencyChange><Frequency dt:dt="r8">2441396</Frequency><Timestamp dt:dt="r8">19122037674</Timestamp><Current dt:dt="r8">0</Current><DateUtc dt:dt="string">2015-08-13T12:53:52Z</DateUtc></FrequencyChange></FrequencyChanges></Clock>\n	1 ver1_main_procedure-22-1	99.925	1.0.0.880	2	cb	1942659924	prawa	1	2.0.10.356	08-13-2015	2015-08-13 12:53:52	14:53:52	mezczyzna	2.0.10.92	3	6	1	1																							d	{SPACE}		no	BlockProc2		BlockList									59	Cued	l			0	9	342677	460																			2					25	prime_right.png	0	342437	0	0	13	0	342437	0	342437	1	342437	20	0	-1	340938	342437	342436	0	prime_right.png	TrialProc1	right	0		0	0	0	0		0	0	TrialList2	target_right.png	0	l	-999999	3	342487	0	d	181	342668															5	1	59	neut			450
1 ver1_main_procedure	22	1	19	<?xml version="1.0"?>\n<Clock xmlns:dt="urn:schemas-microsoft-com:datatypes"><Description dt:dt="string">E-Prime Primary Realtime Clock</Description><StartTime><Timestamp dt:dt="int">0</Timestamp><DateUtc dt:dt="string">2015-08-13T12:53:52Z</DateUtc></StartTime><FrequencyChanges><FrequencyChange><Frequency dt:dt="r8">2441396</Frequency><Timestamp dt:dt="r8">19122037674</Timestamp><Current dt:dt="r8">0</Current><DateUtc dt:dt="string">2015-08-13T12:53:52Z</DateUtc></FrequencyChange></FrequencyChanges></Clock>\n	1 ver1_main_procedure-22-1	99.925	1.0.0.880	2	cb	1942659924	prawa	1	2.0.10.356	08-13-2015	2015-08-13 12:53:52	14:53:52	mezczyzna	2.0.10.92	3	6	1	1																							d	{SPACE}		no	BlockProc2		BlockList									60	Free	dl	color_blue.png		0	5	345249	460																								75	prime_left.png	0	344949	0	0	13	0	344949	0	344949	1	344949	20	0	-1	343450	344949	344948	0		TrialProc1	right	0		0	0	0	0		0	0	TrialList2	target_both.png	0	dl	-999999	3	344999	0	d	245	345244															12	1	60	incomp			450
1 ver1_main_procedure	22	1	19	<?xml version="1.0"?>\n<Clock xmlns:dt="urn:schemas-microsoft-com:datatypes"><Description dt:dt="string">E-Prime Primary Realtime Clock</Description><StartTime><Timestamp dt:dt="int">0</Timestamp><DateUtc dt:dt="string">2015-08-13T12:53:52Z</DateUtc></StartTime><FrequencyChanges><FrequencyChange><Frequency dt:dt="r8">2441396</Frequency><Timestamp dt:dt="r8">19122037674</Timestamp><Current dt:dt="r8">0</Current><DateUtc dt:dt="string">2015-08-13T12:53:52Z</DateUtc></FrequencyChange></FrequencyChanges></Clock>\n	1 ver1_main_procedure-22-1	99.925	1.0.0.880	2	cb	1942659924	prawa	1	2.0.10.356	08-13-2015	2015-08-13 12:53:52	14:53:52	mezczyzna	2.0.10.92	3	6	1	1																							d	{SPACE}		no	BlockProc2		BlockList									61	Free	dl	color_purple.png		0	7	347841	160																								75	prime_right.png	0	347521	0	0	13	0	347521	0	347521	2	347521	20	0	-1	346022	347521	347519	0		TrialProc1	left	0		0	10	347831	-347831		0	0	TrialList2	target_both.png	0	dl	0	3	347571	260	l	263	347834															9	1	61	incomp			150
1 ver1_main_procedure	22	1	19	<?xml version="1.0"?>\n<Clock xmlns:dt="urn:schemas-microsoft-com:datatypes"><Description dt:dt="string">E-Prime Primary Realtime Clock</Description><StartTime><Timestamp dt:dt="int">0</Timestamp><DateUtc dt:dt="string">2015-08-13T12:53:52Z</DateUtc></StartTime><FrequencyChanges><FrequencyChange><Frequency dt:dt="r8">2441396</Frequency><Timestamp dt:dt="r8">19122037674</Timestamp><Current dt:dt="r8">0</Current><DateUtc dt:dt="string">2015-08-13T12:53:52Z</DateUtc></FrequencyChange></FrequencyChanges></Clock>\n	1 ver1_main_procedure-22-1	99.925	1.0.0.880	2	cb	1942659924	prawa	1	2.0.10.356	08-13-2015	2015-08-13 12:53:52	14:53:52	mezczyzna	2.0.10.92	3	6	1	1																							d	{SPACE}		no	BlockProc2		BlockList									62	Free	dl	color_orange.png		0	5	350183	160																								75	prime_left.png	0	349812	0	0	13	0	349812	0	349812	1	349812	20	0	-1	348313	349812	349811	0		TrialProc1	right	0		1	10	350122	-350122		0	0	TrialList2	target_both.png	0	dl	0	3	349862	260	l	316	350178															12	1	62	incomp			150
1 ver1_main_procedure	22	1	19	<?xml version="1.0"?>\n<Clock xmlns:dt="urn:schemas-microsoft-com:datatypes"><Description dt:dt="string">E-Prime Primary Realtime Clock</Description><StartTime><Timestamp dt:dt="int">0</Timestamp><DateUtc dt:dt="string">2015-08-13T12:53:52Z</DateUtc></StartTime><FrequencyChanges><FrequencyChange><Frequency dt:dt="r8">2441396</Frequency><Timestamp dt:dt="r8">19122037674</Timestamp><Current dt:dt="r8">0</Current><DateUtc dt:dt="string">2015-08-13T12:53:52Z</DateUtc></FrequencyChange></FrequencyChanges></Clock>\n	1 ver1_main_procedure-22-1	99.925	1.0.0.880	2	cb	1942659924	prawa	1	2.0.10.356	08-13-2015	2015-08-13 12:53:52	14:53:52	mezczyzna	2.0.10.92	3	6	1	1																							d	{SPACE}		no	BlockProc2		BlockList									63	Cued	l			0	10	352474	160																			1					25	prime_left.png	0	352154	0	0	13	0	352154	0	352154	1	352154	20	0	-1	350655	352154	352153	0	prime_left.png	TrialProc1	right	0		-999999	10	352464	0		0	0	TrialList2	target_right.png	0	l	0	3	352204	0	d	254	352458															5	1	63	neut			150
1 ver1_main_procedure	22	1	19	<?xml version="1.0"?>\n<Clock xmlns:dt="urn:schemas-microsoft-com:datatypes"><Description dt:dt="string">E-Prime Primary Realtime Clock</Description><StartTime><Timestamp dt:dt="int">0</Timestamp><DateUtc dt:dt="string">2015-08-13T12:53:52Z</DateUtc></StartTime><FrequencyChanges><FrequencyChange><Frequency dt:dt="r8">2441396</Frequency><Timestamp dt:dt="r8">19122037674</Timestamp><Current dt:dt="r8">0</Current><DateUtc dt:dt="string">2015-08-13T12:53:52Z</DateUtc></FrequencyChange></FrequencyChanges></Clock>\n	1 ver1_main_procedure-22-1	99.925	1.0.0.880	2	cb	1942659924	prawa	1	2.0.10.356	08-13-2015	2015-08-13 12:53:52	14:53:52	mezczyzna	2.0.10.92	3	6	1	1																							d	{SPACE}		no	BlockProc2		BlockList									64	Free	dl	color_purple.png		0	6	354726	160																								75	prime_right.png	0	354446	0	0	13	0	354446	0	354446	1	354446	20	0	-1	352947	354446	354445	0		TrialProc1	right	0		0	0	0	0		0	0	TrialList2	target_both.png	0	dl	-999999	3	354496	0	l	224	354720															10	1	64	comp			150
1 ver1_main_procedure	22	1	19	<?xml version="1.0"?>\n<Clock xmlns:dt="urn:schemas-microsoft-com:datatypes"><Description dt:dt="string">E-Prime Primary Realtime Clock</Description><StartTime><Timestamp dt:dt="int">0</Timestamp><DateUtc dt:dt="string">2015-08-13T12:53:52Z</DateUtc></StartTime><FrequencyChanges><FrequencyChange><Frequency dt:dt="r8">2441396</Frequency><Timestamp dt:dt="r8">19122037674</Timestamp><Current dt:dt="r8">0</Current><DateUtc dt:dt="string">2015-08-13T12:53:52Z</DateUtc></FrequencyChange></FrequencyChanges></Clock>\n	1 ver1_main_procedure-22-1	99.925	1.0.0.880	2	cb	1942659924	prawa	1	2.0.10.356	08-13-2015	2015-08-13 12:53:52	14:53:52	mezczyzna	2.0.10.92	3	6	1	1																							d	{SPACE}		no	BlockProc2		BlockList									65	Cued	l	color_orange.png		0	10	356968	460																								75	prime_left.png	1	356698	0	0	13	1	356698	1	356698	1	356697	20	0	-1	355199	356697	356696	0		TrialProc1	right	0		0	0	0	0		0	0	TrialList2	target_right.png	1	l	-999999	3	356747	0	l	211	356958															6	1	65	incomp			450
1 ver1_main_procedure	22	1	19	<?xml version="1.0"?>\n<Clock xmlns:dt="urn:schemas-microsoft-com:datatypes"><Description dt:dt="string">E-Prime Primary Realtime Clock</Description><StartTime><Timestamp dt:dt="int">0</Timestamp><DateUtc dt:dt="string">2015-08-13T12:53:52Z</DateUtc></StartTime><FrequencyChanges><FrequencyChange><Frequency dt:dt="r8">2441396</Frequency><Timestamp dt:dt="r8">19122037674</Timestamp><Current dt:dt="r8">0</Current><DateUtc dt:dt="string">2015-08-13T12:53:52Z</DateUtc></FrequencyChange></FrequencyChanges></Clock>\n	1 ver1_main_procedure-22-1	99.925	1.0.0.880	2	cb	1942659924	prawa	1	2.0.10.356	08-13-2015	2015-08-13 12:53:52	14:53:52	mezczyzna	2.0.10.92	3	6	1	1																							d	{SPACE}		no	BlockProc2		BlockList									66	Free	dl	color_yellow.png		0	9	359520	310																			2					75	prime_right.png	0	359239	0	0	13	0	359239	0	359239	1	359239	20	0	-1	357741	359239	359238	0	prime_right.png	TrialProc1	right	0		0	0	0	0		0	0	TrialList2	target_both.png	0	dl	-999999	3	359289	0	l	222	359511															11	1	66	neut			300
1 ver1_main_procedure	22	1	19	<?xml version="1.0"?>\n<Clock xmlns:dt="urn:schemas-microsoft-com:datatypes"><Description dt:dt="string">E-Prime Primary Realtime Clock</Description><StartTime><Timestamp dt:dt="int">0</Timestamp><DateUtc dt:dt="string">2015-08-13T12:53:52Z</DateUtc></StartTime><FrequencyChanges><FrequencyChange><Frequency dt:dt="r8">2441396</Frequency><Timestamp dt:dt="r8">19122037674</Timestamp><Current dt:dt="r8">0</Current><DateUtc dt:dt="string">2015-08-13T12:53:52Z</DateUtc></FrequencyChange></FrequencyChanges></Clock>\n	1 ver1_main_procedure-22-1	99.925	1.0.0.880	2	cb	1942659924	prawa	1	2.0.10.356	08-13-2015	2015-08-13 12:53:52	14:53:52	mezczyzna	2.0.10.92	3	6	1	1																							d	{SPACE}		no	BlockProc2		BlockList									67	Free	dl	color_purple.png		0	10	361941	461																								75	prime_right.png	0	361641	0	0	13	0	361641	0	361641	1	361641	20	0	-1	360142	361641	361640	0		TrialProc1	right	0		0	0	0	0		0	0	TrialList2	target_both.png	0	dl	-999999	3	361691	0	l	240	361931															10	1	67	comp			450
1 ver1_main_procedure	22	1	19	<?xml version="1.0"?>\n<Clock xmlns:dt="urn:schemas-microsoft-com:datatypes"><Description dt:dt="string">E-Prime Primary Realtime Clock</Description><StartTime><Timestamp dt:dt="int">0</Timestamp><DateUtc dt:dt="string">2015-08-13T12:53:52Z</DateUtc></StartTime><FrequencyChanges><FrequencyChange><Frequency dt:dt="r8">2441396</Frequency><Timestamp dt:dt="r8">19122037674</Timestamp><Current dt:dt="r8">0</Current><DateUtc dt:dt="string">2015-08-13T12:53:52Z</DateUtc></FrequencyChange></FrequencyChanges></Clock>\n	1 ver1_main_procedure-22-1	99.925	1.0.0.880	2	cb	1942659924	prawa	1	2.0.10.356	08-13-2015	2015-08-13 12:53:52	14:53:52	mezczyzna	2.0.10.92	3	6	1	1																							d	{SPACE}		no	BlockProc2		BlockList									68	Free	dl	color_green.png		0	10	364493	160																			1					25	prime_left.png	0	364213	0	0	13	0	364213	0	364213	1	364213	20	0	-1	362714	364213	364212	0	prime_left.png	TrialProc1	left	0		0	0	0	0		0	0	TrialList2	target_both.png	0	dl	-999999	3	364263	0	d	219	364482															8	1	68	neut			150
1 ver1_main_procedure	22	1	19	<?xml version="1.0"?>\n<Clock xmlns:dt="urn:schemas-microsoft-com:datatypes"><Description dt:dt="string">E-Prime Primary Realtime Clock</Description><StartTime><Timestamp dt:dt="int">0</Timestamp><DateUtc dt:dt="string">2015-08-13T12:53:52Z</DateUtc></StartTime><FrequencyChanges><FrequencyChange><Frequency dt:dt="r8">2441396</Frequency><Timestamp dt:dt="r8">19122037674</Timestamp><Current dt:dt="r8">0</Current><DateUtc dt:dt="string">2015-08-13T12:53:52Z</DateUtc></FrequencyChange></FrequencyChanges></Clock>\n	1 ver1_main_procedure-22-1	99.925	1.0.0.880	2	cb	1942659924	prawa	1	2.0.10.356	08-13-2015	2015-08-13 12:53:52	14:53:52	mezczyzna	2.0.10.92	3	6	1	1																							d	{SPACE}		no	BlockProc2		BlockList									69	Free	dl	color_yellow.png		0	12	366795	310																			2					25	prime_right.png	0	366465	0	0	13	0	366465	0	366465	1	366465	20	0	-1	364966	366465	366464	0	prime_right.png	TrialProc1	left	0		0	10	366775	-366775		0	0	TrialList2	target_both.png	0	dl	0	3	366515	260	l	268	366783															8	1	69	neut			300
1 ver1_main_procedure	22	1	19	<?xml version="1.0"?>\n<Clock xmlns:dt="urn:schemas-microsoft-com:datatypes"><Description dt:dt="string">E-Prime Primary Realtime Clock</Description><StartTime><Timestamp dt:dt="int">0</Timestamp><DateUtc dt:dt="string">2015-08-13T12:53:52Z</DateUtc></StartTime><FrequencyChanges><FrequencyChange><Frequency dt:dt="r8">2441396</Frequency><Timestamp dt:dt="r8">19122037674</Timestamp><Current dt:dt="r8">0</Current><DateUtc dt:dt="string">2015-08-13T12:53:52Z</DateUtc></FrequencyChange></FrequencyChanges></Clock>\n	1 ver1_main_procedure-22-1	99.925	1.0.0.880	2	cb	1942659924	prawa	1	2.0.10.356	08-13-2015	2015-08-13 12:53:52	14:53:52	mezczyzna	2.0.10.92	3	6	1	1																							d	{SPACE}		no	BlockProc2		BlockList									70	Cued	d	color_green.png		0	13	369147	160																			1					75	prime_left.png	0	368917	0	0	13	0	368917	0	368917	1	368917	20	0	-1	367418	368917	368916	0	prime_left.png	TrialProc1	left	0		0	0	0	0		0	0	TrialList2	target_left.png	1	d	-999999	3	368967	0	d	167	369134															2	1	70	neut			150
1 ver1_main_procedure	22	1	19	<?xml version="1.0"?>\n<Clock xmlns:dt="urn:schemas-microsoft-com:datatypes"><Description dt:dt="string">E-Prime Primary Realtime Clock</Description><StartTime><Timestamp dt:dt="int">0</Timestamp><DateUtc dt:dt="string">2015-08-13T12:53:52Z</DateUtc></StartTime><FrequencyChanges><FrequencyChange><Frequency dt:dt="r8">2441396</Frequency><Timestamp dt:dt="r8">19122037674</Timestamp><Current dt:dt="r8">0</Current><DateUtc dt:dt="string">2015-08-13T12:53:52Z</DateUtc></FrequencyChange></FrequencyChanges></Clock>\n	1 ver1_main_procedure-22-1	99.925	1.0.0.880	2	cb	1942659924	prawa	1	2.0.10.356	08-13-2015	2015-08-13 12:53:52	14:53:52	mezczyzna	2.0.10.92	3	6	1	1																							d	{SPACE}		no	BlockProc2		BlockList									71	Free	dl	color_purple.png		0	15	371449	460																								75	prime_right.png	0	371118	0	0	13	0	371119	0	371118	1	371118	20	0	-1	369619	371118	371117	0		TrialProc1	right	0		0	11	371429	-371429		0	0	TrialList2	target_both.png	0	dl	0	3	371168	261	l	266	371434															10	1	71	comp			450
1 ver1_main_procedure	22	1	19	<?xml version="1.0"?>\n<Clock xmlns:dt="urn:schemas-microsoft-com:datatypes"><Description dt:dt="string">E-Prime Primary Realtime Clock</Description><StartTime><Timestamp dt:dt="int">0</Timestamp><DateUtc dt:dt="string">2015-08-13T12:53:52Z</DateUtc></StartTime><FrequencyChanges><FrequencyChange><Frequency dt:dt="r8">2441396</Frequency><Timestamp dt:dt="r8">19122037674</Timestamp><Current dt:dt="r8">0</Current><DateUtc dt:dt="string">2015-08-13T12:53:52Z</DateUtc></FrequencyChange></FrequencyChanges></Clock>\n	1 ver1_main_procedure-22-1	99.925	1.0.0.880	2	cb	1942659924	prawa	1	2.0.10.356	08-13-2015	2015-08-13 12:53:52	14:53:52	mezczyzna	2.0.10.92	3	6	1	1																							d	{SPACE}		no	BlockProc2		BlockList									72	Free	dl	color_purple.png		0	8	373980	461																								25	prime_right.png	0	373720	0	0	13	0	373720	0	373720	1	373720	20	0	-1	372221	373720	373719	0		TrialProc1	left	0		0	0	0	0		0	0	TrialList2	target_both.png	0	dl	-999999	3	373770	0	l	202	373972															9	1	72	incomp			450
1 ver1_main_procedure	22	1	19	<?xml version="1.0"?>\n<Clock xmlns:dt="urn:schemas-microsoft-com:datatypes"><Description dt:dt="string">E-Prime Primary Realtime Clock</Description><StartTime><Timestamp dt:dt="int">0</Timestamp><DateUtc dt:dt="string">2015-08-13T12:53:52Z</DateUtc></StartTime><FrequencyChanges><FrequencyChange><Frequency dt:dt="r8">2441396</Frequency><Timestamp dt:dt="r8">19122037674</Timestamp><Current dt:dt="r8">0</Current><DateUtc dt:dt="string">2015-08-13T12:53:52Z</DateUtc></FrequencyChange></FrequencyChanges></Clock>\n	1 ver1_main_procedure-22-1	99.925	1.0.0.880	2	cb	1942659924	prawa	1	2.0.10.356	08-13-2015	2015-08-13 12:53:52	14:53:52	mezczyzna	2.0.10.92	3	6	1	1																							d	{SPACE}		no	BlockProc2		BlockList									73									3	4	6	1	2	5	color_red.png	color_yellow.png	color_orange.png	color_purple.png	color_green.png	color_blue.png	color_purple.png	color_green.png	color_red.png	color_yellow.png	color_blue.png	color_orange.png		1	1	1	23410																						DragProc											Ocena																															
1 ver1_main_procedure	22	1	19	<?xml version="1.0"?>\n<Clock xmlns:dt="urn:schemas-microsoft-com:datatypes"><Description dt:dt="string">E-Prime Primary Realtime Clock</Description><StartTime><Timestamp dt:dt="int">0</Timestamp><DateUtc dt:dt="string">2015-08-13T12:53:52Z</DateUtc></StartTime><FrequencyChanges><FrequencyChange><Frequency dt:dt="r8">2441396</Frequency><Timestamp dt:dt="r8">19122037674</Timestamp><Current dt:dt="r8">0</Current><DateUtc dt:dt="string">2015-08-13T12:53:52Z</DateUtc></FrequencyChange></FrequencyChanges></Clock>\n	1 ver1_main_procedure-22-1	99.925	1.0.0.880	2	cb	1942659924	prawa	1	2.0.10.356	08-13-2015	2015-08-13 12:53:52	14:53:52	mezczyzna	2.0.10.92	3	6	1	1																							d	{SPACE}		no	BlockProc2		BlockList									74															color_red.png	color_yellow.png	color_orange.png	color_purple.png	color_green.png	color_blue.png								2	1	2																							EnterProc											Ocena												10	25	35	55	76	98														
1 ver1_main_procedure	22	1	19	<?xml version="1.0"?>\n<Clock xmlns:dt="urn:schemas-microsoft-com:datatypes"><Description dt:dt="string">E-Prime Primary Realtime Clock</Description><StartTime><Timestamp dt:dt="int">0</Timestamp><DateUtc dt:dt="string">2015-08-13T12:53:52Z</DateUtc></StartTime><FrequencyChanges><FrequencyChange><Frequency dt:dt="r8">2441396</Frequency><Timestamp dt:dt="r8">19122037674</Timestamp><Current dt:dt="r8">0</Current><DateUtc dt:dt="string">2015-08-13T12:53:52Z</DateUtc></FrequencyChange></FrequencyChanges></Clock>\n	1 ver1_main_procedure-22-1	99.925	1.0.0.880	2	cb	1942659924	prawa	1	2.0.10.356	08-13-2015	2015-08-13 12:53:52	14:53:52	mezczyzna	2.0.10.92	4	3	1	2																							d	{SPACE}		no	BlockProc1		BlockList									1	Free	dl	color_orange.png		0	9	472554	311																								25	prime_right.png	0	472174	0	0	13	0	472174	0	472174	1	472174	20	0	-1	470675	472174	472173	0		TrialProc1	left	0		1	10	472484	-472484		0	0	TrialList1	target_both.png	0	dl	0	3	472224	260	l	321	472545												9	1	1				incomp			300
1 ver1_main_procedure	22	1	19	<?xml version="1.0"?>\n<Clock xmlns:dt="urn:schemas-microsoft-com:datatypes"><Description dt:dt="string">E-Prime Primary Realtime Clock</Description><StartTime><Timestamp dt:dt="int">0</Timestamp><DateUtc dt:dt="string">2015-08-13T12:53:52Z</DateUtc></StartTime><FrequencyChanges><FrequencyChange><Frequency dt:dt="r8">2441396</Frequency><Timestamp dt:dt="r8">19122037674</Timestamp><Current dt:dt="r8">0</Current><DateUtc dt:dt="string">2015-08-13T12:53:52Z</DateUtc></FrequencyChange></FrequencyChanges></Clock>\n	1 ver1_main_procedure-22-1	99.925	1.0.0.880	2	cb	1942659924	prawa	1	2.0.10.356	08-13-2015	2015-08-13 12:53:52	14:53:52	mezczyzna	2.0.10.92	4	3	1	2																							d	{SPACE}		no	BlockProc1		BlockList									2	Cued	d			0	7	474966	310																								75	prime_right.png	0	474676	0	0	13	0	474676	0	474676	1	474676	20	0	-1	473177	474676	474675	0		TrialProc1	left	0		0	0	0	0		0	0	TrialList1	target_left.png	0	d	-999999	3	474726	0	l	233	474959												3	1	2				incomp			300
1 ver1_main_procedure	22	1	19	<?xml version="1.0"?>\n<Clock xmlns:dt="urn:schemas-microsoft-com:datatypes"><Description dt:dt="string">E-Prime Primary Realtime Clock</Description><StartTime><Timestamp dt:dt="int">0</Timestamp><DateUtc dt:dt="string">2015-08-13T12:53:52Z</DateUtc></StartTime><FrequencyChanges><FrequencyChange><Frequency dt:dt="r8">2441396</Frequency><Timestamp dt:dt="r8">19122037674</Timestamp><Current dt:dt="r8">0</Current><DateUtc dt:dt="string">2015-08-13T12:53:52Z</DateUtc></FrequencyChange></FrequencyChanges></Clock>\n	1 ver1_main_procedure-22-1	99.925	1.0.0.880	2	cb	1942659924	prawa	1	2.0.10.356	08-13-2015	2015-08-13 12:53:52	14:53:52	mezczyzna	2.0.10.92	4	3	1	2																							d	{SPACE}		no	BlockProc1		BlockList									3	Free	dl	color_blue.png		0	14	477368	160																								75	prime_right.png	0	477088	0	0	13	0	477088	0	477088	1	477088	20	0	-1	475589	477088	477087	0		TrialProc1	left	0		0	0	0	0		0	0	TrialList1	target_both.png	0	dl	-999999	3	477138	0	d	216	477354												9	1	3				incomp			150
1 ver1_main_procedure	22	1	19	<?xml version="1.0"?>\n<Clock xmlns:dt="urn:schemas-microsoft-com:datatypes"><Description dt:dt="string">E-Prime Primary Realtime Clock</Description><StartTime><Timestamp dt:dt="int">0</Timestamp><DateUtc dt:dt="string">2015-08-13T12:53:52Z</DateUtc></StartTime><FrequencyChanges><FrequencyChange><Frequency dt:dt="r8">2441396</Frequency><Timestamp dt:dt="r8">19122037674</Timestamp><Current dt:dt="r8">0</Current><DateUtc dt:dt="string">2015-08-13T12:53:52Z</DateUtc></FrequencyChange></FrequencyChanges></Clock>\n	1 ver1_main_procedure-22-1	99.925	1.0.0.880	2	cb	1942659924	prawa	1	2.0.10.356	08-13-2015	2015-08-13 12:53:52	14:53:52	mezczyzna	2.0.10.92	4	3	1	2																							d	{SPACE}		no	BlockProc1		BlockList									4	Cued	l	color_orange.png		0	12	479620	310																								75	prime_right.png	0	479340	0	0	13	0	479340	0	479340	2	479340	20	0	-1	477841	479340	479338	0		TrialProc1	right	0		0	0	0	0		0	0	TrialList1	target_right.png	1	l	-999999	3	479390	0	l	218	479608												4	1	4				comp			300
1 ver1_main_procedure	22	1	19	<?xml version="1.0"?>\n<Clock xmlns:dt="urn:schemas-microsoft-com:datatypes"><Description dt:dt="string">E-Prime Primary Realtime Clock</Description><StartTime><Timestamp dt:dt="int">0</Timestamp><DateUtc dt:dt="string">2015-08-13T12:53:52Z</DateUtc></StartTime><FrequencyChanges><FrequencyChange><Frequency dt:dt="r8">2441396</Frequency><Timestamp dt:dt="r8">19122037674</Timestamp><Current dt:dt="r8">0</Current><DateUtc dt:dt="string">2015-08-13T12:53:52Z</DateUtc></FrequencyChange></FrequencyChanges></Clock>\n	1 ver1_main_procedure-22-1	99.925	1.0.0.880	2	cb	1942659924	prawa	1	2.0.10.356	08-13-2015	2015-08-13 12:53:52	14:53:52	mezczyzna	2.0.10.92	4	3	1	2																							d	{SPACE}		no	BlockProc1		BlockList									5	Cued	l			0	14	482022	310																								25	prime_left.png	0	481741	0	0	13	0	481741	0	481741	1	481741	20	0	-1	480242	481741	481740	0		TrialProc1	right	0		0	0	0	0		0	0	TrialList1	target_right.png	0	l	-999999	3	481791	0	d	217	482008												6	1	5				incomp			300
1 ver1_main_procedure	22	1	19	<?xml version="1.0"?>\n<Clock xmlns:dt="urn:schemas-microsoft-com:datatypes"><Description dt:dt="string">E-Prime Primary Realtime Clock</Description><StartTime><Timestamp dt:dt="int">0</Timestamp><DateUtc dt:dt="string">2015-08-13T12:53:52Z</DateUtc></StartTime><FrequencyChanges><FrequencyChange><Frequency dt:dt="r8">2441396</Frequency><Timestamp dt:dt="r8">19122037674</Timestamp><Current dt:dt="r8">0</Current><DateUtc dt:dt="string">2015-08-13T12:53:52Z</DateUtc></FrequencyChange></FrequencyChanges></Clock>\n	1 ver1_main_procedure-22-1	99.925	1.0.0.880	2	cb	1942659924	prawa	1	2.0.10.356	08-13-2015	2015-08-13 12:53:52	14:53:52	mezczyzna	2.0.10.92	4	3	1	2																							d	{SPACE}		no	BlockProc1		BlockList									6	Cued	d	color_purple.png		0	9	484463	161																			2					25	prime_right.png	0	484143	0	0	13	0	484143	0	484143	1	484143	20	0	-1	482644	484143	484142	0	prime_right.png	TrialProc1	left	0		-999999	10	484453	0		0	0	TrialList1	target_left.png	1	d	0	3	484193	0	d	257	484450												2	1	6				neut			150
1 ver1_main_procedure	22	1	19	<?xml version="1.0"?>\n<Clock xmlns:dt="urn:schemas-microsoft-com:datatypes"><Description dt:dt="string">E-Prime Primary Realtime Clock</Description><StartTime><Timestamp dt:dt="int">0</Timestamp><DateUtc dt:dt="string">2015-08-13T12:53:52Z</DateUtc></StartTime><FrequencyChanges><FrequencyChange><Frequency dt:dt="r8">2441396</Frequency><Timestamp dt:dt="r8">19122037674</Timestamp><Current dt:dt="r8">0</Current><DateUtc dt:dt="string">2015-08-13T12:53:52Z</DateUtc></FrequencyChange></FrequencyChanges></Clock>\n	1 ver1_main_procedure-22-1	99.925	1.0.0.880	2	cb	1942659924	prawa	1	2.0.10.356	08-13-2015	2015-08-13 12:53:52	14:53:52	mezczyzna	2.0.10.92	4	3	1	2																							d	{SPACE}		no	BlockProc1		BlockList									7	Cued	l	color_red.png		0	13	486685	160																			1					75	prime_left.png	0	486435	0	0	13	0	486435	0	486435	1	486435	20	0	-1	484936	486435	486434	0	prime_left.png	TrialProc1	right	0		0	0	0	0		0	0	TrialList1	target_right.png	1	l	-999999	3	486485	0	l	187	486672												5	1	7				neut			150
1 ver1_main_procedure	22	1	19	<?xml version="1.0"?>\n<Clock xmlns:dt="urn:schemas-microsoft-com:datatypes"><Description dt:dt="string">E-Prime Primary Realtime Clock</Description><StartTime><Timestamp dt:dt="int">0</Timestamp><DateUtc dt:dt="string">2015-08-13T12:53:52Z</DateUtc></StartTime><FrequencyChanges><FrequencyChange><Frequency dt:dt="r8">2441396</Frequency><Timestamp dt:dt="r8">19122037674</Timestamp><Current dt:dt="r8">0</Current><DateUtc dt:dt="string">2015-08-13T12:53:52Z</DateUtc></FrequencyChange></FrequencyChanges></Clock>\n	1 ver1_main_procedure-22-1	99.925	1.0.0.880	2	cb	1942659924	prawa	1	2.0.10.356	08-13-2015	2015-08-13 12:53:52	14:53:52	mezczyzna	2.0.10.92	4	3	1	2																							d	{SPACE}		no	BlockProc1		BlockList									8	Cued	l			0	9	488917	310																			2					25	prime_right.png	0	488657	0	0	13	0	488657	0	488657	2	488657	20	0	-1	487158	488657	488655	0	prime_right.png	TrialProc1	right	0		0	0	0	0		0	0	TrialList1	target_right.png	0	l	-999999	3	488707	0	d	201	488908												5	1	8				neut			300
1 ver1_main_procedure	22	1	19	<?xml version="1.0"?>\n<Clock xmlns:dt="urn:schemas-microsoft-com:datatypes"><Description dt:dt="string">E-Prime Primary Realtime Clock</Description><StartTime><Timestamp dt:dt="int">0</Timestamp><DateUtc dt:dt="string">2015-08-13T12:53:52Z</DateUtc></StartTime><FrequencyChanges><FrequencyChange><Frequency dt:dt="r8">2441396</Frequency><Timestamp dt:dt="r8">19122037674</Timestamp><Current dt:dt="r8">0</Current><DateUtc dt:dt="string">2015-08-13T12:53:52Z</DateUtc></FrequencyChange></FrequencyChanges></Clock>\n	1 ver1_main_procedure-22-1	99.925	1.0.0.880	2	cb	1942659924	prawa	1	2.0.10.356	08-13-2015	2015-08-13 12:53:52	14:53:52	mezczyzna	2.0.10.92	4	3	1	2																							d	{SPACE}		no	BlockProc1		BlockList									9	Free	dl	color_orange.png		0	8	491278	311																								25	prime_right.png	0	491038	0	0	13	0	491038	0	491038	1	491038	20	0	-1	489539	491038	491037	0		TrialProc1	left	0		0	0	0	0		0	0	TrialList1	target_both.png	0	dl	-999999	3	491088	0	l	181	491269												9	1	9				incomp			300
1 ver1_main_procedure	22	1	19	<?xml version="1.0"?>\n<Clock xmlns:dt="urn:schemas-microsoft-com:datatypes"><Description dt:dt="string">E-Prime Primary Realtime Clock</Description><StartTime><Timestamp dt:dt="int">0</Timestamp><DateUtc dt:dt="string">2015-08-13T12:53:52Z</DateUtc></StartTime><FrequencyChanges><FrequencyChange><Frequency dt:dt="r8">2441396</Frequency><Timestamp dt:dt="r8">19122037674</Timestamp><Current dt:dt="r8">0</Current><DateUtc dt:dt="string">2015-08-13T12:53:52Z</DateUtc></FrequencyChange></FrequencyChanges></Clock>\n	1 ver1_main_procedure-22-1	99.925	1.0.0.880	2	cb	1942659924	prawa	1	2.0.10.356	08-13-2015	2015-08-13 12:53:52	14:53:52	mezczyzna	2.0.10.92	4	3	1	2																							d	{SPACE}		no	BlockProc1		BlockList									10	Cued	l			0	9	493720	160																			1					75	prime_left.png	0	493400	0	0	13	0	493400	0	493400	1	493400	20	0	-1	491901	493400	493399	0	prime_left.png	TrialProc1	right	0		0	10	493710	-493710		0	0	TrialList1	target_right.png	0	l	0	3	493450	260	d	261	493711												5	1	10				neut			150
