ExperimentName	Subject	Session	Age	Clock.Information	DataFile.Basename	Display.RefreshRate	ExperimentVersion	Group	Name	RandomSeed	Recznosc	ResearcherID	RuntimeVersion	SessionDate	SessionStartDateTimeUtc	SessionTime	Sex	StudioVersion	Block	BlockList	BlockList.Cycle	BlockList.Sample	BlockNumber	GoodBye.RESP	GoodBye2.RESP	GoodByeList	GoodByeList.Cycle	GoodByeList.Sample	InstrList	InstrList.Cycle	InstrList.Sample	Instructions3.RESP	Instructions4.RESP	Instructions5.RESP	kobieta_S1	kobieta_S2	kobieta_S3	kobieta_S4	kobieta_S5	mezczyzna_S1	mezczyzna_S2	mezczyzna_S3	mezczyzna_S4	mezczyzna_S5	NextBlock.RESP	NextBlock0.RESP	planowanie	PracticeMode	Procedure[Block]	proszenie	Running[Block]	TrainingList	TrainingList.Cycle	TrainingList.Sample	WordList	WordList1	wykonanie	zauwazenie	zrozumienie	Trial	ChoiceType	CorrectRespon	Effect	ErrorText	Fixation2.DurationError	Fixation2.OnsetDelay	Fixation2.OnsetTime	Fixation2.OnsetToOnsetTime	GoalRespInd1	GoalRespInd2	GoalRespInd3	GoalRespInd4	GoalRespInd5	GoalRespInd6	GoalRespName1	GoalRespName2	GoalRespName3	GoalRespName4	GoalRespName5	GoalRespName6	kol1	kol2	kol3	kol4	kol5	kol6	NeutralPrimeList1	Ocena	Ocena.Cycle	Ocena.Sample	OverallRT	Posit	Prime	Prime.ActionDelay	Prime.ActionTime	Prime.CustomOffsetTime	Prime.CustomOnsetTime	Prime.Duration	Prime.DurationError	Prime.FinishTime	Prime.OffsetDelay	Prime.OffsetTime	Prime.OnsetDelay	Prime.OnsetTime	Prime.OnsetToOnsetTime	Prime.PendingInputMasks	Prime.PreRelease	Prime.StartTime	Prime.TargetOffsetTime	Prime.TargetOnsetTime	Prime.TimingMode	PrimeChoice	Procedure[Trial]	Resp	RespWin.ACC	RespWin.CRESP	RespWin.DurationError	RespWin.OnsetDelay	RespWin.OnsetTime	RespWin.OnsetToOnsetTime	RespWin.RESP	RespWin.RT	RespWin.RTTime	Running[Trial]	Target	TargetSlide.ACC	TargetSlide.CRESP	TargetSlide.DurationError	TargetSlide.OnsetDelay	TargetSlide.OnsetTime	TargetSlide.OnsetToOnsetTime	TargetSlide.RESP	TargetSlide.RT	TargetSlide.RTTime	TargetTraining	TBox1	TBox2	TBox3	TBox4	TBox5	TBox6	TrainingList1	TrainingList1.Cycle	TrainingList1.Sample	TrCorrectResp	TrialList1	TrialList1.Cycle	TrialList1.Sample	TrialList2	TrialList2.Cycle	TrialList2.Sample	TrialType	TrPosit	TrWaitTime	WaitTime
1 ver1_main_procedure	25	1	21	<?xml version="1.0"?>\n<Clock xmlns:dt="urn:schemas-microsoft-com:datatypes"><Description dt:dt="string">E-Prime Primary Realtime Clock</Description><StartTime><Timestamp dt:dt="int">0</Timestamp><DateUtc dt:dt="string">2015-08-14T09:12:02Z</DateUtc></StartTime><FrequencyChanges><FrequencyChange><Frequency dt:dt="r8">2612304</Frequency><Timestamp dt:dt="r8">9000000130</Timestamp><Current dt:dt="r8">0</Current><DateUtc dt:dt="string">2015-08-14T09:12:02Z</DateUtc></FrequencyChange></FrequencyChanges></Clock>\n	1 ver1_main_procedure-25-1	99.938	1.0.0.880	1	md	410560569	prawa	1	2.0.10.182	08-14-2015	2015-08-14 09:12:02	11:12:02	mezczyzna	2.0.10.92	1										1	1	1	{SPACE}	{SPACE}	d	poproszona	planowała	zrozumiałaś	wykonała		poproszony	planował	zrozumiałeś	wykonał				planował		InstrProc	poproszony	InstrList				1		wykonał		zrozumiałeś																																																																																																
1 ver1_main_procedure	25	1	21	<?xml version="1.0"?>\n<Clock xmlns:dt="urn:schemas-microsoft-com:datatypes"><Description dt:dt="string">E-Prime Primary Realtime Clock</Description><StartTime><Timestamp dt:dt="int">0</Timestamp><DateUtc dt:dt="string">2015-08-14T09:12:02Z</DateUtc></StartTime><FrequencyChanges><FrequencyChange><Frequency dt:dt="r8">2612304</Frequency><Timestamp dt:dt="r8">9000000130</Timestamp><Current dt:dt="r8">0</Current><DateUtc dt:dt="string">2015-08-14T09:12:02Z</DateUtc></FrequencyChange></FrequencyChanges></Clock>\n	1 ver1_main_procedure-25-1	99.938	1.0.0.880	1	md	410560569	prawa	1	2.0.10.182	08-14-2015	2015-08-14 09:12:02	11:12:02	mezczyzna	2.0.10.92	2																														TrainingProc1		TrainingList	1	1	1						1																																																					TrainProc											TrainingList1											target_both.png							3	1	1	dl								75	300	
1 ver1_main_procedure	25	1	21	<?xml version="1.0"?>\n<Clock xmlns:dt="urn:schemas-microsoft-com:datatypes"><Description dt:dt="string">E-Prime Primary Realtime Clock</Description><StartTime><Timestamp dt:dt="int">0</Timestamp><DateUtc dt:dt="string">2015-08-14T09:12:02Z</DateUtc></StartTime><FrequencyChanges><FrequencyChange><Frequency dt:dt="r8">2612304</Frequency><Timestamp dt:dt="r8">9000000130</Timestamp><Current dt:dt="r8">0</Current><DateUtc dt:dt="string">2015-08-14T09:12:02Z</DateUtc></FrequencyChange></FrequencyChanges></Clock>\n	1 ver1_main_procedure-25-1	99.938	1.0.0.880	1	md	410560569	prawa	1	2.0.10.182	08-14-2015	2015-08-14 09:12:02	11:12:02	mezczyzna	2.0.10.92	2																														TrainingProc1		TrainingList	1	1	1						2																																																					TrainProc											TrainingList1											target_left.png							1	1	2	d								25	450	
1 ver1_main_procedure	25	1	21	<?xml version="1.0"?>\n<Clock xmlns:dt="urn:schemas-microsoft-com:datatypes"><Description dt:dt="string">E-Prime Primary Realtime Clock</Description><StartTime><Timestamp dt:dt="int">0</Timestamp><DateUtc dt:dt="string">2015-08-14T09:12:02Z</DateUtc></StartTime><FrequencyChanges><FrequencyChange><Frequency dt:dt="r8">2612304</Frequency><Timestamp dt:dt="r8">9000000130</Timestamp><Current dt:dt="r8">0</Current><DateUtc dt:dt="string">2015-08-14T09:12:02Z</DateUtc></FrequencyChange></FrequencyChanges></Clock>\n	1 ver1_main_procedure-25-1	99.938	1.0.0.880	1	md	410560569	prawa	1	2.0.10.182	08-14-2015	2015-08-14 09:12:02	11:12:02	mezczyzna	2.0.10.92	2																														TrainingProc1		TrainingList	1	1	1						3																																																					TrainProc											TrainingList1											target_left.png							1	1	3	d								25	150	
1 ver1_main_procedure	25	1	21	<?xml version="1.0"?>\n<Clock xmlns:dt="urn:schemas-microsoft-com:datatypes"><Description dt:dt="string">E-Prime Primary Realtime Clock</Description><StartTime><Timestamp dt:dt="int">0</Timestamp><DateUtc dt:dt="string">2015-08-14T09:12:02Z</DateUtc></StartTime><FrequencyChanges><FrequencyChange><Frequency dt:dt="r8">2612304</Frequency><Timestamp dt:dt="r8">9000000130</Timestamp><Current dt:dt="r8">0</Current><DateUtc dt:dt="string">2015-08-14T09:12:02Z</DateUtc></FrequencyChange></FrequencyChanges></Clock>\n	1 ver1_main_procedure-25-1	99.938	1.0.0.880	1	md	410560569	prawa	1	2.0.10.182	08-14-2015	2015-08-14 09:12:02	11:12:02	mezczyzna	2.0.10.92	2																														TrainingProc1		TrainingList	1	1	1						4																																																					TrainProc											TrainingList1											target_right.png							2	1	4	l								25	150	
1 ver1_main_procedure	25	1	21	<?xml version="1.0"?>\n<Clock xmlns:dt="urn:schemas-microsoft-com:datatypes"><Description dt:dt="string">E-Prime Primary Realtime Clock</Description><StartTime><Timestamp dt:dt="int">0</Timestamp><DateUtc dt:dt="string">2015-08-14T09:12:02Z</DateUtc></StartTime><FrequencyChanges><FrequencyChange><Frequency dt:dt="r8">2612304</Frequency><Timestamp dt:dt="r8">9000000130</Timestamp><Current dt:dt="r8">0</Current><DateUtc dt:dt="string">2015-08-14T09:12:02Z</DateUtc></FrequencyChange></FrequencyChanges></Clock>\n	1 ver1_main_procedure-25-1	99.938	1.0.0.880	1	md	410560569	prawa	1	2.0.10.182	08-14-2015	2015-08-14 09:12:02	11:12:02	mezczyzna	2.0.10.92	2																														TrainingProc1		TrainingList	1	1	1						5																																																					TrainProc											TrainingList1											target_right.png							2	1	5	l								75	150	
1 ver1_main_procedure	25	1	21	<?xml version="1.0"?>\n<Clock xmlns:dt="urn:schemas-microsoft-com:datatypes"><Description dt:dt="string">E-Prime Primary Realtime Clock</Description><StartTime><Timestamp dt:dt="int">0</Timestamp><DateUtc dt:dt="string">2015-08-14T09:12:02Z</DateUtc></StartTime><FrequencyChanges><FrequencyChange><Frequency dt:dt="r8">2612304</Frequency><Timestamp dt:dt="r8">9000000130</Timestamp><Current dt:dt="r8">0</Current><DateUtc dt:dt="string">2015-08-14T09:12:02Z</DateUtc></FrequencyChange></FrequencyChanges></Clock>\n	1 ver1_main_procedure-25-1	99.938	1.0.0.880	1	md	410560569	prawa	1	2.0.10.182	08-14-2015	2015-08-14 09:12:02	11:12:02	mezczyzna	2.0.10.92	2																														TrainingProc1		TrainingList	1	1	1						6																																																					TrainProc											TrainingList1											target_left.png							1	1	6	d								75	150	
1 ver1_main_procedure	25	1	21	<?xml version="1.0"?>\n<Clock xmlns:dt="urn:schemas-microsoft-com:datatypes"><Description dt:dt="string">E-Prime Primary Realtime Clock</Description><StartTime><Timestamp dt:dt="int">0</Timestamp><DateUtc dt:dt="string">2015-08-14T09:12:02Z</DateUtc></StartTime><FrequencyChanges><FrequencyChange><Frequency dt:dt="r8">2612304</Frequency><Timestamp dt:dt="r8">9000000130</Timestamp><Current dt:dt="r8">0</Current><DateUtc dt:dt="string">2015-08-14T09:12:02Z</DateUtc></FrequencyChange></FrequencyChanges></Clock>\n	1 ver1_main_procedure-25-1	99.938	1.0.0.880	1	md	410560569	prawa	1	2.0.10.182	08-14-2015	2015-08-14 09:12:02	11:12:02	mezczyzna	2.0.10.92	2																														TrainingProc1		TrainingList	1	1	1						7																																																					TrainProc											TrainingList1											target_both.png							3	1	7	dl								75	450	
1 ver1_main_procedure	25	1	21	<?xml version="1.0"?>\n<Clock xmlns:dt="urn:schemas-microsoft-com:datatypes"><Description dt:dt="string">E-Prime Primary Realtime Clock</Description><StartTime><Timestamp dt:dt="int">0</Timestamp><DateUtc dt:dt="string">2015-08-14T09:12:02Z</DateUtc></StartTime><FrequencyChanges><FrequencyChange><Frequency dt:dt="r8">2612304</Frequency><Timestamp dt:dt="r8">9000000130</Timestamp><Current dt:dt="r8">0</Current><DateUtc dt:dt="string">2015-08-14T09:12:02Z</DateUtc></FrequencyChange></FrequencyChanges></Clock>\n	1 ver1_main_procedure-25-1	99.938	1.0.0.880	1	md	410560569	prawa	1	2.0.10.182	08-14-2015	2015-08-14 09:12:02	11:12:02	mezczyzna	2.0.10.92	2																														TrainingProc1		TrainingList	1	1	1						8																																																					TrainProc											TrainingList1											target_both.png							3	1	8	dl								75	300	
1 ver1_main_procedure	25	1	21	<?xml version="1.0"?>\n<Clock xmlns:dt="urn:schemas-microsoft-com:datatypes"><Description dt:dt="string">E-Prime Primary Realtime Clock</Description><StartTime><Timestamp dt:dt="int">0</Timestamp><DateUtc dt:dt="string">2015-08-14T09:12:02Z</DateUtc></StartTime><FrequencyChanges><FrequencyChange><Frequency dt:dt="r8">2612304</Frequency><Timestamp dt:dt="r8">9000000130</Timestamp><Current dt:dt="r8">0</Current><DateUtc dt:dt="string">2015-08-14T09:12:02Z</DateUtc></FrequencyChange></FrequencyChanges></Clock>\n	1 ver1_main_procedure-25-1	99.938	1.0.0.880	1	md	410560569	prawa	1	2.0.10.182	08-14-2015	2015-08-14 09:12:02	11:12:02	mezczyzna	2.0.10.92	2																														TrainingProc1		TrainingList	1	1	1						9																																																					TrainProc											TrainingList1											target_right.png							2	1	9	l								25	150	
1 ver1_main_procedure	25	1	21	<?xml version="1.0"?>\n<Clock xmlns:dt="urn:schemas-microsoft-com:datatypes"><Description dt:dt="string">E-Prime Primary Realtime Clock</Description><StartTime><Timestamp dt:dt="int">0</Timestamp><DateUtc dt:dt="string">2015-08-14T09:12:02Z</DateUtc></StartTime><FrequencyChanges><FrequencyChange><Frequency dt:dt="r8">2612304</Frequency><Timestamp dt:dt="r8">9000000130</Timestamp><Current dt:dt="r8">0</Current><DateUtc dt:dt="string">2015-08-14T09:12:02Z</DateUtc></FrequencyChange></FrequencyChanges></Clock>\n	1 ver1_main_procedure-25-1	99.938	1.0.0.880	1	md	410560569	prawa	1	2.0.10.182	08-14-2015	2015-08-14 09:12:02	11:12:02	mezczyzna	2.0.10.92	3	6	1	1																							l	{SPACE}		no	BlockProc2		BlockList									1	Free	dl	color_blue.png		-1	10	234908	160																								25	prime_left.png	0	234208	0	0	13	0	234208	0	234208	1	234208	20	0	-1	232709	234208	234207	0		TrialProc1	right	0		0	20	234528	-234528		0	0	TrialList2	target_both.png	0	dl	-1	3	234258	270	l	639	234897															12	1	1	incomp			150
1 ver1_main_procedure	25	1	21	<?xml version="1.0"?>\n<Clock xmlns:dt="urn:schemas-microsoft-com:datatypes"><Description dt:dt="string">E-Prime Primary Realtime Clock</Description><StartTime><Timestamp dt:dt="int">0</Timestamp><DateUtc dt:dt="string">2015-08-14T09:12:02Z</DateUtc></StartTime><FrequencyChanges><FrequencyChange><Frequency dt:dt="r8">2612304</Frequency><Timestamp dt:dt="r8">9000000130</Timestamp><Current dt:dt="r8">0</Current><DateUtc dt:dt="string">2015-08-14T09:12:02Z</DateUtc></FrequencyChange></FrequencyChanges></Clock>\n	1 ver1_main_procedure-25-1	99.938	1.0.0.880	1	md	410560569	prawa	1	2.0.10.182	08-14-2015	2015-08-14 09:12:02	11:12:02	mezczyzna	2.0.10.92	3	6	1	1																							l	{SPACE}		no	BlockProc2		BlockList									2	Free	dl	color_green.png		-1	14	237319	161																								25	prime_left.png	0	236879	0	0	13	0	236879	0	236879	1	236879	20	0	-1	235380	236879	236878	0		TrialProc1	right	0		1	10	237189	-237189		0	0	TrialList2	target_both.png	0	dl	-1	3	236929	260	d	376	237305															12	1	2	incomp			150
1 ver1_main_procedure	25	1	21	<?xml version="1.0"?>\n<Clock xmlns:dt="urn:schemas-microsoft-com:datatypes"><Description dt:dt="string">E-Prime Primary Realtime Clock</Description><StartTime><Timestamp dt:dt="int">0</Timestamp><DateUtc dt:dt="string">2015-08-14T09:12:02Z</DateUtc></StartTime><FrequencyChanges><FrequencyChange><Frequency dt:dt="r8">2612304</Frequency><Timestamp dt:dt="r8">9000000130</Timestamp><Current dt:dt="r8">0</Current><DateUtc dt:dt="string">2015-08-14T09:12:02Z</DateUtc></FrequencyChange></FrequencyChanges></Clock>\n	1 ver1_main_procedure-25-1	99.938	1.0.0.880	1	md	410560569	prawa	1	2.0.10.182	08-14-2015	2015-08-14 09:12:02	11:12:02	mezczyzna	2.0.10.92	3	6	1	1																							l	{SPACE}		no	BlockProc2		BlockList									3	Free	dl	color_orange.png		-1	6	239631	160																								25	prime_right.png	0	239291	0	0	13	0	239291	0	239291	1	239291	20	0	-1	237791	239291	239290	0		TrialProc1	left	0		0	10	239601	-239601		0	0	TrialList2	target_both.png	0	dl	-1	3	239341	260	l	284	239625															9	1	3	incomp			150
1 ver1_main_procedure	25	1	21	<?xml version="1.0"?>\n<Clock xmlns:dt="urn:schemas-microsoft-com:datatypes"><Description dt:dt="string">E-Prime Primary Realtime Clock</Description><StartTime><Timestamp dt:dt="int">0</Timestamp><DateUtc dt:dt="string">2015-08-14T09:12:02Z</DateUtc></StartTime><FrequencyChanges><FrequencyChange><Frequency dt:dt="r8">2612304</Frequency><Timestamp dt:dt="r8">9000000130</Timestamp><Current dt:dt="r8">0</Current><DateUtc dt:dt="string">2015-08-14T09:12:02Z</DateUtc></FrequencyChange></FrequencyChanges></Clock>\n	1 ver1_main_procedure-25-1	99.938	1.0.0.880	1	md	410560569	prawa	1	2.0.10.182	08-14-2015	2015-08-14 09:12:02	11:12:02	mezczyzna	2.0.10.92	3	6	1	1																							l	{SPACE}		no	BlockProc2		BlockList									4	Free	dl	color_yellow.png		-1	9	241922	460																			2					25	prime_right.png	0	241602	0	0	13	0	241602	0	241602	1	241602	20	0	-1	240103	241602	241601	0	prime_right.png	TrialProc1	right	0		0	10	241912	-241912		0	0	TrialList2	target_both.png	0	dl	-1	3	241652	260	l	261	241913															11	1	4	neut			450
1 ver1_main_procedure	25	1	21	<?xml version="1.0"?>\n<Clock xmlns:dt="urn:schemas-microsoft-com:datatypes"><Description dt:dt="string">E-Prime Primary Realtime Clock</Description><StartTime><Timestamp dt:dt="int">0</Timestamp><DateUtc dt:dt="string">2015-08-14T09:12:02Z</DateUtc></StartTime><FrequencyChanges><FrequencyChange><Frequency dt:dt="r8">2612304</Frequency><Timestamp dt:dt="r8">9000000130</Timestamp><Current dt:dt="r8">0</Current><DateUtc dt:dt="string">2015-08-14T09:12:02Z</DateUtc></FrequencyChange></FrequencyChanges></Clock>\n	1 ver1_main_procedure-25-1	99.938	1.0.0.880	1	md	410560569	prawa	1	2.0.10.182	08-14-2015	2015-08-14 09:12:02	11:12:02	mezczyzna	2.0.10.92	3	6	1	1																							l	{SPACE}		no	BlockProc2		BlockList									5	Free	dl	color_purple.png		-1	15	244464	460																								25	prime_right.png	1	244194	0	0	13	1	244194	1	244194	0	244193	20	0	-1	242694	244193	244193	0		TrialProc1	right	0		0	0	0	0		0	0	TrialList2	target_both.png	0	dl	-999999	4	244244	0	d	205	244449															10	1	5	comp			450
1 ver1_main_procedure	25	1	21	<?xml version="1.0"?>\n<Clock xmlns:dt="urn:schemas-microsoft-com:datatypes"><Description dt:dt="string">E-Prime Primary Realtime Clock</Description><StartTime><Timestamp dt:dt="int">0</Timestamp><DateUtc dt:dt="string">2015-08-14T09:12:02Z</DateUtc></StartTime><FrequencyChanges><FrequencyChange><Frequency dt:dt="r8">2612304</Frequency><Timestamp dt:dt="r8">9000000130</Timestamp><Current dt:dt="r8">0</Current><DateUtc dt:dt="string">2015-08-14T09:12:02Z</DateUtc></FrequencyChange></FrequencyChanges></Clock>\n	1 ver1_main_procedure-25-1	99.938	1.0.0.880	1	md	410560569	prawa	1	2.0.10.182	08-14-2015	2015-08-14 09:12:02	11:12:02	mezczyzna	2.0.10.92	3	6	1	1																							l	{SPACE}		no	BlockProc2		BlockList									6	Free	dl	color_orange.png		-1	12	247045	460																								75	prime_right.png	0	246735	0	0	13	0	246735	0	246735	1	246735	20	0	-1	245236	246735	246734	0		TrialProc1	right	0		0	0	0	0		0	0	TrialList2	target_both.png	0	dl	-999999	3	246785	0	l	248	247033															10	1	6	comp			450
1 ver1_main_procedure	25	1	21	<?xml version="1.0"?>\n<Clock xmlns:dt="urn:schemas-microsoft-com:datatypes"><Description dt:dt="string">E-Prime Primary Realtime Clock</Description><StartTime><Timestamp dt:dt="int">0</Timestamp><DateUtc dt:dt="string">2015-08-14T09:12:02Z</DateUtc></StartTime><FrequencyChanges><FrequencyChange><Frequency dt:dt="r8">2612304</Frequency><Timestamp dt:dt="r8">9000000130</Timestamp><Current dt:dt="r8">0</Current><DateUtc dt:dt="string">2015-08-14T09:12:02Z</DateUtc></FrequencyChange></FrequencyChanges></Clock>\n	1 ver1_main_procedure-25-1	99.938	1.0.0.880	1	md	410560569	prawa	1	2.0.10.182	08-14-2015	2015-08-14 09:12:02	11:12:02	mezczyzna	2.0.10.92	3	6	1	1																							l	{SPACE}		no	BlockProc2		BlockList									7	Free	dl	color_purple.png		-1	14	249727	160																								25	prime_right.png	0	249317	0	0	13	0	249317	0	249317	1	249317	20	0	-1	247817	249317	249316	0		TrialProc1	right	0		0	10	249627	-249627		0	0	TrialList2	target_both.png	0	dl	-1	3	249367	260	d	346	249713															10	1	7	comp			150
1 ver1_main_procedure	25	1	21	<?xml version="1.0"?>\n<Clock xmlns:dt="urn:schemas-microsoft-com:datatypes"><Description dt:dt="string">E-Prime Primary Realtime Clock</Description><StartTime><Timestamp dt:dt="int">0</Timestamp><DateUtc dt:dt="string">2015-08-14T09:12:02Z</DateUtc></StartTime><FrequencyChanges><FrequencyChange><Frequency dt:dt="r8">2612304</Frequency><Timestamp dt:dt="r8">9000000130</Timestamp><Current dt:dt="r8">0</Current><DateUtc dt:dt="string">2015-08-14T09:12:02Z</DateUtc></FrequencyChange></FrequencyChanges></Clock>\n	1 ver1_main_procedure-25-1	99.938	1.0.0.880	1	md	410560569	prawa	1	2.0.10.182	08-14-2015	2015-08-14 09:12:02	11:12:02	mezczyzna	2.0.10.92	3	6	1	1																							l	{SPACE}		no	BlockProc2		BlockList									8	Free	dl	color_yellow.png		-1	15	252048	160																			1					25	prime_left.png	0	251698	0	0	13	0	251698	0	251698	1	251698	20	0	-1	250199	251698	251697	0	prime_left.png	TrialProc1	left	0		0	10	252008	-252008		0	0	TrialList2	target_both.png	0	dl	-1	3	251748	260	l	285	252033															8	1	8	neut			150
1 ver1_main_procedure	25	1	21	<?xml version="1.0"?>\n<Clock xmlns:dt="urn:schemas-microsoft-com:datatypes"><Description dt:dt="string">E-Prime Primary Realtime Clock</Description><StartTime><Timestamp dt:dt="int">0</Timestamp><DateUtc dt:dt="string">2015-08-14T09:12:02Z</DateUtc></StartTime><FrequencyChanges><FrequencyChange><Frequency dt:dt="r8">2612304</Frequency><Timestamp dt:dt="r8">9000000130</Timestamp><Current dt:dt="r8">0</Current><DateUtc dt:dt="string">2015-08-14T09:12:02Z</DateUtc></FrequencyChange></FrequencyChanges></Clock>\n	1 ver1_main_procedure-25-1	99.938	1.0.0.880	1	md	410560569	prawa	1	2.0.10.182	08-14-2015	2015-08-14 09:12:02	11:12:02	mezczyzna	2.0.10.92	3	6	1	1																							l	{SPACE}		no	BlockProc2		BlockList									9	Free	dl	color_purple.png		-1	8	254370	460																								75	prime_right.png	0	254019	0	0	13	0	254020	0	254019	1	254019	20	0	-1	252520	254019	254018	0		TrialProc1	left	0		0	11	254330	-254330		0	0	TrialList2	target_both.png	0	dl	-1	3	254069	261	d	292	254361															9	1	9	incomp			450
1 ver1_main_procedure	25	1	21	<?xml version="1.0"?>\n<Clock xmlns:dt="urn:schemas-microsoft-com:datatypes"><Description dt:dt="string">E-Prime Primary Realtime Clock</Description><StartTime><Timestamp dt:dt="int">0</Timestamp><DateUtc dt:dt="string">2015-08-14T09:12:02Z</DateUtc></StartTime><FrequencyChanges><FrequencyChange><Frequency dt:dt="r8">2612304</Frequency><Timestamp dt:dt="r8">9000000130</Timestamp><Current dt:dt="r8">0</Current><DateUtc dt:dt="string">2015-08-14T09:12:02Z</DateUtc></FrequencyChange></FrequencyChanges></Clock>\n	1 ver1_main_procedure-25-1	99.938	1.0.0.880	1	md	410560569	prawa	1	2.0.10.182	08-14-2015	2015-08-14 09:12:02	11:12:02	mezczyzna	2.0.10.92	3	6	1	1																							l	{SPACE}		no	BlockProc2		BlockList									10	Free	dl	color_blue.png		-1	11	256901	310																								25	prime_left.png	0	256641	0	0	13	0	256641	0	256641	1	256641	20	0	-1	255142	256641	256640	0		TrialProc1	left	0		0	0	0	0		0	0	TrialList2	target_both.png	0	dl	-999999	3	256691	0	l	198	256889															7	1	10	comp			300
1 ver1_main_procedure	25	1	21	<?xml version="1.0"?>\n<Clock xmlns:dt="urn:schemas-microsoft-com:datatypes"><Description dt:dt="string">E-Prime Primary Realtime Clock</Description><StartTime><Timestamp dt:dt="int">0</Timestamp><DateUtc dt:dt="string">2015-08-14T09:12:02Z</DateUtc></StartTime><FrequencyChanges><FrequencyChange><Frequency dt:dt="r8">2612304</Frequency><Timestamp dt:dt="r8">9000000130</Timestamp><Current dt:dt="r8">0</Current><DateUtc dt:dt="string">2015-08-14T09:12:02Z</DateUtc></FrequencyChange></FrequencyChanges></Clock>\n	1 ver1_main_procedure-25-1	99.938	1.0.0.880	1	md	410560569	prawa	1	2.0.10.182	08-14-2015	2015-08-14 09:12:02	11:12:02	mezczyzna	2.0.10.92	3	6	1	1																							l	{SPACE}		no	BlockProc2		BlockList									11	Cued	d	color_purple.png		-1	7	259353	160																								25	prime_right.png	0	259022	0	0	13	0	259022	0	259022	1	259022	20	0	-1	257523	259022	259021	0		TrialProc1	left	0		1	10	259332	-259332		0	0	TrialList2	target_left.png	1	d	-1	3	259072	260	d	273	259345															3	1	11	incomp			150
1 ver1_main_procedure	25	1	21	<?xml version="1.0"?>\n<Clock xmlns:dt="urn:schemas-microsoft-com:datatypes"><Description dt:dt="string">E-Prime Primary Realtime Clock</Description><StartTime><Timestamp dt:dt="int">0</Timestamp><DateUtc dt:dt="string">2015-08-14T09:12:02Z</DateUtc></StartTime><FrequencyChanges><FrequencyChange><Frequency dt:dt="r8">2612304</Frequency><Timestamp dt:dt="r8">9000000130</Timestamp><Current dt:dt="r8">0</Current><DateUtc dt:dt="string">2015-08-14T09:12:02Z</DateUtc></FrequencyChange></FrequencyChanges></Clock>\n	1 ver1_main_procedure-25-1	99.938	1.0.0.880	1	md	410560569	prawa	1	2.0.10.182	08-14-2015	2015-08-14 09:12:02	11:12:02	mezczyzna	2.0.10.92	3	6	1	1																							l	{SPACE}		no	BlockProc2		BlockList									12	Cued	d			-1	6	261624	460																			2					25	prime_right.png	0	261324	0	0	13	0	261324	0	261324	1	261324	20	0	-1	259825	261324	261323	0	prime_right.png	TrialProc1	left	0		0	0	0	0		0	0	TrialList2	target_left.png	0	d	-999999	3	261374	0	l	243	261617															2	1	12	neut			450
1 ver1_main_procedure	25	1	21	<?xml version="1.0"?>\n<Clock xmlns:dt="urn:schemas-microsoft-com:datatypes"><Description dt:dt="string">E-Prime Primary Realtime Clock</Description><StartTime><Timestamp dt:dt="int">0</Timestamp><DateUtc dt:dt="string">2015-08-14T09:12:02Z</DateUtc></StartTime><FrequencyChanges><FrequencyChange><Frequency dt:dt="r8">2612304</Frequency><Timestamp dt:dt="r8">9000000130</Timestamp><Current dt:dt="r8">0</Current><DateUtc dt:dt="string">2015-08-14T09:12:02Z</DateUtc></FrequencyChange></FrequencyChanges></Clock>\n	1 ver1_main_procedure-25-1	99.938	1.0.0.880	1	md	410560569	prawa	1	2.0.10.182	08-14-2015	2015-08-14 09:12:02	11:12:02	mezczyzna	2.0.10.92	3	6	1	1																							l	{SPACE}		no	BlockProc2		BlockList									13	Free	dl	color_red.png		-1	9	264235	461																			1					25	prime_left.png	0	263895	0	0	13	0	263895	0	263895	1	263895	20	0	-1	262396	263895	263894	0	prime_left.png	TrialProc1	left	0		1	10	264205	-264205		0	0	TrialList2	target_both.png	0	dl	-1	3	263945	260	d	280	264225															8	1	13	neut			450
1 ver1_main_procedure	25	1	21	<?xml version="1.0"?>\n<Clock xmlns:dt="urn:schemas-microsoft-com:datatypes"><Description dt:dt="string">E-Prime Primary Realtime Clock</Description><StartTime><Timestamp dt:dt="int">0</Timestamp><DateUtc dt:dt="string">2015-08-14T09:12:02Z</DateUtc></StartTime><FrequencyChanges><FrequencyChange><Frequency dt:dt="r8">2612304</Frequency><Timestamp dt:dt="r8">9000000130</Timestamp><Current dt:dt="r8">0</Current><DateUtc dt:dt="string">2015-08-14T09:12:02Z</DateUtc></FrequencyChange></FrequencyChanges></Clock>\n	1 ver1_main_procedure-25-1	99.938	1.0.0.880	1	md	410560569	prawa	1	2.0.10.182	08-14-2015	2015-08-14 09:12:02	11:12:02	mezczyzna	2.0.10.92	3	6	1	1																							l	{SPACE}		no	BlockProc2		BlockList									14	Free	dl	color_yellow.png		-1	10	266827	460																			2					75	prime_right.png	0	266507	0	0	13	0	266507	0	266507	1	266507	20	0	-1	265008	266507	266506	0	prime_right.png	TrialProc1	right	0		-999999	10	266817	0		0	0	TrialList2	target_both.png	0	dl	-1	3	266557	0	l	252	266809															11	1	14	neut			450
1 ver1_main_procedure	25	1	21	<?xml version="1.0"?>\n<Clock xmlns:dt="urn:schemas-microsoft-com:datatypes"><Description dt:dt="string">E-Prime Primary Realtime Clock</Description><StartTime><Timestamp dt:dt="int">0</Timestamp><DateUtc dt:dt="string">2015-08-14T09:12:02Z</DateUtc></StartTime><FrequencyChanges><FrequencyChange><Frequency dt:dt="r8">2612304</Frequency><Timestamp dt:dt="r8">9000000130</Timestamp><Current dt:dt="r8">0</Current><DateUtc dt:dt="string">2015-08-14T09:12:02Z</DateUtc></FrequencyChange></FrequencyChanges></Clock>\n	1 ver1_main_procedure-25-1	99.938	1.0.0.880	1	md	410560569	prawa	1	2.0.10.182	08-14-2015	2015-08-14 09:12:02	11:12:02	mezczyzna	2.0.10.92	3	6	1	1																							l	{SPACE}		no	BlockProc2		BlockList									15	Free	dl	color_green.png		-1	7	269449	460																								75	prime_left.png	0	269098	0	0	13	0	269099	0	269098	1	269098	20	0	-1	267599	269098	269097	0		TrialProc1	left	0		0	11	269409	-269409		0	0	TrialList2	target_both.png	0	dl	-1	3	269148	261	d	293	269441															7	1	15	comp			450
1 ver1_main_procedure	25	1	21	<?xml version="1.0"?>\n<Clock xmlns:dt="urn:schemas-microsoft-com:datatypes"><Description dt:dt="string">E-Prime Primary Realtime Clock</Description><StartTime><Timestamp dt:dt="int">0</Timestamp><DateUtc dt:dt="string">2015-08-14T09:12:02Z</DateUtc></StartTime><FrequencyChanges><FrequencyChange><Frequency dt:dt="r8">2612304</Frequency><Timestamp dt:dt="r8">9000000130</Timestamp><Current dt:dt="r8">0</Current><DateUtc dt:dt="string">2015-08-14T09:12:02Z</DateUtc></FrequencyChange></FrequencyChanges></Clock>\n	1 ver1_main_procedure-25-1	99.938	1.0.0.880	1	md	410560569	prawa	1	2.0.10.182	08-14-2015	2015-08-14 09:12:02	11:12:02	mezczyzna	2.0.10.92	3	6	1	1																							l	{SPACE}		no	BlockProc2		BlockList									16	Free	dl	color_blue.png		-1	10	271980	160																								75	prime_left.png	0	271720	0	0	13	0	271720	0	271720	1	271720	20	0	-1	270221	271720	271719	0		TrialProc1	left	0		0	0	0	0		0	0	TrialList2	target_both.png	0	dl	-999999	3	271770	0	l	199	271969															7	1	16	comp			150
1 ver1_main_procedure	25	1	21	<?xml version="1.0"?>\n<Clock xmlns:dt="urn:schemas-microsoft-com:datatypes"><Description dt:dt="string">E-Prime Primary Realtime Clock</Description><StartTime><Timestamp dt:dt="int">0</Timestamp><DateUtc dt:dt="string">2015-08-14T09:12:02Z</DateUtc></StartTime><FrequencyChanges><FrequencyChange><Frequency dt:dt="r8">2612304</Frequency><Timestamp dt:dt="r8">9000000130</Timestamp><Current dt:dt="r8">0</Current><DateUtc dt:dt="string">2015-08-14T09:12:02Z</DateUtc></FrequencyChange></FrequencyChanges></Clock>\n	1 ver1_main_procedure-25-1	99.938	1.0.0.880	1	md	410560569	prawa	1	2.0.10.182	08-14-2015	2015-08-14 09:12:02	11:12:02	mezczyzna	2.0.10.92	3	6	1	1																							l	{SPACE}		no	BlockProc2		BlockList									17	Cued	l	color_orange.png		-1	11	274221	311																								25	prime_right.png	0	273951	0	0	13	0	273952	0	273951	1	273951	20	0	-1	272452	273951	273950	0		TrialProc1	right	0		0	0	0	0		0	0	TrialList2	target_right.png	1	l	-999999	3	274001	0	l	208	274209															4	1	17	comp			300
1 ver1_main_procedure	25	1	21	<?xml version="1.0"?>\n<Clock xmlns:dt="urn:schemas-microsoft-com:datatypes"><Description dt:dt="string">E-Prime Primary Realtime Clock</Description><StartTime><Timestamp dt:dt="int">0</Timestamp><DateUtc dt:dt="string">2015-08-14T09:12:02Z</DateUtc></StartTime><FrequencyChanges><FrequencyChange><Frequency dt:dt="r8">2612304</Frequency><Timestamp dt:dt="r8">9000000130</Timestamp><Current dt:dt="r8">0</Current><DateUtc dt:dt="string">2015-08-14T09:12:02Z</DateUtc></FrequencyChange></FrequencyChanges></Clock>\n	1 ver1_main_procedure-25-1	99.938	1.0.0.880	1	md	410560569	prawa	1	2.0.10.182	08-14-2015	2015-08-14 09:12:02	11:12:02	mezczyzna	2.0.10.92	3	6	1	1																							l	{SPACE}		no	BlockProc2		BlockList									18	Free	dl	color_orange.png		-1	7	276673	160																								25	prime_right.png	0	276343	0	0	13	0	276343	0	276343	1	276343	20	0	-1	274844	276343	276342	0		TrialProc1	right	0		0	10	276653	-276653		0	0	TrialList2	target_both.png	0	dl	-1	3	276393	260	l	272	276665															10	1	18	comp			150
1 ver1_main_procedure	25	1	21	<?xml version="1.0"?>\n<Clock xmlns:dt="urn:schemas-microsoft-com:datatypes"><Description dt:dt="string">E-Prime Primary Realtime Clock</Description><StartTime><Timestamp dt:dt="int">0</Timestamp><DateUtc dt:dt="string">2015-08-14T09:12:02Z</DateUtc></StartTime><FrequencyChanges><FrequencyChange><Frequency dt:dt="r8">2612304</Frequency><Timestamp dt:dt="r8">9000000130</Timestamp><Current dt:dt="r8">0</Current><DateUtc dt:dt="string">2015-08-14T09:12:02Z</DateUtc></FrequencyChange></FrequencyChanges></Clock>\n	1 ver1_main_procedure-25-1	99.938	1.0.0.880	1	md	410560569	prawa	1	2.0.10.182	08-14-2015	2015-08-14 09:12:02	11:12:02	mezczyzna	2.0.10.92	3	6	1	1																							l	{SPACE}		no	BlockProc2		BlockList									19	Free	dl	color_blue.png		-1	8	278994	160																								25	prime_left.png	0	278644	0	0	13	0	278644	0	278644	1	278644	20	0	-1	277145	278644	278643	0		TrialProc1	left	0		0	10	278954	-278954		0	0	TrialList2	target_both.png	0	dl	-1	3	278694	260	l	291	278985															7	1	19	comp			150
1 ver1_main_procedure	25	1	21	<?xml version="1.0"?>\n<Clock xmlns:dt="urn:schemas-microsoft-com:datatypes"><Description dt:dt="string">E-Prime Primary Realtime Clock</Description><StartTime><Timestamp dt:dt="int">0</Timestamp><DateUtc dt:dt="string">2015-08-14T09:12:02Z</DateUtc></StartTime><FrequencyChanges><FrequencyChange><Frequency dt:dt="r8">2612304</Frequency><Timestamp dt:dt="r8">9000000130</Timestamp><Current dt:dt="r8">0</Current><DateUtc dt:dt="string">2015-08-14T09:12:02Z</DateUtc></FrequencyChange></FrequencyChanges></Clock>\n	1 ver1_main_procedure-25-1	99.938	1.0.0.880	1	md	410560569	prawa	1	2.0.10.182	08-14-2015	2015-08-14 09:12:02	11:12:02	mezczyzna	2.0.10.92	3	6	1	1																							l	{SPACE}		no	BlockProc2		BlockList									20	Cued	l	color_blue.png		-1	8	281306	460																								25	prime_left.png	0	280965	0	0	13	1	280966	1	280966	1	280965	20	0	-1	279466	280965	280964	0		TrialProc1	right	0		0	11	281276	-281276		0	0	TrialList2	target_right.png	1	l	-1	3	281015	261	l	282	281297															6	1	20	incomp			450
1 ver1_main_procedure	25	1	21	<?xml version="1.0"?>\n<Clock xmlns:dt="urn:schemas-microsoft-com:datatypes"><Description dt:dt="string">E-Prime Primary Realtime Clock</Description><StartTime><Timestamp dt:dt="int">0</Timestamp><DateUtc dt:dt="string">2015-08-14T09:12:02Z</DateUtc></StartTime><FrequencyChanges><FrequencyChange><Frequency dt:dt="r8">2612304</Frequency><Timestamp dt:dt="r8">9000000130</Timestamp><Current dt:dt="r8">0</Current><DateUtc dt:dt="string">2015-08-14T09:12:02Z</DateUtc></FrequencyChange></FrequencyChanges></Clock>\n	1 ver1_main_procedure-25-1	99.938	1.0.0.880	1	md	410560569	prawa	1	2.0.10.182	08-14-2015	2015-08-14 09:12:02	11:12:02	mezczyzna	2.0.10.92	3	6	1	1																							l	{SPACE}		no	BlockProc2		BlockList									21	Free	dl	color_blue.png		-1	7	283977	461																								25	prime_left.png	0	283577	0	0	13	0	283577	0	283577	1	283577	20	0	-1	282078	283577	283576	0		TrialProc1	right	0		0	10	283887	-283887		0	0	TrialList2	target_both.png	0	dl	-1	3	283627	260	l	342	283969															12	1	21	incomp			450
1 ver1_main_procedure	25	1	21	<?xml version="1.0"?>\n<Clock xmlns:dt="urn:schemas-microsoft-com:datatypes"><Description dt:dt="string">E-Prime Primary Realtime Clock</Description><StartTime><Timestamp dt:dt="int">0</Timestamp><DateUtc dt:dt="string">2015-08-14T09:12:02Z</DateUtc></StartTime><FrequencyChanges><FrequencyChange><Frequency dt:dt="r8">2612304</Frequency><Timestamp dt:dt="r8">9000000130</Timestamp><Current dt:dt="r8">0</Current><DateUtc dt:dt="string">2015-08-14T09:12:02Z</DateUtc></FrequencyChange></FrequencyChanges></Clock>\n	1 ver1_main_procedure-25-1	99.938	1.0.0.880	1	md	410560569	prawa	1	2.0.10.182	08-14-2015	2015-08-14 09:12:02	11:12:02	mezczyzna	2.0.10.92	3	6	1	1																							l	{SPACE}		no	BlockProc2		BlockList									22	Free	dl	color_blue.png		-1	13	286599	460																								25	prime_left.png	0	286249	0	0	13	0	286249	0	286249	1	286249	20	0	-1	284749	286249	286248	0		TrialProc1	left	0		0	10	286559	-286559		0	0	TrialList2	target_both.png	0	dl	-1	3	286299	260	l	287	286586															7	1	22	comp			450
1 ver1_main_procedure	25	1	21	<?xml version="1.0"?>\n<Clock xmlns:dt="urn:schemas-microsoft-com:datatypes"><Description dt:dt="string">E-Prime Primary Realtime Clock</Description><StartTime><Timestamp dt:dt="int">0</Timestamp><DateUtc dt:dt="string">2015-08-14T09:12:02Z</DateUtc></StartTime><FrequencyChanges><FrequencyChange><Frequency dt:dt="r8">2612304</Frequency><Timestamp dt:dt="r8">9000000130</Timestamp><Current dt:dt="r8">0</Current><DateUtc dt:dt="string">2015-08-14T09:12:02Z</DateUtc></FrequencyChange></FrequencyChanges></Clock>\n	1 ver1_main_procedure-25-1	99.938	1.0.0.880	1	md	410560569	prawa	1	2.0.10.182	08-14-2015	2015-08-14 09:12:02	11:12:02	mezczyzna	2.0.10.92	3	6	1	1																							l	{SPACE}		no	BlockProc2		BlockList									23	Free	dl	color_blue.png		-1	8	289170	310																								25	prime_left.png	0	288870	0	0	13	0	288870	0	288870	1	288870	20	0	-1	287371	288870	288869	0		TrialProc1	right	0		0	0	0	0		0	0	TrialList2	target_both.png	0	dl	-999999	3	288920	0	l	242	289162															12	1	23	incomp			300
1 ver1_main_procedure	25	1	21	<?xml version="1.0"?>\n<Clock xmlns:dt="urn:schemas-microsoft-com:datatypes"><Description dt:dt="string">E-Prime Primary Realtime Clock</Description><StartTime><Timestamp dt:dt="int">0</Timestamp><DateUtc dt:dt="string">2015-08-14T09:12:02Z</DateUtc></StartTime><FrequencyChanges><FrequencyChange><Frequency dt:dt="r8">2612304</Frequency><Timestamp dt:dt="r8">9000000130</Timestamp><Current dt:dt="r8">0</Current><DateUtc dt:dt="string">2015-08-14T09:12:02Z</DateUtc></FrequencyChange></FrequencyChanges></Clock>\n	1 ver1_main_procedure-25-1	99.938	1.0.0.880	1	md	410560569	prawa	1	2.0.10.182	08-14-2015	2015-08-14 09:12:02	11:12:02	mezczyzna	2.0.10.92	3	6	1	1																							l	{SPACE}		no	BlockProc2		BlockList									24	Free	dl	color_yellow.png		-1	14	291632	160																			1					25	prime_left.png	0	291292	0	0	13	0	291292	0	291292	1	291292	20	0	-1	289792	291292	291291	0	prime_left.png	TrialProc1	left	0		0	10	291602	-291602		0	0	TrialList2	target_both.png	0	dl	-1	3	291342	260	l	276	291618															8	1	24	neut			150
1 ver1_main_procedure	25	1	21	<?xml version="1.0"?>\n<Clock xmlns:dt="urn:schemas-microsoft-com:datatypes"><Description dt:dt="string">E-Prime Primary Realtime Clock</Description><StartTime><Timestamp dt:dt="int">0</Timestamp><DateUtc dt:dt="string">2015-08-14T09:12:02Z</DateUtc></StartTime><FrequencyChanges><FrequencyChange><Frequency dt:dt="r8">2612304</Frequency><Timestamp dt:dt="r8">9000000130</Timestamp><Current dt:dt="r8">0</Current><DateUtc dt:dt="string">2015-08-14T09:12:02Z</DateUtc></FrequencyChange></FrequencyChanges></Clock>\n	1 ver1_main_procedure-25-1	99.938	1.0.0.880	1	md	410560569	prawa	1	2.0.10.182	08-14-2015	2015-08-14 09:12:02	11:12:02	mezczyzna	2.0.10.92	3	6	1	1																							l	{SPACE}		no	BlockProc2		BlockList									25	Cued	l	color_orange.png		-1	9	293963	310																								25	prime_right.png	0	293603	0	0	13	0	293603	0	293603	1	293603	20	0	-1	292104	293603	293602	0		TrialProc1	right	0		0	10	293913	-293913		0	0	TrialList2	target_right.png	1	l	-1	3	293653	260	l	301	293954															4	1	25	comp			300
1 ver1_main_procedure	25	1	21	<?xml version="1.0"?>\n<Clock xmlns:dt="urn:schemas-microsoft-com:datatypes"><Description dt:dt="string">E-Prime Primary Realtime Clock</Description><StartTime><Timestamp dt:dt="int">0</Timestamp><DateUtc dt:dt="string">2015-08-14T09:12:02Z</DateUtc></StartTime><FrequencyChanges><FrequencyChange><Frequency dt:dt="r8">2612304</Frequency><Timestamp dt:dt="r8">9000000130</Timestamp><Current dt:dt="r8">0</Current><DateUtc dt:dt="string">2015-08-14T09:12:02Z</DateUtc></FrequencyChange></FrequencyChanges></Clock>\n	1 ver1_main_procedure-25-1	99.938	1.0.0.880	1	md	410560569	prawa	1	2.0.10.182	08-14-2015	2015-08-14 09:12:02	11:12:02	mezczyzna	2.0.10.92	3	6	1	1																							l	{SPACE}		no	BlockProc2		BlockList									26	Free	dl	color_red.png		-1	9	296435	160																			2					75	prime_right.png	0	296084	0	0	13	1	296085	1	296085	1	296084	20	0	-1	294585	296084	296083	0	prime_right.png	TrialProc1	right	0		0	11	296395	-296395		0	0	TrialList2	target_both.png	0	dl	-1	3	296134	261	d	292	296426															11	1	26	neut			150
1 ver1_main_procedure	25	1	21	<?xml version="1.0"?>\n<Clock xmlns:dt="urn:schemas-microsoft-com:datatypes"><Description dt:dt="string">E-Prime Primary Realtime Clock</Description><StartTime><Timestamp dt:dt="int">0</Timestamp><DateUtc dt:dt="string">2015-08-14T09:12:02Z</DateUtc></StartTime><FrequencyChanges><FrequencyChange><Frequency dt:dt="r8">2612304</Frequency><Timestamp dt:dt="r8">9000000130</Timestamp><Current dt:dt="r8">0</Current><DateUtc dt:dt="string">2015-08-14T09:12:02Z</DateUtc></FrequencyChange></FrequencyChanges></Clock>\n	1 ver1_main_procedure-25-1	99.938	1.0.0.880	1	md	410560569	prawa	1	2.0.10.182	08-14-2015	2015-08-14 09:12:02	11:12:02	mezczyzna	2.0.10.92	3	6	1	1																							l	{SPACE}		no	BlockProc2		BlockList									27	Free	dl	color_blue.png		-1	6	298736	310																								25	prime_left.png	0	298406	0	0	13	0	298406	0	298406	1	298406	20	0	-1	296906	298406	298405	0		TrialProc1	left	0		0	10	298716	-298716		0	0	TrialList2	target_both.png	0	dl	-1	3	298456	260	l	274	298730															7	1	27	comp			300
1 ver1_main_procedure	25	1	21	<?xml version="1.0"?>\n<Clock xmlns:dt="urn:schemas-microsoft-com:datatypes"><Description dt:dt="string">E-Prime Primary Realtime Clock</Description><StartTime><Timestamp dt:dt="int">0</Timestamp><DateUtc dt:dt="string">2015-08-14T09:12:02Z</DateUtc></StartTime><FrequencyChanges><FrequencyChange><Frequency dt:dt="r8">2612304</Frequency><Timestamp dt:dt="r8">9000000130</Timestamp><Current dt:dt="r8">0</Current><DateUtc dt:dt="string">2015-08-14T09:12:02Z</DateUtc></FrequencyChange></FrequencyChanges></Clock>\n	1 ver1_main_procedure-25-1	99.938	1.0.0.880	1	md	410560569	prawa	1	2.0.10.182	08-14-2015	2015-08-14 09:12:02	11:12:02	mezczyzna	2.0.10.92	3	6	1	1																							l	{SPACE}		no	BlockProc2		BlockList									28	Cued	d	color_purple.png		-1	13	301207	311																								75	prime_right.png	0	300857	0	0	13	0	300857	0	300857	1	300857	20	0	-1	299358	300857	300856	0		TrialProc1	left	0		1	10	301167	-301167		0	0	TrialList2	target_left.png	1	d	-1	3	300907	260	d	287	301194															3	1	28	incomp			300
1 ver1_main_procedure	25	1	21	<?xml version="1.0"?>\n<Clock xmlns:dt="urn:schemas-microsoft-com:datatypes"><Description dt:dt="string">E-Prime Primary Realtime Clock</Description><StartTime><Timestamp dt:dt="int">0</Timestamp><DateUtc dt:dt="string">2015-08-14T09:12:02Z</DateUtc></StartTime><FrequencyChanges><FrequencyChange><Frequency dt:dt="r8">2612304</Frequency><Timestamp dt:dt="r8">9000000130</Timestamp><Current dt:dt="r8">0</Current><DateUtc dt:dt="string">2015-08-14T09:12:02Z</DateUtc></FrequencyChange></FrequencyChanges></Clock>\n	1 ver1_main_procedure-25-1	99.938	1.0.0.880	1	md	410560569	prawa	1	2.0.10.182	08-14-2015	2015-08-14 09:12:02	11:12:02	mezczyzna	2.0.10.92	3	6	1	1																							l	{SPACE}		no	BlockProc2		BlockList									29	Free	dl	color_blue.png		-1	10	303709	310																								25	prime_left.png	0	303329	0	0	13	0	303329	0	303329	1	303329	20	0	-1	301830	303329	303328	0		TrialProc1	left	0		0	10	303639	-303639		0	0	TrialList2	target_both.png	0	dl	-1	3	303379	260	l	319	303698															7	1	29	comp			300
1 ver1_main_procedure	25	1	21	<?xml version="1.0"?>\n<Clock xmlns:dt="urn:schemas-microsoft-com:datatypes"><Description dt:dt="string">E-Prime Primary Realtime Clock</Description><StartTime><Timestamp dt:dt="int">0</Timestamp><DateUtc dt:dt="string">2015-08-14T09:12:02Z</DateUtc></StartTime><FrequencyChanges><FrequencyChange><Frequency dt:dt="r8">2612304</Frequency><Timestamp dt:dt="r8">9000000130</Timestamp><Current dt:dt="r8">0</Current><DateUtc dt:dt="string">2015-08-14T09:12:02Z</DateUtc></FrequencyChange></FrequencyChanges></Clock>\n	1 ver1_main_procedure-25-1	99.938	1.0.0.880	1	md	410560569	prawa	1	2.0.10.182	08-14-2015	2015-08-14 09:12:02	11:12:02	mezczyzna	2.0.10.92	3	6	1	1																							l	{SPACE}		no	BlockProc2		BlockList									30	Free	dl	color_red.png		-1	10	306150	311																			1					75	prime_left.png	0	305830	0	0	13	0	305830	0	305830	1	305830	20	0	-1	304331	305830	305829	0	prime_left.png	TrialProc1	right	0		-999999	10	306140	0		0	0	TrialList2	target_both.png	0	dl	-1	3	305880	0	d	251	306131															11	1	30	neut			300
1 ver1_main_procedure	25	1	21	<?xml version="1.0"?>\n<Clock xmlns:dt="urn:schemas-microsoft-com:datatypes"><Description dt:dt="string">E-Prime Primary Realtime Clock</Description><StartTime><Timestamp dt:dt="int">0</Timestamp><DateUtc dt:dt="string">2015-08-14T09:12:02Z</DateUtc></StartTime><FrequencyChanges><FrequencyChange><Frequency dt:dt="r8">2612304</Frequency><Timestamp dt:dt="r8">9000000130</Timestamp><Current dt:dt="r8">0</Current><DateUtc dt:dt="string">2015-08-14T09:12:02Z</DateUtc></FrequencyChange></FrequencyChanges></Clock>\n	1 ver1_main_procedure-25-1	99.938	1.0.0.880	1	md	410560569	prawa	1	2.0.10.182	08-14-2015	2015-08-14 09:12:02	11:12:02	mezczyzna	2.0.10.92	3	6	1	1																							l	{SPACE}		no	BlockProc2		BlockList									31	Free	dl	color_orange.png		-1	11	308582	160																								75	prime_right.png	0	308272	0	0	13	0	308272	0	308272	1	308272	20	0	-1	306773	308272	308271	0		TrialProc1	left	0		0	0	0	0		0	0	TrialList2	target_both.png	0	dl	-999999	3	308322	0	l	248	308570															9	1	31	incomp			150
1 ver1_main_procedure	25	1	21	<?xml version="1.0"?>\n<Clock xmlns:dt="urn:schemas-microsoft-com:datatypes"><Description dt:dt="string">E-Prime Primary Realtime Clock</Description><StartTime><Timestamp dt:dt="int">0</Timestamp><DateUtc dt:dt="string">2015-08-14T09:12:02Z</DateUtc></StartTime><FrequencyChanges><FrequencyChange><Frequency dt:dt="r8">2612304</Frequency><Timestamp dt:dt="r8">9000000130</Timestamp><Current dt:dt="r8">0</Current><DateUtc dt:dt="string">2015-08-14T09:12:02Z</DateUtc></FrequencyChange></FrequencyChanges></Clock>\n	1 ver1_main_procedure-25-1	99.938	1.0.0.880	1	md	410560569	prawa	1	2.0.10.182	08-14-2015	2015-08-14 09:12:02	11:12:02	mezczyzna	2.0.10.92	3	6	1	1																							l	{SPACE}		no	BlockProc2		BlockList									32	Free	dl	color_orange.png		-1	10	310813	460																								25	prime_right.png	0	310553	0	0	13	0	310553	0	310553	1	310553	20	0	-1	309054	310553	310552	0		TrialProc1	left	0		0	0	0	0		0	0	TrialList2	target_both.png	0	dl	-999999	3	310603	0	l	199	310802															9	1	32	incomp			450
1 ver1_main_procedure	25	1	21	<?xml version="1.0"?>\n<Clock xmlns:dt="urn:schemas-microsoft-com:datatypes"><Description dt:dt="string">E-Prime Primary Realtime Clock</Description><StartTime><Timestamp dt:dt="int">0</Timestamp><DateUtc dt:dt="string">2015-08-14T09:12:02Z</DateUtc></StartTime><FrequencyChanges><FrequencyChange><Frequency dt:dt="r8">2612304</Frequency><Timestamp dt:dt="r8">9000000130</Timestamp><Current dt:dt="r8">0</Current><DateUtc dt:dt="string">2015-08-14T09:12:02Z</DateUtc></FrequencyChange></FrequencyChanges></Clock>\n	1 ver1_main_procedure-25-1	99.938	1.0.0.880	1	md	410560569	prawa	1	2.0.10.182	08-14-2015	2015-08-14 09:12:02	11:12:02	mezczyzna	2.0.10.92	3	6	1	1																							l	{SPACE}		no	BlockProc2		BlockList									33	Cued	l			-1	12	313415	160																			2					75	prime_right.png	1	313085	0	0	13	1	313085	1	313085	0	313084	21	0	-1	311585	313084	313084	0	prime_right.png	TrialProc1	right	0		0	10	313395	-313395		0	0	TrialList2	target_right.png	0	l	-1	3	313135	260	d	267	313402															5	1	33	neut			150
1 ver1_main_procedure	25	1	21	<?xml version="1.0"?>\n<Clock xmlns:dt="urn:schemas-microsoft-com:datatypes"><Description dt:dt="string">E-Prime Primary Realtime Clock</Description><StartTime><Timestamp dt:dt="int">0</Timestamp><DateUtc dt:dt="string">2015-08-14T09:12:02Z</DateUtc></StartTime><FrequencyChanges><FrequencyChange><Frequency dt:dt="r8">2612304</Frequency><Timestamp dt:dt="r8">9000000130</Timestamp><Current dt:dt="r8">0</Current><DateUtc dt:dt="string">2015-08-14T09:12:02Z</DateUtc></FrequencyChange></FrequencyChanges></Clock>\n	1 ver1_main_procedure-25-1	99.938	1.0.0.880	1	md	410560569	prawa	1	2.0.10.182	08-14-2015	2015-08-14 09:12:02	11:12:02	mezczyzna	2.0.10.92	3	6	1	1																							l	{SPACE}		no	BlockProc2		BlockList									34	Cued	d	color_purple.png		-1	11	315966	310																								25	prime_right.png	0	315386	0	0	13	0	315386	0	315386	1	315386	20	0	-1	313887	315386	315385	0		TrialProc1	left	0		0	10	315696	-315696		0	0	TrialList2	target_left.png	1	d	-1	3	315436	260	d	518	315954															3	1	34	incomp			300
1 ver1_main_procedure	25	1	21	<?xml version="1.0"?>\n<Clock xmlns:dt="urn:schemas-microsoft-com:datatypes"><Description dt:dt="string">E-Prime Primary Realtime Clock</Description><StartTime><Timestamp dt:dt="int">0</Timestamp><DateUtc dt:dt="string">2015-08-14T09:12:02Z</DateUtc></StartTime><FrequencyChanges><FrequencyChange><Frequency dt:dt="r8">2612304</Frequency><Timestamp dt:dt="r8">9000000130</Timestamp><Current dt:dt="r8">0</Current><DateUtc dt:dt="string">2015-08-14T09:12:02Z</DateUtc></FrequencyChange></FrequencyChanges></Clock>\n	1 ver1_main_procedure-25-1	99.938	1.0.0.880	1	md	410560569	prawa	1	2.0.10.182	08-14-2015	2015-08-14 09:12:02	11:12:02	mezczyzna	2.0.10.92	3	6	1	1																							l	{SPACE}		no	BlockProc2		BlockList									35	Free	dl	color_yellow.png		-1	13	318448	460																			1					75	prime_left.png	1	318088	0	0	13	1	318088	1	318088	0	318087	20	0	-1	316588	318087	318087	0	prime_left.png	TrialProc1	right	0		0	11	318398	-318398		0	0	TrialList2	target_both.png	0	dl	-1	3	318137	261	l	297	318434															11	1	35	neut			450
1 ver1_main_procedure	25	1	21	<?xml version="1.0"?>\n<Clock xmlns:dt="urn:schemas-microsoft-com:datatypes"><Description dt:dt="string">E-Prime Primary Realtime Clock</Description><StartTime><Timestamp dt:dt="int">0</Timestamp><DateUtc dt:dt="string">2015-08-14T09:12:02Z</DateUtc></StartTime><FrequencyChanges><FrequencyChange><Frequency dt:dt="r8">2612304</Frequency><Timestamp dt:dt="r8">9000000130</Timestamp><Current dt:dt="r8">0</Current><DateUtc dt:dt="string">2015-08-14T09:12:02Z</DateUtc></FrequencyChange></FrequencyChanges></Clock>\n	1 ver1_main_procedure-25-1	99.938	1.0.0.880	1	md	410560569	prawa	1	2.0.10.182	08-14-2015	2015-08-14 09:12:02	11:12:02	mezczyzna	2.0.10.92	3	6	1	1																							l	{SPACE}		no	BlockProc2		BlockList									36	Cued	l	color_blue.png		-1	10	321109	310																								25	prime_left.png	0	320719	0	0	13	0	320719	0	320719	1	320719	20	0	-1	319220	320719	320718	0		TrialProc1	right	0		0	10	321029	-321029		0	0	TrialList2	target_right.png	1	l	-1	3	320769	260	l	329	321098															6	1	36	incomp			300
1 ver1_main_procedure	25	1	21	<?xml version="1.0"?>\n<Clock xmlns:dt="urn:schemas-microsoft-com:datatypes"><Description dt:dt="string">E-Prime Primary Realtime Clock</Description><StartTime><Timestamp dt:dt="int">0</Timestamp><DateUtc dt:dt="string">2015-08-14T09:12:02Z</DateUtc></StartTime><FrequencyChanges><FrequencyChange><Frequency dt:dt="r8">2612304</Frequency><Timestamp dt:dt="r8">9000000130</Timestamp><Current dt:dt="r8">0</Current><DateUtc dt:dt="string">2015-08-14T09:12:02Z</DateUtc></FrequencyChange></FrequencyChanges></Clock>\n	1 ver1_main_procedure-25-1	99.938	1.0.0.880	1	md	410560569	prawa	1	2.0.10.182	08-14-2015	2015-08-14 09:12:02	11:12:02	mezczyzna	2.0.10.92	3	6	1	1																							l	{SPACE}		no	BlockProc2		BlockList									37	Free	dl	color_orange.png		-1	12	323631	160																								25	prime_right.png	0	323231	0	0	13	0	323231	0	323231	1	323231	20	0	-1	321731	323231	323230	0		TrialProc1	left	0		0	10	323541	-323541		0	0	TrialList2	target_both.png	0	dl	-1	3	323281	260	l	337	323618															9	1	37	incomp			150
1 ver1_main_procedure	25	1	21	<?xml version="1.0"?>\n<Clock xmlns:dt="urn:schemas-microsoft-com:datatypes"><Description dt:dt="string">E-Prime Primary Realtime Clock</Description><StartTime><Timestamp dt:dt="int">0</Timestamp><DateUtc dt:dt="string">2015-08-14T09:12:02Z</DateUtc></StartTime><FrequencyChanges><FrequencyChange><Frequency dt:dt="r8">2612304</Frequency><Timestamp dt:dt="r8">9000000130</Timestamp><Current dt:dt="r8">0</Current><DateUtc dt:dt="string">2015-08-14T09:12:02Z</DateUtc></FrequencyChange></FrequencyChanges></Clock>\n	1 ver1_main_procedure-25-1	99.938	1.0.0.880	1	md	410560569	prawa	1	2.0.10.182	08-14-2015	2015-08-14 09:12:02	11:12:02	mezczyzna	2.0.10.92	3	6	1	1																							l	{SPACE}		no	BlockProc2		BlockList									38	Free	dl	color_yellow.png		-1	11	326022	160																			2					25	prime_right.png	0	325602	0	0	13	0	325602	0	325602	1	325602	20	0	-1	324103	325602	325601	0	prime_right.png	TrialProc1	right	0		0	10	325912	-325912		0	0	TrialList2	target_both.png	0	dl	-1	3	325652	260	l	358	326010															11	1	38	neut			150
1 ver1_main_procedure	25	1	21	<?xml version="1.0"?>\n<Clock xmlns:dt="urn:schemas-microsoft-com:datatypes"><Description dt:dt="string">E-Prime Primary Realtime Clock</Description><StartTime><Timestamp dt:dt="int">0</Timestamp><DateUtc dt:dt="string">2015-08-14T09:12:02Z</DateUtc></StartTime><FrequencyChanges><FrequencyChange><Frequency dt:dt="r8">2612304</Frequency><Timestamp dt:dt="r8">9000000130</Timestamp><Current dt:dt="r8">0</Current><DateUtc dt:dt="string">2015-08-14T09:12:02Z</DateUtc></FrequencyChange></FrequencyChanges></Clock>\n	1 ver1_main_procedure-25-1	99.938	1.0.0.880	1	md	410560569	prawa	1	2.0.10.182	08-14-2015	2015-08-14 09:12:02	11:12:02	mezczyzna	2.0.10.92	3	6	1	1																							l	{SPACE}		no	BlockProc2		BlockList									39	Free	dl	color_red.png		-1	9	328444	460																			1					25	prime_left.png	0	327993	0	0	13	1	327994	1	327994	1	327993	20	0	-1	326496	327993	327992	0	prime_left.png	TrialProc1	left	0		0	11	328304	-328304		0	0	TrialList2	target_both.png	0	dl	-1	3	328043	261	d	391	328434															8	1	39	neut			450
1 ver1_main_procedure	25	1	21	<?xml version="1.0"?>\n<Clock xmlns:dt="urn:schemas-microsoft-com:datatypes"><Description dt:dt="string">E-Prime Primary Realtime Clock</Description><StartTime><Timestamp dt:dt="int">0</Timestamp><DateUtc dt:dt="string">2015-08-14T09:12:02Z</DateUtc></StartTime><FrequencyChanges><FrequencyChange><Frequency dt:dt="r8">2612304</Frequency><Timestamp dt:dt="r8">9000000130</Timestamp><Current dt:dt="r8">0</Current><DateUtc dt:dt="string">2015-08-14T09:12:02Z</DateUtc></FrequencyChange></FrequencyChanges></Clock>\n	1 ver1_main_procedure-25-1	99.938	1.0.0.880	1	md	410560569	prawa	1	2.0.10.182	08-14-2015	2015-08-14 09:12:02	11:12:02	mezczyzna	2.0.10.92	3	6	1	1																							l	{SPACE}		no	BlockProc2		BlockList									40	Cued	l	color_blue.png		-1	10	331125	160																								25	prime_left.png	0	330715	0	0	13	0	330715	0	330715	1	330715	20	0	-1	329216	330715	330714	0		TrialProc1	right	0		0	10	331025	-331025		0	0	TrialList2	target_right.png	1	l	-1	3	330765	260	l	349	331114															6	1	40	incomp			150
1 ver1_main_procedure	25	1	21	<?xml version="1.0"?>\n<Clock xmlns:dt="urn:schemas-microsoft-com:datatypes"><Description dt:dt="string">E-Prime Primary Realtime Clock</Description><StartTime><Timestamp dt:dt="int">0</Timestamp><DateUtc dt:dt="string">2015-08-14T09:12:02Z</DateUtc></StartTime><FrequencyChanges><FrequencyChange><Frequency dt:dt="r8">2612304</Frequency><Timestamp dt:dt="r8">9000000130</Timestamp><Current dt:dt="r8">0</Current><DateUtc dt:dt="string">2015-08-14T09:12:02Z</DateUtc></FrequencyChange></FrequencyChanges></Clock>\n	1 ver1_main_procedure-25-1	99.938	1.0.0.880	1	md	410560569	prawa	1	2.0.10.182	08-14-2015	2015-08-14 09:12:02	11:12:02	mezczyzna	2.0.10.92	3	6	1	1																							l	{SPACE}		no	BlockProc2		BlockList									41	Free	dl	color_purple.png		-1	6	333417	460																								25	prime_right.png	0	333096	0	0	13	1	333097	1	333097	1	333096	20	0	-1	331597	333096	333095	0		TrialProc1	right	0		0	11	333407	-333407		0	0	TrialList2	target_both.png	0	dl	-1	3	333146	261	d	264	333410															10	1	41	comp			450
1 ver1_main_procedure	25	1	21	<?xml version="1.0"?>\n<Clock xmlns:dt="urn:schemas-microsoft-com:datatypes"><Description dt:dt="string">E-Prime Primary Realtime Clock</Description><StartTime><Timestamp dt:dt="int">0</Timestamp><DateUtc dt:dt="string">2015-08-14T09:12:02Z</DateUtc></StartTime><FrequencyChanges><FrequencyChange><Frequency dt:dt="r8">2612304</Frequency><Timestamp dt:dt="r8">9000000130</Timestamp><Current dt:dt="r8">0</Current><DateUtc dt:dt="string">2015-08-14T09:12:02Z</DateUtc></FrequencyChange></FrequencyChanges></Clock>\n	1 ver1_main_procedure-25-1	99.938	1.0.0.880	1	md	410560569	prawa	1	2.0.10.182	08-14-2015	2015-08-14 09:12:02	11:12:02	mezczyzna	2.0.10.92	3	6	1	1																							l	{SPACE}		no	BlockProc2		BlockList									42	Free	dl	color_yellow.png		-1	10	336008	160																			2					25	prime_right.png	0	335688	0	0	13	0	335688	0	335688	1	335688	20	0	-1	334189	335688	335687	0	prime_right.png	TrialProc1	right	0		-999999	10	335998	0		0	0	TrialList2	target_both.png	0	dl	-1	3	335738	0	l	257	335995															11	1	42	neut			150
1 ver1_main_procedure	25	1	21	<?xml version="1.0"?>\n<Clock xmlns:dt="urn:schemas-microsoft-com:datatypes"><Description dt:dt="string">E-Prime Primary Realtime Clock</Description><StartTime><Timestamp dt:dt="int">0</Timestamp><DateUtc dt:dt="string">2015-08-14T09:12:02Z</DateUtc></StartTime><FrequencyChanges><FrequencyChange><Frequency dt:dt="r8">2612304</Frequency><Timestamp dt:dt="r8">9000000130</Timestamp><Current dt:dt="r8">0</Current><DateUtc dt:dt="string">2015-08-14T09:12:02Z</DateUtc></FrequencyChange></FrequencyChanges></Clock>\n	1 ver1_main_procedure-25-1	99.938	1.0.0.880	1	md	410560569	prawa	1	2.0.10.182	08-14-2015	2015-08-14 09:12:02	11:12:02	mezczyzna	2.0.10.92	3	6	1	1																							l	{SPACE}		no	BlockProc2		BlockList									43	Free	dl	color_yellow.png		-1	6	338299	161																			1					75	prime_left.png	1	337980	0	0	13	1	337980	1	337980	0	337979	20	0	-1	336480	337979	337979	0	prime_left.png	TrialProc1	left	0		1	10	338289	-338289		0	0	TrialList2	target_both.png	0	dl	-1	3	338029	260	l	263	338292															8	1	43	neut			150
1 ver1_main_procedure	25	1	21	<?xml version="1.0"?>\n<Clock xmlns:dt="urn:schemas-microsoft-com:datatypes"><Description dt:dt="string">E-Prime Primary Realtime Clock</Description><StartTime><Timestamp dt:dt="int">0</Timestamp><DateUtc dt:dt="string">2015-08-14T09:12:02Z</DateUtc></StartTime><FrequencyChanges><FrequencyChange><Frequency dt:dt="r8">2612304</Frequency><Timestamp dt:dt="r8">9000000130</Timestamp><Current dt:dt="r8">0</Current><DateUtc dt:dt="string">2015-08-14T09:12:02Z</DateUtc></FrequencyChange></FrequencyChanges></Clock>\n	1 ver1_main_procedure-25-1	99.938	1.0.0.880	1	md	410560569	prawa	1	2.0.10.182	08-14-2015	2015-08-14 09:12:02	11:12:02	mezczyzna	2.0.10.92	3	6	1	1																							l	{SPACE}		no	BlockProc2		BlockList									44	Free	dl	color_orange.png		-1	8	340651	310																								75	prime_right.png	0	340271	0	0	13	0	340271	0	340271	1	340271	20	0	-1	338771	340271	340270	0		TrialProc1	right	0		0	10	340581	-340581		0	0	TrialList2	target_both.png	0	dl	-1	3	340321	260	l	322	340643															10	1	44	comp			300
1 ver1_main_procedure	25	1	21	<?xml version="1.0"?>\n<Clock xmlns:dt="urn:schemas-microsoft-com:datatypes"><Description dt:dt="string">E-Prime Primary Realtime Clock</Description><StartTime><Timestamp dt:dt="int">0</Timestamp><DateUtc dt:dt="string">2015-08-14T09:12:02Z</DateUtc></StartTime><FrequencyChanges><FrequencyChange><Frequency dt:dt="r8">2612304</Frequency><Timestamp dt:dt="r8">9000000130</Timestamp><Current dt:dt="r8">0</Current><DateUtc dt:dt="string">2015-08-14T09:12:02Z</DateUtc></FrequencyChange></FrequencyChanges></Clock>\n	1 ver1_main_procedure-25-1	99.938	1.0.0.880	1	md	410560569	prawa	1	2.0.10.182	08-14-2015	2015-08-14 09:12:02	11:12:02	mezczyzna	2.0.10.92	3	6	1	1																							l	{SPACE}		no	BlockProc2		BlockList									45	Cued	l	color_yellow.png		-1	13	343032	461																			2					25	prime_right.png	0	342772	0	0	13	0	342772	0	342772	1	342772	20	0	-1	341273	342772	342771	0	prime_right.png	TrialProc1	right	0		0	0	0	0		0	0	TrialList2	target_right.png	1	l	-999999	3	342822	0	l	197	343019															5	1	45	neut			450
1 ver1_main_procedure	25	1	21	<?xml version="1.0"?>\n<Clock xmlns:dt="urn:schemas-microsoft-com:datatypes"><Description dt:dt="string">E-Prime Primary Realtime Clock</Description><StartTime><Timestamp dt:dt="int">0</Timestamp><DateUtc dt:dt="string">2015-08-14T09:12:02Z</DateUtc></StartTime><FrequencyChanges><FrequencyChange><Frequency dt:dt="r8">2612304</Frequency><Timestamp dt:dt="r8">9000000130</Timestamp><Current dt:dt="r8">0</Current><DateUtc dt:dt="string">2015-08-14T09:12:02Z</DateUtc></FrequencyChange></FrequencyChanges></Clock>\n	1 ver1_main_procedure-25-1	99.938	1.0.0.880	1	md	410560569	prawa	1	2.0.10.182	08-14-2015	2015-08-14 09:12:02	11:12:02	mezczyzna	2.0.10.92	3	6	1	1																							l	{SPACE}		no	BlockProc2		BlockList									46	Free	dl	color_blue.png		-1	11	345734	460																								25	prime_left.png	0	345304	0	0	13	0	345304	0	345304	1	345304	20	0	-1	343805	345304	345303	0		TrialProc1	left	0		0	10	345614	-345614		0	0	TrialList2	target_both.png	0	dl	-1	3	345354	260	l	369	345723															7	1	46	comp			450
1 ver1_main_procedure	25	1	21	<?xml version="1.0"?>\n<Clock xmlns:dt="urn:schemas-microsoft-com:datatypes"><Description dt:dt="string">E-Prime Primary Realtime Clock</Description><StartTime><Timestamp dt:dt="int">0</Timestamp><DateUtc dt:dt="string">2015-08-14T09:12:02Z</DateUtc></StartTime><FrequencyChanges><FrequencyChange><Frequency dt:dt="r8">2612304</Frequency><Timestamp dt:dt="r8">9000000130</Timestamp><Current dt:dt="r8">0</Current><DateUtc dt:dt="string">2015-08-14T09:12:02Z</DateUtc></FrequencyChange></FrequencyChanges></Clock>\n	1 ver1_main_procedure-25-1	99.938	1.0.0.880	1	md	410560569	prawa	1	2.0.10.182	08-14-2015	2015-08-14 09:12:02	11:12:02	mezczyzna	2.0.10.92	3	6	1	1																							l	{SPACE}		no	BlockProc2		BlockList									47	Free	dl	color_yellow.png		-1	16	348315	461																			1					25	prime_left.png	0	348005	0	0	13	1	348006	1	348006	1	348005	20	0	-1	346506	348005	348004	0	prime_left.png	TrialProc1	left	0		0	0	0	0		0	0	TrialList2	target_both.png	0	dl	-999999	3	348055	0	l	244	348299															8	1	47	neut			450
1 ver1_main_procedure	25	1	21	<?xml version="1.0"?>\n<Clock xmlns:dt="urn:schemas-microsoft-com:datatypes"><Description dt:dt="string">E-Prime Primary Realtime Clock</Description><StartTime><Timestamp dt:dt="int">0</Timestamp><DateUtc dt:dt="string">2015-08-14T09:12:02Z</DateUtc></StartTime><FrequencyChanges><FrequencyChange><Frequency dt:dt="r8">2612304</Frequency><Timestamp dt:dt="r8">9000000130</Timestamp><Current dt:dt="r8">0</Current><DateUtc dt:dt="string">2015-08-14T09:12:02Z</DateUtc></FrequencyChange></FrequencyChanges></Clock>\n	1 ver1_main_procedure-25-1	99.938	1.0.0.880	1	md	410560569	prawa	1	2.0.10.182	08-14-2015	2015-08-14 09:12:02	11:12:02	mezczyzna	2.0.10.92	3	6	1	1																							l	{SPACE}		no	BlockProc2		BlockList									48	Free	dl	color_yellow.png		-1	5	350937	460																			2					25	prime_right.png	0	350587	0	0	13	0	350587	0	350587	1	350587	20	0	-1	349088	350587	350586	0	prime_right.png	TrialProc1	left	0		0	10	350897	-350897		0	0	TrialList2	target_both.png	0	dl	-1	3	350637	260	l	294	350931															8	1	48	neut			450
1 ver1_main_procedure	25	1	21	<?xml version="1.0"?>\n<Clock xmlns:dt="urn:schemas-microsoft-com:datatypes"><Description dt:dt="string">E-Prime Primary Realtime Clock</Description><StartTime><Timestamp dt:dt="int">0</Timestamp><DateUtc dt:dt="string">2015-08-14T09:12:02Z</DateUtc></StartTime><FrequencyChanges><FrequencyChange><Frequency dt:dt="r8">2612304</Frequency><Timestamp dt:dt="r8">9000000130</Timestamp><Current dt:dt="r8">0</Current><DateUtc dt:dt="string">2015-08-14T09:12:02Z</DateUtc></FrequencyChange></FrequencyChanges></Clock>\n	1 ver1_main_procedure-25-1	99.938	1.0.0.880	1	md	410560569	prawa	1	2.0.10.182	08-14-2015	2015-08-14 09:12:02	11:12:02	mezczyzna	2.0.10.92	3	6	1	1																							l	{SPACE}		no	BlockProc2		BlockList									49	Free	dl	color_purple.png		-1	13	353609	160																								75	prime_right.png	0	353208	0	0	13	0	353209	0	353208	0	353208	20	0	-1	351709	353208	353208	0		TrialProc1	right	0		0	11	353519	-353519		0	0	TrialList2	target_both.png	0	dl	-1	3	353258	261	d	337	353595															10	1	49	comp			150
1 ver1_main_procedure	25	1	21	<?xml version="1.0"?>\n<Clock xmlns:dt="urn:schemas-microsoft-com:datatypes"><Description dt:dt="string">E-Prime Primary Realtime Clock</Description><StartTime><Timestamp dt:dt="int">0</Timestamp><DateUtc dt:dt="string">2015-08-14T09:12:02Z</DateUtc></StartTime><FrequencyChanges><FrequencyChange><Frequency dt:dt="r8">2612304</Frequency><Timestamp dt:dt="r8">9000000130</Timestamp><Current dt:dt="r8">0</Current><DateUtc dt:dt="string">2015-08-14T09:12:02Z</DateUtc></FrequencyChange></FrequencyChanges></Clock>\n	1 ver1_main_procedure-25-1	99.938	1.0.0.880	1	md	410560569	prawa	1	2.0.10.182	08-14-2015	2015-08-14 09:12:02	11:12:02	mezczyzna	2.0.10.92	3	6	1	1																							l	{SPACE}		no	BlockProc2		BlockList									50	Free	dl	color_blue.png		-1	12	355880	310																								75	prime_left.png	0	355580	0	0	13	0	355580	0	355580	1	355580	20	0	-1	354081	355580	355579	0		TrialProc1	right	0		0	0	0	0		0	0	TrialList2	target_both.png	0	dl	-999999	3	355630	0	l	237	355867															12	1	50	incomp			300
1 ver1_main_procedure	25	1	21	<?xml version="1.0"?>\n<Clock xmlns:dt="urn:schemas-microsoft-com:datatypes"><Description dt:dt="string">E-Prime Primary Realtime Clock</Description><StartTime><Timestamp dt:dt="int">0</Timestamp><DateUtc dt:dt="string">2015-08-14T09:12:02Z</DateUtc></StartTime><FrequencyChanges><FrequencyChange><Frequency dt:dt="r8">2612304</Frequency><Timestamp dt:dt="r8">9000000130</Timestamp><Current dt:dt="r8">0</Current><DateUtc dt:dt="string">2015-08-14T09:12:02Z</DateUtc></FrequencyChange></FrequencyChanges></Clock>\n	1 ver1_main_procedure-25-1	99.938	1.0.0.880	1	md	410560569	prawa	1	2.0.10.182	08-14-2015	2015-08-14 09:12:02	11:12:02	mezczyzna	2.0.10.92	3	6	1	1																							l	{SPACE}		no	BlockProc2		BlockList									51	Free	dl	color_yellow.png		-1	7	358251	311																			1					75	prime_left.png	0	358001	0	0	13	0	358001	0	358001	1	358001	20	0	-1	356502	358001	358000	0	prime_left.png	TrialProc1	left	0		0	0	0	0		0	0	TrialList2	target_both.png	0	dl	-999999	3	358051	0	l	192	358243															8	1	51	neut			300
1 ver1_main_procedure	25	1	21	<?xml version="1.0"?>\n<Clock xmlns:dt="urn:schemas-microsoft-com:datatypes"><Description dt:dt="string">E-Prime Primary Realtime Clock</Description><StartTime><Timestamp dt:dt="int">0</Timestamp><DateUtc dt:dt="string">2015-08-14T09:12:02Z</DateUtc></StartTime><FrequencyChanges><FrequencyChange><Frequency dt:dt="r8">2612304</Frequency><Timestamp dt:dt="r8">9000000130</Timestamp><Current dt:dt="r8">0</Current><DateUtc dt:dt="string">2015-08-14T09:12:02Z</DateUtc></FrequencyChange></FrequencyChanges></Clock>\n	1 ver1_main_procedure-25-1	99.938	1.0.0.880	1	md	410560569	prawa	1	2.0.10.182	08-14-2015	2015-08-14 09:12:02	11:12:02	mezczyzna	2.0.10.92	3	6	1	1																							l	{SPACE}		no	BlockProc2		BlockList									52	Free	dl	color_orange.png		-1	9	360653	460																								25	prime_right.png	0	360373	0	0	13	0	360373	0	360373	1	360373	20	0	-1	358873	360373	360372	0		TrialProc1	left	0		0	0	0	0		0	0	TrialList2	target_both.png	0	dl	-999999	3	360423	0	l	220	360643															9	1	52	incomp			450
1 ver1_main_procedure	25	1	21	<?xml version="1.0"?>\n<Clock xmlns:dt="urn:schemas-microsoft-com:datatypes"><Description dt:dt="string">E-Prime Primary Realtime Clock</Description><StartTime><Timestamp dt:dt="int">0</Timestamp><DateUtc dt:dt="string">2015-08-14T09:12:02Z</DateUtc></StartTime><FrequencyChanges><FrequencyChange><Frequency dt:dt="r8">2612304</Frequency><Timestamp dt:dt="r8">9000000130</Timestamp><Current dt:dt="r8">0</Current><DateUtc dt:dt="string">2015-08-14T09:12:02Z</DateUtc></FrequencyChange></FrequencyChanges></Clock>\n	1 ver1_main_procedure-25-1	99.938	1.0.0.880	1	md	410560569	prawa	1	2.0.10.182	08-14-2015	2015-08-14 09:12:02	11:12:02	mezczyzna	2.0.10.92	3	6	1	1																							l	{SPACE}		no	BlockProc2		BlockList									53	Free	dl	color_yellow.png		-1	8	363204	461																			2					25	prime_right.png	0	362924	0	0	13	0	362924	0	362924	1	362924	20	0	-1	361425	362924	362923	0	prime_right.png	TrialProc1	left	0		0	0	0	0		0	0	TrialList2	target_both.png	0	dl	-999999	3	362974	0	l	221	363195															8	1	53	neut			450
1 ver1_main_procedure	25	1	21	<?xml version="1.0"?>\n<Clock xmlns:dt="urn:schemas-microsoft-com:datatypes"><Description dt:dt="string">E-Prime Primary Realtime Clock</Description><StartTime><Timestamp dt:dt="int">0</Timestamp><DateUtc dt:dt="string">2015-08-14T09:12:02Z</DateUtc></StartTime><FrequencyChanges><FrequencyChange><Frequency dt:dt="r8">2612304</Frequency><Timestamp dt:dt="r8">9000000130</Timestamp><Current dt:dt="r8">0</Current><DateUtc dt:dt="string">2015-08-14T09:12:02Z</DateUtc></FrequencyChange></FrequencyChanges></Clock>\n	1 ver1_main_procedure-25-1	99.938	1.0.0.880	1	md	410560569	prawa	1	2.0.10.182	08-14-2015	2015-08-14 09:12:02	11:12:02	mezczyzna	2.0.10.92	3	6	1	1																							l	{SPACE}		no	BlockProc2		BlockList									54	Free	dl	color_blue.png		-1	14	365826	310																								25	prime_left.png	0	365476	0	0	13	0	365476	0	365476	1	365476	20	0	-1	363976	365476	365475	0		TrialProc1	right	0		0	10	365786	-365786		0	0	TrialList2	target_both.png	0	dl	-1	3	365526	260	l	285	365811															12	1	54	incomp			300
1 ver1_main_procedure	25	1	21	<?xml version="1.0"?>\n<Clock xmlns:dt="urn:schemas-microsoft-com:datatypes"><Description dt:dt="string">E-Prime Primary Realtime Clock</Description><StartTime><Timestamp dt:dt="int">0</Timestamp><DateUtc dt:dt="string">2015-08-14T09:12:02Z</DateUtc></StartTime><FrequencyChanges><FrequencyChange><Frequency dt:dt="r8">2612304</Frequency><Timestamp dt:dt="r8">9000000130</Timestamp><Current dt:dt="r8">0</Current><DateUtc dt:dt="string">2015-08-14T09:12:02Z</DateUtc></FrequencyChange></FrequencyChanges></Clock>\n	1 ver1_main_procedure-25-1	99.938	1.0.0.880	1	md	410560569	prawa	1	2.0.10.182	08-14-2015	2015-08-14 09:12:02	11:12:02	mezczyzna	2.0.10.92	3	6	1	1																							l	{SPACE}		no	BlockProc2		BlockList									55	Free	dl	color_purple.png		-1	11	368287	461																								75	prime_right.png	0	367947	0	0	13	0	367947	0	367947	1	367947	20	0	-1	366448	367947	367946	0		TrialProc1	right	0		0	10	368257	-368257		0	0	TrialList2	target_both.png	0	dl	-1	3	367997	260	d	278	368275															10	1	55	comp			450
1 ver1_main_procedure	25	1	21	<?xml version="1.0"?>\n<Clock xmlns:dt="urn:schemas-microsoft-com:datatypes"><Description dt:dt="string">E-Prime Primary Realtime Clock</Description><StartTime><Timestamp dt:dt="int">0</Timestamp><DateUtc dt:dt="string">2015-08-14T09:12:02Z</DateUtc></StartTime><FrequencyChanges><FrequencyChange><Frequency dt:dt="r8">2612304</Frequency><Timestamp dt:dt="r8">9000000130</Timestamp><Current dt:dt="r8">0</Current><DateUtc dt:dt="string">2015-08-14T09:12:02Z</DateUtc></FrequencyChange></FrequencyChanges></Clock>\n	1 ver1_main_procedure-25-1	99.938	1.0.0.880	1	md	410560569	prawa	1	2.0.10.182	08-14-2015	2015-08-14 09:12:02	11:12:02	mezczyzna	2.0.10.92	3	6	1	1																							l	{SPACE}		no	BlockProc2		BlockList									56	Free	dl	color_purple.png		-1	5	370929	310																								75	prime_right.png	0	370559	0	0	13	0	370559	0	370559	1	370559	20	0	-1	369059	370559	370558	0		TrialProc1	left	0		0	10	370869	-370869		0	0	TrialList2	target_both.png	0	dl	-1	3	370609	260	d	314	370923															9	1	56	incomp			300
1 ver1_main_procedure	25	1	21	<?xml version="1.0"?>\n<Clock xmlns:dt="urn:schemas-microsoft-com:datatypes"><Description dt:dt="string">E-Prime Primary Realtime Clock</Description><StartTime><Timestamp dt:dt="int">0</Timestamp><DateUtc dt:dt="string">2015-08-14T09:12:02Z</DateUtc></StartTime><FrequencyChanges><FrequencyChange><Frequency dt:dt="r8">2612304</Frequency><Timestamp dt:dt="r8">9000000130</Timestamp><Current dt:dt="r8">0</Current><DateUtc dt:dt="string">2015-08-14T09:12:02Z</DateUtc></FrequencyChange></FrequencyChanges></Clock>\n	1 ver1_main_procedure-25-1	99.938	1.0.0.880	1	md	410560569	prawa	1	2.0.10.182	08-14-2015	2015-08-14 09:12:02	11:12:02	mezczyzna	2.0.10.92	3	6	1	1																							l	{SPACE}		no	BlockProc2		BlockList									57	Cued	d	color_green.png		-1	6	373410	461																								75	prime_left.png	0	373050	0	0	13	0	373050	0	373050	1	373050	20	0	-1	371551	373050	373049	0		TrialProc1	left	0		1	10	373360	-373360		0	0	TrialList2	target_left.png	1	d	-1	3	373100	260	d	303	373403															1	1	57	comp			450
1 ver1_main_procedure	25	1	21	<?xml version="1.0"?>\n<Clock xmlns:dt="urn:schemas-microsoft-com:datatypes"><Description dt:dt="string">E-Prime Primary Realtime Clock</Description><StartTime><Timestamp dt:dt="int">0</Timestamp><DateUtc dt:dt="string">2015-08-14T09:12:02Z</DateUtc></StartTime><FrequencyChanges><FrequencyChange><Frequency dt:dt="r8">2612304</Frequency><Timestamp dt:dt="r8">9000000130</Timestamp><Current dt:dt="r8">0</Current><DateUtc dt:dt="string">2015-08-14T09:12:02Z</DateUtc></FrequencyChange></FrequencyChanges></Clock>\n	1 ver1_main_procedure-25-1	99.938	1.0.0.880	1	md	410560569	prawa	1	2.0.10.182	08-14-2015	2015-08-14 09:12:02	11:12:02	mezczyzna	2.0.10.92	3	6	1	1																							l	{SPACE}		no	BlockProc2		BlockList									58	Cued	d	color_red.png		-1	12	376032	460																			1					25	prime_left.png	0	375682	0	0	13	0	375682	0	375682	1	375682	20	0	-1	374182	375682	375681	0	prime_left.png	TrialProc1	left	0		0	10	375992	-375992		0	0	TrialList2	target_left.png	1	d	-1	3	375732	260	d	287	376019															2	1	58	neut			450
1 ver1_main_procedure	25	1	21	<?xml version="1.0"?>\n<Clock xmlns:dt="urn:schemas-microsoft-com:datatypes"><Description dt:dt="string">E-Prime Primary Realtime Clock</Description><StartTime><Timestamp dt:dt="int">0</Timestamp><DateUtc dt:dt="string">2015-08-14T09:12:02Z</DateUtc></StartTime><FrequencyChanges><FrequencyChange><Frequency dt:dt="r8">2612304</Frequency><Timestamp dt:dt="r8">9000000130</Timestamp><Current dt:dt="r8">0</Current><DateUtc dt:dt="string">2015-08-14T09:12:02Z</DateUtc></FrequencyChange></FrequencyChanges></Clock>\n	1 ver1_main_procedure-25-1	99.938	1.0.0.880	1	md	410560569	prawa	1	2.0.10.182	08-14-2015	2015-08-14 09:12:02	11:12:02	mezczyzna	2.0.10.92	3	6	1	1																							l	{SPACE}		no	BlockProc2		BlockList									59	Free	dl	color_green.png		-1	6	378674	160																								25	prime_left.png	0	378303	0	0	13	0	378303	0	378303	1	378303	20	0	-1	376804	378303	378302	0		TrialProc1	right	0		1	10	378613	-378613		0	0	TrialList2	target_both.png	0	dl	-1	3	378353	260	d	314	378667															12	1	59	incomp			150
1 ver1_main_procedure	25	1	21	<?xml version="1.0"?>\n<Clock xmlns:dt="urn:schemas-microsoft-com:datatypes"><Description dt:dt="string">E-Prime Primary Realtime Clock</Description><StartTime><Timestamp dt:dt="int">0</Timestamp><DateUtc dt:dt="string">2015-08-14T09:12:02Z</DateUtc></StartTime><FrequencyChanges><FrequencyChange><Frequency dt:dt="r8">2612304</Frequency><Timestamp dt:dt="r8">9000000130</Timestamp><Current dt:dt="r8">0</Current><DateUtc dt:dt="string">2015-08-14T09:12:02Z</DateUtc></FrequencyChange></FrequencyChanges></Clock>\n	1 ver1_main_procedure-25-1	99.938	1.0.0.880	1	md	410560569	prawa	1	2.0.10.182	08-14-2015	2015-08-14 09:12:02	11:12:02	mezczyzna	2.0.10.92	3	6	1	1																							l	{SPACE}		no	BlockProc2		BlockList									60	Cued	l			-1	9	381045	310																			2					25	prime_right.png	0	380645	0	0	13	0	380645	0	380645	1	380645	20	0	-1	379145	380645	380644	0	prime_right.png	TrialProc1	right	0		0	10	380955	-380955		0	0	TrialList2	target_right.png	0	l	-1	3	380695	260	d	340	381035															5	1	60	neut			300
1 ver1_main_procedure	25	1	21	<?xml version="1.0"?>\n<Clock xmlns:dt="urn:schemas-microsoft-com:datatypes"><Description dt:dt="string">E-Prime Primary Realtime Clock</Description><StartTime><Timestamp dt:dt="int">0</Timestamp><DateUtc dt:dt="string">2015-08-14T09:12:02Z</DateUtc></StartTime><FrequencyChanges><FrequencyChange><Frequency dt:dt="r8">2612304</Frequency><Timestamp dt:dt="r8">9000000130</Timestamp><Current dt:dt="r8">0</Current><DateUtc dt:dt="string">2015-08-14T09:12:02Z</DateUtc></FrequencyChange></FrequencyChanges></Clock>\n	1 ver1_main_procedure-25-1	99.938	1.0.0.880	1	md	410560569	prawa	1	2.0.10.182	08-14-2015	2015-08-14 09:12:02	11:12:02	mezczyzna	2.0.10.92	3	6	1	1																							l	{SPACE}		no	BlockProc2		BlockList									61	Free	dl	color_blue.png		-1	6	383506	160																								75	prime_left.png	0	383166	0	0	13	0	383166	0	383166	1	383166	20	0	-1	381667	383166	383165	0		TrialProc1	right	0		1	10	383476	-383476		0	0	TrialList2	target_both.png	0	dl	-1	3	383216	260	l	283	383499															12	1	61	incomp			150
1 ver1_main_procedure	25	1	21	<?xml version="1.0"?>\n<Clock xmlns:dt="urn:schemas-microsoft-com:datatypes"><Description dt:dt="string">E-Prime Primary Realtime Clock</Description><StartTime><Timestamp dt:dt="int">0</Timestamp><DateUtc dt:dt="string">2015-08-14T09:12:02Z</DateUtc></StartTime><FrequencyChanges><FrequencyChange><Frequency dt:dt="r8">2612304</Frequency><Timestamp dt:dt="r8">9000000130</Timestamp><Current dt:dt="r8">0</Current><DateUtc dt:dt="string">2015-08-14T09:12:02Z</DateUtc></FrequencyChange></FrequencyChanges></Clock>\n	1 ver1_main_procedure-25-1	99.938	1.0.0.880	1	md	410560569	prawa	1	2.0.10.182	08-14-2015	2015-08-14 09:12:02	11:12:02	mezczyzna	2.0.10.92	3	6	1	1																							l	{SPACE}		no	BlockProc2		BlockList									62	Free	dl	color_orange.png		-1	14	385818	160																								75	prime_right.png	0	385478	0	0	13	0	385478	0	385478	1	385478	20	0	-1	383978	385478	385477	0		TrialProc1	right	0		0	10	385788	-385788		0	0	TrialList2	target_both.png	0	dl	-1	3	385528	260	l	276	385804															10	1	62	comp			150
1 ver1_main_procedure	25	1	21	<?xml version="1.0"?>\n<Clock xmlns:dt="urn:schemas-microsoft-com:datatypes"><Description dt:dt="string">E-Prime Primary Realtime Clock</Description><StartTime><Timestamp dt:dt="int">0</Timestamp><DateUtc dt:dt="string">2015-08-14T09:12:02Z</DateUtc></StartTime><FrequencyChanges><FrequencyChange><Frequency dt:dt="r8">2612304</Frequency><Timestamp dt:dt="r8">9000000130</Timestamp><Current dt:dt="r8">0</Current><DateUtc dt:dt="string">2015-08-14T09:12:02Z</DateUtc></FrequencyChange></FrequencyChanges></Clock>\n	1 ver1_main_procedure-25-1	99.938	1.0.0.880	1	md	410560569	prawa	1	2.0.10.182	08-14-2015	2015-08-14 09:12:02	11:12:02	mezczyzna	2.0.10.92	3	6	1	1																							l	{SPACE}		no	BlockProc2		BlockList									63	Cued	d	color_green.png		-1	11	388319	310																								25	prime_left.png	0	387789	0	0	13	0	387789	0	387789	1	387789	20	0	-1	386290	387789	387788	0		TrialProc1	left	0		0	10	388099	-388099		0	0	TrialList2	target_left.png	1	d	-1	3	387839	260	d	469	388308															1	1	63	comp			300
1 ver1_main_procedure	25	1	21	<?xml version="1.0"?>\n<Clock xmlns:dt="urn:schemas-microsoft-com:datatypes"><Description dt:dt="string">E-Prime Primary Realtime Clock</Description><StartTime><Timestamp dt:dt="int">0</Timestamp><DateUtc dt:dt="string">2015-08-14T09:12:02Z</DateUtc></StartTime><FrequencyChanges><FrequencyChange><Frequency dt:dt="r8">2612304</Frequency><Timestamp dt:dt="r8">9000000130</Timestamp><Current dt:dt="r8">0</Current><DateUtc dt:dt="string">2015-08-14T09:12:02Z</DateUtc></FrequencyChange></FrequencyChanges></Clock>\n	1 ver1_main_procedure-25-1	99.938	1.0.0.880	1	md	410560569	prawa	1	2.0.10.182	08-14-2015	2015-08-14 09:12:02	11:12:02	mezczyzna	2.0.10.92	3	6	1	1																							l	{SPACE}		no	BlockProc2		BlockList									64	Cued	d	color_green.png		-1	11	390791	460																								25	prime_left.png	0	390441	0	0	13	0	390441	0	390441	1	390441	20	0	-1	388941	390441	390440	0		TrialProc1	left	0		0	10	390751	-390751		0	0	TrialList2	target_left.png	1	d	-1	3	390491	260	d	289	390780															1	1	64	comp			450
1 ver1_main_procedure	25	1	21	<?xml version="1.0"?>\n<Clock xmlns:dt="urn:schemas-microsoft-com:datatypes"><Description dt:dt="string">E-Prime Primary Realtime Clock</Description><StartTime><Timestamp dt:dt="int">0</Timestamp><DateUtc dt:dt="string">2015-08-14T09:12:02Z</DateUtc></StartTime><FrequencyChanges><FrequencyChange><Frequency dt:dt="r8">2612304</Frequency><Timestamp dt:dt="r8">9000000130</Timestamp><Current dt:dt="r8">0</Current><DateUtc dt:dt="string">2015-08-14T09:12:02Z</DateUtc></FrequencyChange></FrequencyChanges></Clock>\n	1 ver1_main_procedure-25-1	99.938	1.0.0.880	1	md	410560569	prawa	1	2.0.10.182	08-14-2015	2015-08-14 09:12:02	11:12:02	mezczyzna	2.0.10.92	3	6	1	1																							l	{SPACE}		no	BlockProc2		BlockList									65	Free	dl	color_purple.png		-1	6	393602	461																								75	prime_right.png	0	393062	0	0	13	0	393062	0	393062	1	393062	20	0	-1	391563	393062	393061	0		TrialProc1	left	0		1	10	393372	-393372		0	0	TrialList2	target_both.png	0	dl	-1	3	393112	260	d	484	393596															9	1	65	incomp			450
1 ver1_main_procedure	25	1	21	<?xml version="1.0"?>\n<Clock xmlns:dt="urn:schemas-microsoft-com:datatypes"><Description dt:dt="string">E-Prime Primary Realtime Clock</Description><StartTime><Timestamp dt:dt="int">0</Timestamp><DateUtc dt:dt="string">2015-08-14T09:12:02Z</DateUtc></StartTime><FrequencyChanges><FrequencyChange><Frequency dt:dt="r8">2612304</Frequency><Timestamp dt:dt="r8">9000000130</Timestamp><Current dt:dt="r8">0</Current><DateUtc dt:dt="string">2015-08-14T09:12:02Z</DateUtc></FrequencyChange></FrequencyChanges></Clock>\n	1 ver1_main_procedure-25-1	99.938	1.0.0.880	1	md	410560569	prawa	1	2.0.10.182	08-14-2015	2015-08-14 09:12:02	11:12:02	mezczyzna	2.0.10.92	3	6	1	1																							l	{SPACE}		no	BlockProc2		BlockList									66	Free	dl	color_yellow.png		-1	8	396204	310																			1					75	prime_left.png	0	395874	0	0	13	0	395874	0	395874	1	395874	20	0	-1	394375	395874	395873	0	prime_left.png	TrialProc1	right	0		0	10	396184	-396184		0	0	TrialList2	target_both.png	0	dl	-1	3	395924	260	l	272	396196															11	1	66	neut			300
1 ver1_main_procedure	25	1	21	<?xml version="1.0"?>\n<Clock xmlns:dt="urn:schemas-microsoft-com:datatypes"><Description dt:dt="string">E-Prime Primary Realtime Clock</Description><StartTime><Timestamp dt:dt="int">0</Timestamp><DateUtc dt:dt="string">2015-08-14T09:12:02Z</DateUtc></StartTime><FrequencyChanges><FrequencyChange><Frequency dt:dt="r8">2612304</Frequency><Timestamp dt:dt="r8">9000000130</Timestamp><Current dt:dt="r8">0</Current><DateUtc dt:dt="string">2015-08-14T09:12:02Z</DateUtc></FrequencyChange></FrequencyChanges></Clock>\n	1 ver1_main_procedure-25-1	99.938	1.0.0.880	1	md	410560569	prawa	1	2.0.10.182	08-14-2015	2015-08-14 09:12:02	11:12:02	mezczyzna	2.0.10.92	3	6	1	1																							l	{SPACE}		no	BlockProc2		BlockList									67	Free	dl	color_yellow.png		-1	12	398736	310																			2					75	prime_right.png	0	398325	0	0	13	1	398326	1	398326	1	398325	20	0	-1	396826	398325	398324	0	prime_right.png	TrialProc1	right	0		1	10	398635	-398635		0	0	TrialList2	target_both.png	0	dl	-1	3	398375	260	l	349	398724															11	1	67	neut			300
1 ver1_main_procedure	25	1	21	<?xml version="1.0"?>\n<Clock xmlns:dt="urn:schemas-microsoft-com:datatypes"><Description dt:dt="string">E-Prime Primary Realtime Clock</Description><StartTime><Timestamp dt:dt="int">0</Timestamp><DateUtc dt:dt="string">2015-08-14T09:12:02Z</DateUtc></StartTime><FrequencyChanges><FrequencyChange><Frequency dt:dt="r8">2612304</Frequency><Timestamp dt:dt="r8">9000000130</Timestamp><Current dt:dt="r8">0</Current><DateUtc dt:dt="string">2015-08-14T09:12:02Z</DateUtc></FrequencyChange></FrequencyChanges></Clock>\n	1 ver1_main_procedure-25-1	99.938	1.0.0.880	1	md	410560569	prawa	1	2.0.10.182	08-14-2015	2015-08-14 09:12:02	11:12:02	mezczyzna	2.0.10.92	3	6	1	1																							l	{SPACE}		no	BlockProc2		BlockList									68	Free	dl	color_orange.png		-1	14	401147	310																								75	prime_right.png	0	400857	0	0	13	0	400857	0	400857	1	400857	20	0	-1	399357	400857	400856	0		TrialProc1	left	0		0	0	0	0		0	0	TrialList2	target_both.png	0	dl	-999999	3	400907	0	l	225	401132															9	1	68	incomp			300
1 ver1_main_procedure	25	1	21	<?xml version="1.0"?>\n<Clock xmlns:dt="urn:schemas-microsoft-com:datatypes"><Description dt:dt="string">E-Prime Primary Realtime Clock</Description><StartTime><Timestamp dt:dt="int">0</Timestamp><DateUtc dt:dt="string">2015-08-14T09:12:02Z</DateUtc></StartTime><FrequencyChanges><FrequencyChange><Frequency dt:dt="r8">2612304</Frequency><Timestamp dt:dt="r8">9000000130</Timestamp><Current dt:dt="r8">0</Current><DateUtc dt:dt="string">2015-08-14T09:12:02Z</DateUtc></FrequencyChange></FrequencyChanges></Clock>\n	1 ver1_main_procedure-25-1	99.938	1.0.0.880	1	md	410560569	prawa	1	2.0.10.182	08-14-2015	2015-08-14 09:12:02	11:12:02	mezczyzna	2.0.10.92	3	6	1	1																							l	{SPACE}		no	BlockProc2		BlockList									69	Free	dl	color_blue.png		-1	11	403568	160																								75	prime_left.png	0	403268	0	0	13	0	403268	0	403268	1	403268	20	0	-1	401769	403268	403267	0		TrialProc1	right	0		0	0	0	0		0	0	TrialList2	target_both.png	0	dl	-999999	3	403318	0	l	238	403556															12	1	69	incomp			150
1 ver1_main_procedure	25	1	21	<?xml version="1.0"?>\n<Clock xmlns:dt="urn:schemas-microsoft-com:datatypes"><Description dt:dt="string">E-Prime Primary Realtime Clock</Description><StartTime><Timestamp dt:dt="int">0</Timestamp><DateUtc dt:dt="string">2015-08-14T09:12:02Z</DateUtc></StartTime><FrequencyChanges><FrequencyChange><Frequency dt:dt="r8">2612304</Frequency><Timestamp dt:dt="r8">9000000130</Timestamp><Current dt:dt="r8">0</Current><DateUtc dt:dt="string">2015-08-14T09:12:02Z</DateUtc></FrequencyChange></FrequencyChanges></Clock>\n	1 ver1_main_procedure-25-1	99.938	1.0.0.880	1	md	410560569	prawa	1	2.0.10.182	08-14-2015	2015-08-14 09:12:02	11:12:02	mezczyzna	2.0.10.92	3	6	1	1																							l	{SPACE}		no	BlockProc2		BlockList									70	Free	dl	color_green.png		-1	9	405910	310																								25	prime_left.png	0	405540	0	0	13	0	405540	0	405540	1	405540	20	0	-1	404040	405540	405539	0		TrialProc1	left	0		0	10	405850	-405850		0	0	TrialList2	target_both.png	0	dl	-1	3	405590	260	d	310	405900															7	1	70	comp			300
1 ver1_main_procedure	25	1	21	<?xml version="1.0"?>\n<Clock xmlns:dt="urn:schemas-microsoft-com:datatypes"><Description dt:dt="string">E-Prime Primary Realtime Clock</Description><StartTime><Timestamp dt:dt="int">0</Timestamp><DateUtc dt:dt="string">2015-08-14T09:12:02Z</DateUtc></StartTime><FrequencyChanges><FrequencyChange><Frequency dt:dt="r8">2612304</Frequency><Timestamp dt:dt="r8">9000000130</Timestamp><Current dt:dt="r8">0</Current><DateUtc dt:dt="string">2015-08-14T09:12:02Z</DateUtc></FrequencyChange></FrequencyChanges></Clock>\n	1 ver1_main_procedure-25-1	99.938	1.0.0.880	1	md	410560569	prawa	1	2.0.10.182	08-14-2015	2015-08-14 09:12:02	11:12:02	mezczyzna	2.0.10.92	3	6	1	1																							l	{SPACE}		no	BlockProc2		BlockList									71	Cued	l			-1	14	408451	310																								25	prime_right.png	0	408031	0	0	13	0	408031	0	408031	1	408031	20	0	-1	406532	408031	408030	0		TrialProc1	right	0		0	10	408341	-408341		0	0	TrialList2	target_right.png	0	l	-1	3	408081	260	d	355	408436															4	1	71	comp			300
1 ver1_main_procedure	25	1	21	<?xml version="1.0"?>\n<Clock xmlns:dt="urn:schemas-microsoft-com:datatypes"><Description dt:dt="string">E-Prime Primary Realtime Clock</Description><StartTime><Timestamp dt:dt="int">0</Timestamp><DateUtc dt:dt="string">2015-08-14T09:12:02Z</DateUtc></StartTime><FrequencyChanges><FrequencyChange><Frequency dt:dt="r8">2612304</Frequency><Timestamp dt:dt="r8">9000000130</Timestamp><Current dt:dt="r8">0</Current><DateUtc dt:dt="string">2015-08-14T09:12:02Z</DateUtc></FrequencyChange></FrequencyChanges></Clock>\n	1 ver1_main_procedure-25-1	99.938	1.0.0.880	1	md	410560569	prawa	1	2.0.10.182	08-14-2015	2015-08-14 09:12:02	11:12:02	mezczyzna	2.0.10.92	3	6	1	1																							l	{SPACE}		no	BlockProc2		BlockList									72	Cued	d	color_red.png		-1	10	411103	310																			1					75	prime_left.png	0	410573	0	0	13	0	410573	0	410573	1	410573	20	0	-1	409073	410573	410572	0	prime_left.png	TrialProc1	left	0		0	10	410883	-410883		0	0	TrialList2	target_left.png	1	d	-1	3	410623	260	d	469	411092															2	1	72	neut			300
1 ver1_main_procedure	25	1	21	<?xml version="1.0"?>\n<Clock xmlns:dt="urn:schemas-microsoft-com:datatypes"><Description dt:dt="string">E-Prime Primary Realtime Clock</Description><StartTime><Timestamp dt:dt="int">0</Timestamp><DateUtc dt:dt="string">2015-08-14T09:12:02Z</DateUtc></StartTime><FrequencyChanges><FrequencyChange><Frequency dt:dt="r8">2612304</Frequency><Timestamp dt:dt="r8">9000000130</Timestamp><Current dt:dt="r8">0</Current><DateUtc dt:dt="string">2015-08-14T09:12:02Z</DateUtc></FrequencyChange></FrequencyChanges></Clock>\n	1 ver1_main_procedure-25-1	99.938	1.0.0.880	1	md	410560569	prawa	1	2.0.10.182	08-14-2015	2015-08-14 09:12:02	11:12:02	mezczyzna	2.0.10.92	3	6	1	1																							l	{SPACE}		no	BlockProc2		BlockList									73									5	2	1	6	4	3	color_red.png	color_blue.png	color_orange.png	color_green.png	color_purple.png	color_yellow.png	color_orange.png	color_blue.png	color_yellow.png	color_purple.png	color_red.png	color_green.png		1	1	1	29191																						DragProc											Ocena																															
1 ver1_main_procedure	25	1	21	<?xml version="1.0"?>\n<Clock xmlns:dt="urn:schemas-microsoft-com:datatypes"><Description dt:dt="string">E-Prime Primary Realtime Clock</Description><StartTime><Timestamp dt:dt="int">0</Timestamp><DateUtc dt:dt="string">2015-08-14T09:12:02Z</DateUtc></StartTime><FrequencyChanges><FrequencyChange><Frequency dt:dt="r8">2612304</Frequency><Timestamp dt:dt="r8">9000000130</Timestamp><Current dt:dt="r8">0</Current><DateUtc dt:dt="string">2015-08-14T09:12:02Z</DateUtc></FrequencyChange></FrequencyChanges></Clock>\n	1 ver1_main_procedure-25-1	99.938	1.0.0.880	1	md	410560569	prawa	1	2.0.10.182	08-14-2015	2015-08-14 09:12:02	11:12:02	mezczyzna	2.0.10.92	3	6	1	1																							l	{SPACE}		no	BlockProc2		BlockList									74															color_red.png	color_blue.png	color_orange.png	color_green.png	color_purple.png	color_yellow.png								2	1	2																							EnterProc											Ocena												10	25	33	45	55	65														
1 ver1_main_procedure	25	1	21	<?xml version="1.0"?>\n<Clock xmlns:dt="urn:schemas-microsoft-com:datatypes"><Description dt:dt="string">E-Prime Primary Realtime Clock</Description><StartTime><Timestamp dt:dt="int">0</Timestamp><DateUtc dt:dt="string">2015-08-14T09:12:02Z</DateUtc></StartTime><FrequencyChanges><FrequencyChange><Frequency dt:dt="r8">2612304</Frequency><Timestamp dt:dt="r8">9000000130</Timestamp><Current dt:dt="r8">0</Current><DateUtc dt:dt="string">2015-08-14T09:12:02Z</DateUtc></FrequencyChange></FrequencyChanges></Clock>\n	1 ver1_main_procedure-25-1	99.938	1.0.0.880	1	md	410560569	prawa	1	2.0.10.182	08-14-2015	2015-08-14 09:12:02	11:12:02	mezczyzna	2.0.10.92	4	4	1	2																							l	{SPACE}		no	BlockProc2		BlockList									1	Cued	d	color_red.png		-1	5	563333	311																								25	prime_left.png	0	562733	0	0	13	0	562733	0	562733	1	562733	20	0	-1	561234	562733	562732	0		TrialProc1	left	0		0	10	563043	-563043		0	0	TrialList2	target_left.png	1	d	-1	3	562783	260	d	544	563327															1	2	73	comp			300
1 ver1_main_procedure	25	1	21	<?xml version="1.0"?>\n<Clock xmlns:dt="urn:schemas-microsoft-com:datatypes"><Description dt:dt="string">E-Prime Primary Realtime Clock</Description><StartTime><Timestamp dt:dt="int">0</Timestamp><DateUtc dt:dt="string">2015-08-14T09:12:02Z</DateUtc></StartTime><FrequencyChanges><FrequencyChange><Frequency dt:dt="r8">2612304</Frequency><Timestamp dt:dt="r8">9000000130</Timestamp><Current dt:dt="r8">0</Current><DateUtc dt:dt="string">2015-08-14T09:12:02Z</DateUtc></FrequencyChange></FrequencyChanges></Clock>\n	1 ver1_main_procedure-25-1	99.938	1.0.0.880	1	md	410560569	prawa	1	2.0.10.182	08-14-2015	2015-08-14 09:12:02	11:12:02	mezczyzna	2.0.10.92	4	4	1	2																							l	{SPACE}		no	BlockProc2		BlockList									2	Free	dl	color_green.png		-1	9	565945	460																								25	prime_right.png	0	565455	0	0	13	0	565455	0	565455	1	565455	20	0	-1	563955	565455	565454	0		TrialProc1	right	0		0	10	565765	-565765		0	0	TrialList2	target_both.png	0	dl	-1	3	565505	260	d	430	565935															10	2	74	comp			450
1 ver1_main_procedure	25	1	21	<?xml version="1.0"?>\n<Clock xmlns:dt="urn:schemas-microsoft-com:datatypes"><Description dt:dt="string">E-Prime Primary Realtime Clock</Description><StartTime><Timestamp dt:dt="int">0</Timestamp><DateUtc dt:dt="string">2015-08-14T09:12:02Z</DateUtc></StartTime><FrequencyChanges><FrequencyChange><Frequency dt:dt="r8">2612304</Frequency><Timestamp dt:dt="r8">9000000130</Timestamp><Current dt:dt="r8">0</Current><DateUtc dt:dt="string">2015-08-14T09:12:02Z</DateUtc></FrequencyChange></FrequencyChanges></Clock>\n	1 ver1_main_procedure-25-1	99.938	1.0.0.880	1	md	410560569	prawa	1	2.0.10.182	08-14-2015	2015-08-14 09:12:02	11:12:02	mezczyzna	2.0.10.92	4	4	1	2																							l	{SPACE}		no	BlockProc2		BlockList									3	Free	dl	color_yellow.png		-1	15	568567	160																								75	prime_left.png	0	568216	0	0	13	0	568217	0	568216	1	568216	20	0	-1	566717	568216	568215	0		TrialProc1	right	0		1	10	568526	-568526		0	0	TrialList2	target_both.png	0	dl	-1	3	568266	260	l	285	568551															12	2	75	incomp			150
1 ver1_main_procedure	25	1	21	<?xml version="1.0"?>\n<Clock xmlns:dt="urn:schemas-microsoft-com:datatypes"><Description dt:dt="string">E-Prime Primary Realtime Clock</Description><StartTime><Timestamp dt:dt="int">0</Timestamp><DateUtc dt:dt="string">2015-08-14T09:12:02Z</DateUtc></StartTime><FrequencyChanges><FrequencyChange><Frequency dt:dt="r8">2612304</Frequency><Timestamp dt:dt="r8">9000000130</Timestamp><Current dt:dt="r8">0</Current><DateUtc dt:dt="string">2015-08-14T09:12:02Z</DateUtc></FrequencyChange></FrequencyChanges></Clock>\n	1 ver1_main_procedure-25-1	99.938	1.0.0.880	1	md	410560569	prawa	1	2.0.10.182	08-14-2015	2015-08-14 09:12:02	11:12:02	mezczyzna	2.0.10.92	4	4	1	2																							l	{SPACE}		no	BlockProc2		BlockList									4	Free	dl	color_yellow.png		-1	6	570878	310																								25	prime_left.png	0	570538	0	0	13	0	570538	0	570538	1	570538	20	0	-1	569039	570538	570537	0		TrialProc1	left	0		0	10	570848	-570848		0	0	TrialList2	target_both.png	0	dl	-1	3	570588	260	l	283	570871															7	2	76	comp			300
1 ver1_main_procedure	25	1	21	<?xml version="1.0"?>\n<Clock xmlns:dt="urn:schemas-microsoft-com:datatypes"><Description dt:dt="string">E-Prime Primary Realtime Clock</Description><StartTime><Timestamp dt:dt="int">0</Timestamp><DateUtc dt:dt="string">2015-08-14T09:12:02Z</DateUtc></StartTime><FrequencyChanges><FrequencyChange><Frequency dt:dt="r8">2612304</Frequency><Timestamp dt:dt="r8">9000000130</Timestamp><Current dt:dt="r8">0</Current><DateUtc dt:dt="string">2015-08-14T09:12:02Z</DateUtc></FrequencyChange></FrequencyChanges></Clock>\n	1 ver1_main_procedure-25-1	99.938	1.0.0.880	1	md	410560569	prawa	1	2.0.10.182	08-14-2015	2015-08-14 09:12:02	11:12:02	mezczyzna	2.0.10.92	4	4	1	2																							l	{SPACE}		no	BlockProc2		BlockList									5	Cued	l	color_blue.png		-1	7	573279	461																								75	prime_right.png	0	572999	0	0	13	0	572999	0	572999	1	572999	20	0	-1	571500	572999	572998	0		TrialProc1	right	0		0	0	0	0		0	0	TrialList2	target_right.png	1	l	-999999	3	573049	0	l	222	573271															4	2	77	comp			450
1 ver1_main_procedure	25	1	21	<?xml version="1.0"?>\n<Clock xmlns:dt="urn:schemas-microsoft-com:datatypes"><Description dt:dt="string">E-Prime Primary Realtime Clock</Description><StartTime><Timestamp dt:dt="int">0</Timestamp><DateUtc dt:dt="string">2015-08-14T09:12:02Z</DateUtc></StartTime><FrequencyChanges><FrequencyChange><Frequency dt:dt="r8">2612304</Frequency><Timestamp dt:dt="r8">9000000130</Timestamp><Current dt:dt="r8">0</Current><DateUtc dt:dt="string">2015-08-14T09:12:02Z</DateUtc></FrequencyChange></FrequencyChanges></Clock>\n	1 ver1_main_procedure-25-1	99.938	1.0.0.880	1	md	410560569	prawa	1	2.0.10.182	08-14-2015	2015-08-14 09:12:02	11:12:02	mezczyzna	2.0.10.92	4	4	1	2																							l	{SPACE}		no	BlockProc2		BlockList									6	Free	dl	color_blue.png		-1	15	575911	310																								75	prime_right.png	0	575551	0	0	13	0	575551	0	575551	1	575551	20	0	-1	574052	575551	575550	0		TrialProc1	left	0		0	10	575861	-575861		0	0	TrialList2	target_both.png	0	dl	-1	3	575601	260	l	294	575895															9	2	78	incomp			300
1 ver1_main_procedure	25	1	21	<?xml version="1.0"?>\n<Clock xmlns:dt="urn:schemas-microsoft-com:datatypes"><Description dt:dt="string">E-Prime Primary Realtime Clock</Description><StartTime><Timestamp dt:dt="int">0</Timestamp><DateUtc dt:dt="string">2015-08-14T09:12:02Z</DateUtc></StartTime><FrequencyChanges><FrequencyChange><Frequency dt:dt="r8">2612304</Frequency><Timestamp dt:dt="r8">9000000130</Timestamp><Current dt:dt="r8">0</Current><DateUtc dt:dt="string">2015-08-14T09:12:02Z</DateUtc></FrequencyChange></FrequencyChanges></Clock>\n	1 ver1_main_procedure-25-1	99.938	1.0.0.880	1	md	410560569	prawa	1	2.0.10.182	08-14-2015	2015-08-14 09:12:02	11:12:02	mezczyzna	2.0.10.92	4	4	1	2																							l	{SPACE}		no	BlockProc2		BlockList									7	Free	dl	color_purple.png		-1	12	578372	311																			2					75	prime_right.png	0	578032	0	0	13	0	578032	0	578032	1	578032	20	0	-1	576533	578032	578031	0	prime_right.png	TrialProc1	right	0		0	10	578342	-578342		0	0	TrialList2	target_both.png	0	dl	-1	3	578082	260	l	277	578359															11	2	79	neut			300
1 ver1_main_procedure	25	1	21	<?xml version="1.0"?>\n<Clock xmlns:dt="urn:schemas-microsoft-com:datatypes"><Description dt:dt="string">E-Prime Primary Realtime Clock</Description><StartTime><Timestamp dt:dt="int">0</Timestamp><DateUtc dt:dt="string">2015-08-14T09:12:02Z</DateUtc></StartTime><FrequencyChanges><FrequencyChange><Frequency dt:dt="r8">2612304</Frequency><Timestamp dt:dt="r8">9000000130</Timestamp><Current dt:dt="r8">0</Current><DateUtc dt:dt="string">2015-08-14T09:12:02Z</DateUtc></FrequencyChange></FrequencyChanges></Clock>\n	1 ver1_main_procedure-25-1	99.938	1.0.0.880	1	md	410560569	prawa	1	2.0.10.182	08-14-2015	2015-08-14 09:12:02	11:12:02	mezczyzna	2.0.10.92	4	4	1	2																							l	{SPACE}		no	BlockProc2		BlockList									8	Free	dl	color_purple.png		-1	8	580824	460																			1					75	prime_left.png	0	580494	0	0	13	0	580494	0	580494	1	580494	20	0	-1	578994	580494	580493	0	prime_left.png	TrialProc1	right	0		0	10	580804	-580804		0	0	TrialList2	target_both.png	0	dl	-1	3	580544	260	l	272	580816															11	2	80	neut			450
1 ver1_main_procedure	25	1	21	<?xml version="1.0"?>\n<Clock xmlns:dt="urn:schemas-microsoft-com:datatypes"><Description dt:dt="string">E-Prime Primary Realtime Clock</Description><StartTime><Timestamp dt:dt="int">0</Timestamp><DateUtc dt:dt="string">2015-08-14T09:12:02Z</DateUtc></StartTime><FrequencyChanges><FrequencyChange><Frequency dt:dt="r8">2612304</Frequency><Timestamp dt:dt="r8">9000000130</Timestamp><Current dt:dt="r8">0</Current><DateUtc dt:dt="string">2015-08-14T09:12:02Z</DateUtc></FrequencyChange></FrequencyChanges></Clock>\n	1 ver1_main_procedure-25-1	99.938	1.0.0.880	1	md	410560569	prawa	1	2.0.10.182	08-14-2015	2015-08-14 09:12:02	11:12:02	mezczyzna	2.0.10.92	4	4	1	2																							l	{SPACE}		no	BlockProc2		BlockList									9	Cued	l			-1	11	583395	461																			2					25	prime_right.png	0	583095	0	0	13	0	583095	0	583095	1	583095	20	0	-1	581596	583095	583094	0	prime_right.png	TrialProc1	right	0		0	0	0	0		0	0	TrialList2	target_right.png	0	l	-999999	3	583145	0	d	239	583384															5	2	81	neut			450
