ExperimentName	Subject	Session	Age	Clock.Information	DataFile.Basename	Display.RefreshRate	ExperimentVersion	Group	Name	RandomSeed	Recznosc	ResearcherID	RuntimeVersion	SessionDate	SessionStartDateTimeUtc	SessionTime	Sex	StudioVersion	Block	BlockList	BlockList.Cycle	BlockList.Sample	BlockNumber	GoodBye.RESP	GoodBye2.RESP	GoodByeList	GoodByeList.Cycle	GoodByeList.Sample	InstrList	InstrList.Cycle	InstrList.Sample	Instructions3.RESP	Instructions4.RESP	Instructions5.RESP	kobieta_S1	kobieta_S2	kobieta_S3	kobieta_S4	kobieta_S5	mezczyzna_S1	mezczyzna_S2	mezczyzna_S3	mezczyzna_S4	mezczyzna_S5	NextBlock.RESP	NextBlock0.RESP	planowanie	PracticeMode	Procedure[Block]	proszenie	Running[Block]	TrainingList	TrainingList.Cycle	TrainingList.Sample	WordList	WordList1	wykonanie	zauwazenie	zrozumienie	Trial	ChoiceType	CorrectRespon	Effect	ErrorText	Fixation2.DurationError	Fixation2.OnsetDelay	Fixation2.OnsetTime	Fixation2.OnsetToOnsetTime	GoalRespInd1	GoalRespInd2	GoalRespInd3	GoalRespInd4	GoalRespInd5	GoalRespInd6	GoalRespName1	GoalRespName2	GoalRespName3	GoalRespName4	GoalRespName5	GoalRespName6	kol1	kol2	kol3	kol4	kol5	kol6	NeutralPrimeList1	Ocena	Ocena.Cycle	Ocena.Sample	OverallRT	Posit	Prime	Prime.ActionDelay	Prime.ActionTime	Prime.CustomOffsetTime	Prime.CustomOnsetTime	Prime.Duration	Prime.DurationError	Prime.FinishTime	Prime.OffsetDelay	Prime.OffsetTime	Prime.OnsetDelay	Prime.OnsetTime	Prime.OnsetToOnsetTime	Prime.PendingInputMasks	Prime.PreRelease	Prime.StartTime	Prime.TargetOffsetTime	Prime.TargetOnsetTime	Prime.TimingMode	PrimeChoice	Procedure[Trial]	Resp	RespWin.ACC	RespWin.CRESP	RespWin.DurationError	RespWin.OnsetDelay	RespWin.OnsetTime	RespWin.OnsetToOnsetTime	RespWin.RESP	RespWin.RT	RespWin.RTTime	Running[Trial]	Target	TargetSlide.ACC	TargetSlide.CRESP	TargetSlide.DurationError	TargetSlide.OnsetDelay	TargetSlide.OnsetTime	TargetSlide.OnsetToOnsetTime	TargetSlide.RESP	TargetSlide.RT	TargetSlide.RTTime	TargetTraining	TBox1	TBox2	TBox3	TBox4	TBox5	TBox6	TrainingList1	TrainingList1.Cycle	TrainingList1.Sample	TrCorrectResp	TrialList1	TrialList1.Cycle	TrialList1.Sample	TrialList2	TrialList2.Cycle	TrialList2.Sample	TrialType	TrPosit	TrWaitTime	WaitTime
1 ver1_main_procedure	27	1	34	<?xml version="1.0"?>\n<Clock xmlns:dt="urn:schemas-microsoft-com:datatypes"><Description dt:dt="string">E-Prime Primary Realtime Clock</Description><StartTime><Timestamp dt:dt="int">0</Timestamp><DateUtc dt:dt="string">2015-08-14T11:59:58Z</DateUtc></StartTime><FrequencyChanges><FrequencyChange><Frequency dt:dt="r8">2612304</Frequency><Timestamp dt:dt="r8">35320649214</Timestamp><Current dt:dt="r8">0</Current><DateUtc dt:dt="string">2015-08-14T11:59:58Z</DateUtc></FrequencyChange></FrequencyChanges></Clock>\n	1 ver1_main_procedure-27-1	99.940	1.0.0.880	1	mk	961413948	prawa	1	2.0.10.182	08-14-2015	2015-08-14 11:59:58	13:59:58	kobieta	2.0.10.92	1										1	1	1	{SPACE}	{SPACE}	l	poproszona	planowała	zrozumiałaś	wykonała		poproszony	planował	zrozumiałeś	wykonał				planowała		InstrProc	poproszona	InstrList				1		wykonała		zrozumiałaś																																																																																																
1 ver1_main_procedure	27	1	34	<?xml version="1.0"?>\n<Clock xmlns:dt="urn:schemas-microsoft-com:datatypes"><Description dt:dt="string">E-Prime Primary Realtime Clock</Description><StartTime><Timestamp dt:dt="int">0</Timestamp><DateUtc dt:dt="string">2015-08-14T11:59:58Z</DateUtc></StartTime><FrequencyChanges><FrequencyChange><Frequency dt:dt="r8">2612304</Frequency><Timestamp dt:dt="r8">35320649214</Timestamp><Current dt:dt="r8">0</Current><DateUtc dt:dt="string">2015-08-14T11:59:58Z</DateUtc></FrequencyChange></FrequencyChanges></Clock>\n	1 ver1_main_procedure-27-1	99.940	1.0.0.880	1	mk	961413948	prawa	1	2.0.10.182	08-14-2015	2015-08-14 11:59:58	13:59:58	kobieta	2.0.10.92	2																														TrainingProc1		TrainingList	1	1	1						1																																																					TrainProc											TrainingList1											target_right.png							2	1	1	l								25	150	
1 ver1_main_procedure	27	1	34	<?xml version="1.0"?>\n<Clock xmlns:dt="urn:schemas-microsoft-com:datatypes"><Description dt:dt="string">E-Prime Primary Realtime Clock</Description><StartTime><Timestamp dt:dt="int">0</Timestamp><DateUtc dt:dt="string">2015-08-14T11:59:58Z</DateUtc></StartTime><FrequencyChanges><FrequencyChange><Frequency dt:dt="r8">2612304</Frequency><Timestamp dt:dt="r8">35320649214</Timestamp><Current dt:dt="r8">0</Current><DateUtc dt:dt="string">2015-08-14T11:59:58Z</DateUtc></FrequencyChange></FrequencyChanges></Clock>\n	1 ver1_main_procedure-27-1	99.940	1.0.0.880	1	mk	961413948	prawa	1	2.0.10.182	08-14-2015	2015-08-14 11:59:58	13:59:58	kobieta	2.0.10.92	2																														TrainingProc1		TrainingList	1	1	1						2																																																					TrainProc											TrainingList1											target_right.png							2	1	2	l								25	300	
1 ver1_main_procedure	27	1	34	<?xml version="1.0"?>\n<Clock xmlns:dt="urn:schemas-microsoft-com:datatypes"><Description dt:dt="string">E-Prime Primary Realtime Clock</Description><StartTime><Timestamp dt:dt="int">0</Timestamp><DateUtc dt:dt="string">2015-08-14T11:59:58Z</DateUtc></StartTime><FrequencyChanges><FrequencyChange><Frequency dt:dt="r8">2612304</Frequency><Timestamp dt:dt="r8">35320649214</Timestamp><Current dt:dt="r8">0</Current><DateUtc dt:dt="string">2015-08-14T11:59:58Z</DateUtc></FrequencyChange></FrequencyChanges></Clock>\n	1 ver1_main_procedure-27-1	99.940	1.0.0.880	1	mk	961413948	prawa	1	2.0.10.182	08-14-2015	2015-08-14 11:59:58	13:59:58	kobieta	2.0.10.92	2																														TrainingProc1		TrainingList	1	1	1						3																																																					TrainProc											TrainingList1											target_both.png							3	1	3	dl								75	450	
1 ver1_main_procedure	27	1	34	<?xml version="1.0"?>\n<Clock xmlns:dt="urn:schemas-microsoft-com:datatypes"><Description dt:dt="string">E-Prime Primary Realtime Clock</Description><StartTime><Timestamp dt:dt="int">0</Timestamp><DateUtc dt:dt="string">2015-08-14T11:59:58Z</DateUtc></StartTime><FrequencyChanges><FrequencyChange><Frequency dt:dt="r8">2612304</Frequency><Timestamp dt:dt="r8">35320649214</Timestamp><Current dt:dt="r8">0</Current><DateUtc dt:dt="string">2015-08-14T11:59:58Z</DateUtc></FrequencyChange></FrequencyChanges></Clock>\n	1 ver1_main_procedure-27-1	99.940	1.0.0.880	1	mk	961413948	prawa	1	2.0.10.182	08-14-2015	2015-08-14 11:59:58	13:59:58	kobieta	2.0.10.92	2																														TrainingProc1		TrainingList	1	1	1						4																																																					TrainProc											TrainingList1											target_left.png							1	1	4	d								75	300	
1 ver1_main_procedure	27	1	34	<?xml version="1.0"?>\n<Clock xmlns:dt="urn:schemas-microsoft-com:datatypes"><Description dt:dt="string">E-Prime Primary Realtime Clock</Description><StartTime><Timestamp dt:dt="int">0</Timestamp><DateUtc dt:dt="string">2015-08-14T11:59:58Z</DateUtc></StartTime><FrequencyChanges><FrequencyChange><Frequency dt:dt="r8">2612304</Frequency><Timestamp dt:dt="r8">35320649214</Timestamp><Current dt:dt="r8">0</Current><DateUtc dt:dt="string">2015-08-14T11:59:58Z</DateUtc></FrequencyChange></FrequencyChanges></Clock>\n	1 ver1_main_procedure-27-1	99.940	1.0.0.880	1	mk	961413948	prawa	1	2.0.10.182	08-14-2015	2015-08-14 11:59:58	13:59:58	kobieta	2.0.10.92	2																														TrainingProc1		TrainingList	1	1	1						5																																																					TrainProc											TrainingList1											target_left.png							1	1	5	d								25	300	
1 ver1_main_procedure	27	1	34	<?xml version="1.0"?>\n<Clock xmlns:dt="urn:schemas-microsoft-com:datatypes"><Description dt:dt="string">E-Prime Primary Realtime Clock</Description><StartTime><Timestamp dt:dt="int">0</Timestamp><DateUtc dt:dt="string">2015-08-14T11:59:58Z</DateUtc></StartTime><FrequencyChanges><FrequencyChange><Frequency dt:dt="r8">2612304</Frequency><Timestamp dt:dt="r8">35320649214</Timestamp><Current dt:dt="r8">0</Current><DateUtc dt:dt="string">2015-08-14T11:59:58Z</DateUtc></FrequencyChange></FrequencyChanges></Clock>\n	1 ver1_main_procedure-27-1	99.940	1.0.0.880	1	mk	961413948	prawa	1	2.0.10.182	08-14-2015	2015-08-14 11:59:58	13:59:58	kobieta	2.0.10.92	2																														TrainingProc1		TrainingList	1	1	1						6																																																					TrainProc											TrainingList1											target_right.png							2	1	6	l								25	150	
1 ver1_main_procedure	27	1	34	<?xml version="1.0"?>\n<Clock xmlns:dt="urn:schemas-microsoft-com:datatypes"><Description dt:dt="string">E-Prime Primary Realtime Clock</Description><StartTime><Timestamp dt:dt="int">0</Timestamp><DateUtc dt:dt="string">2015-08-14T11:59:58Z</DateUtc></StartTime><FrequencyChanges><FrequencyChange><Frequency dt:dt="r8">2612304</Frequency><Timestamp dt:dt="r8">35320649214</Timestamp><Current dt:dt="r8">0</Current><DateUtc dt:dt="string">2015-08-14T11:59:58Z</DateUtc></FrequencyChange></FrequencyChanges></Clock>\n	1 ver1_main_procedure-27-1	99.940	1.0.0.880	1	mk	961413948	prawa	1	2.0.10.182	08-14-2015	2015-08-14 11:59:58	13:59:58	kobieta	2.0.10.92	2																														TrainingProc1		TrainingList	1	1	1						7																																																					TrainProc											TrainingList1											target_both.png							3	1	7	dl								25	300	
1 ver1_main_procedure	27	1	34	<?xml version="1.0"?>\n<Clock xmlns:dt="urn:schemas-microsoft-com:datatypes"><Description dt:dt="string">E-Prime Primary Realtime Clock</Description><StartTime><Timestamp dt:dt="int">0</Timestamp><DateUtc dt:dt="string">2015-08-14T11:59:58Z</DateUtc></StartTime><FrequencyChanges><FrequencyChange><Frequency dt:dt="r8">2612304</Frequency><Timestamp dt:dt="r8">35320649214</Timestamp><Current dt:dt="r8">0</Current><DateUtc dt:dt="string">2015-08-14T11:59:58Z</DateUtc></FrequencyChange></FrequencyChanges></Clock>\n	1 ver1_main_procedure-27-1	99.940	1.0.0.880	1	mk	961413948	prawa	1	2.0.10.182	08-14-2015	2015-08-14 11:59:58	13:59:58	kobieta	2.0.10.92	2																														TrainingProc1		TrainingList	1	1	1						8																																																					TrainProc											TrainingList1											target_left.png							1	1	8	d								25	150	
1 ver1_main_procedure	27	1	34	<?xml version="1.0"?>\n<Clock xmlns:dt="urn:schemas-microsoft-com:datatypes"><Description dt:dt="string">E-Prime Primary Realtime Clock</Description><StartTime><Timestamp dt:dt="int">0</Timestamp><DateUtc dt:dt="string">2015-08-14T11:59:58Z</DateUtc></StartTime><FrequencyChanges><FrequencyChange><Frequency dt:dt="r8">2612304</Frequency><Timestamp dt:dt="r8">35320649214</Timestamp><Current dt:dt="r8">0</Current><DateUtc dt:dt="string">2015-08-14T11:59:58Z</DateUtc></FrequencyChange></FrequencyChanges></Clock>\n	1 ver1_main_procedure-27-1	99.940	1.0.0.880	1	mk	961413948	prawa	1	2.0.10.182	08-14-2015	2015-08-14 11:59:58	13:59:58	kobieta	2.0.10.92	2																														TrainingProc1		TrainingList	1	1	1						9																																																					TrainProc											TrainingList1											target_both.png							3	1	9	dl								75	300	
1 ver1_main_procedure	27	1	34	<?xml version="1.0"?>\n<Clock xmlns:dt="urn:schemas-microsoft-com:datatypes"><Description dt:dt="string">E-Prime Primary Realtime Clock</Description><StartTime><Timestamp dt:dt="int">0</Timestamp><DateUtc dt:dt="string">2015-08-14T11:59:58Z</DateUtc></StartTime><FrequencyChanges><FrequencyChange><Frequency dt:dt="r8">2612304</Frequency><Timestamp dt:dt="r8">35320649214</Timestamp><Current dt:dt="r8">0</Current><DateUtc dt:dt="string">2015-08-14T11:59:58Z</DateUtc></FrequencyChange></FrequencyChanges></Clock>\n	1 ver1_main_procedure-27-1	99.940	1.0.0.880	1	mk	961413948	prawa	1	2.0.10.182	08-14-2015	2015-08-14 11:59:58	13:59:58	kobieta	2.0.10.92	3	4	1	1																							l	{SPACE}		no	BlockProc2		BlockList									1	Cued	l			-1	1	251320	311																								25	prime_left.png	0	249499	0	0	13	0	249499	0	249499	1	249499	20	0	-1	248000	249499	249498	0		TrialProc1	right	0		1	20	249819	1501		0	0	TrialList2	target_right.png	0	l	-1	3	249549	270		0	0															6	1	1	incomp			300
1 ver1_main_procedure	27	1	34	<?xml version="1.0"?>\n<Clock xmlns:dt="urn:schemas-microsoft-com:datatypes"><Description dt:dt="string">E-Prime Primary Realtime Clock</Description><StartTime><Timestamp dt:dt="int">0</Timestamp><DateUtc dt:dt="string">2015-08-14T11:59:58Z</DateUtc></StartTime><FrequencyChanges><FrequencyChange><Frequency dt:dt="r8">2612304</Frequency><Timestamp dt:dt="r8">35320649214</Timestamp><Current dt:dt="r8">0</Current><DateUtc dt:dt="string">2015-08-14T11:59:58Z</DateUtc></FrequencyChange></FrequencyChanges></Clock>\n	1 ver1_main_procedure-27-1	99.940	1.0.0.880	1	mk	961413948	prawa	1	2.0.10.182	08-14-2015	2015-08-14 11:59:58	13:59:58	kobieta	2.0.10.92	3	4	1	1																							l	{SPACE}		no	BlockProc2		BlockList									2	Free	dl			-1	1	255253	460																								75	prime_left.png	0	253442	0	0	13	0	253442	0	253442	1	253442	20	0	-1	251943	253442	253441	0		TrialProc1	left	0		0	10	253752	1501		0	0	TrialList2	target_both.png	0	dl	-1	3	253492	260		0	0															7	1	2	comp			450
1 ver1_main_procedure	27	1	34	<?xml version="1.0"?>\n<Clock xmlns:dt="urn:schemas-microsoft-com:datatypes"><Description dt:dt="string">E-Prime Primary Realtime Clock</Description><StartTime><Timestamp dt:dt="int">0</Timestamp><DateUtc dt:dt="string">2015-08-14T11:59:58Z</DateUtc></StartTime><FrequencyChanges><FrequencyChange><Frequency dt:dt="r8">2612304</Frequency><Timestamp dt:dt="r8">35320649214</Timestamp><Current dt:dt="r8">0</Current><DateUtc dt:dt="string">2015-08-14T11:59:58Z</DateUtc></FrequencyChange></FrequencyChanges></Clock>\n	1 ver1_main_procedure-27-1	99.940	1.0.0.880	1	mk	961413948	prawa	1	2.0.10.182	08-14-2015	2015-08-14 11:59:58	13:59:58	kobieta	2.0.10.92	3	4	1	1																							l	{SPACE}		no	BlockProc2		BlockList									3	Free	dl			-1	1	259335	460																								25	prime_left.png	0	257524	0	0	13	0	257524	0	257524	1	257524	20	0	-1	256025	257524	257523	0		TrialProc1	left	0		0	10	257834	1501		0	0	TrialList2	target_both.png	0	dl	-1	3	257574	260		0	0															7	1	3	comp			450
1 ver1_main_procedure	27	1	34	<?xml version="1.0"?>\n<Clock xmlns:dt="urn:schemas-microsoft-com:datatypes"><Description dt:dt="string">E-Prime Primary Realtime Clock</Description><StartTime><Timestamp dt:dt="int">0</Timestamp><DateUtc dt:dt="string">2015-08-14T11:59:58Z</DateUtc></StartTime><FrequencyChanges><FrequencyChange><Frequency dt:dt="r8">2612304</Frequency><Timestamp dt:dt="r8">35320649214</Timestamp><Current dt:dt="r8">0</Current><DateUtc dt:dt="string">2015-08-14T11:59:58Z</DateUtc></FrequencyChange></FrequencyChanges></Clock>\n	1 ver1_main_procedure-27-1	99.940	1.0.0.880	1	mk	961413948	prawa	1	2.0.10.182	08-14-2015	2015-08-14 11:59:58	13:59:58	kobieta	2.0.10.92	3	4	1	1																							l	{SPACE}		no	BlockProc2		BlockList									4	Free	dl			-1	1	263418	460																								25	prime_right.png	1	261607	0	0	13	1	261607	1	261607	0	261606	20	0	-1	260107	261606	261606	0		TrialProc1	right	0		0	11	261917	1501		0	0	TrialList2	target_both.png	0	dl	-1	3	261656	261		0	0															10	1	4	comp			450
1 ver1_main_procedure	27	1	34	<?xml version="1.0"?>\n<Clock xmlns:dt="urn:schemas-microsoft-com:datatypes"><Description dt:dt="string">E-Prime Primary Realtime Clock</Description><StartTime><Timestamp dt:dt="int">0</Timestamp><DateUtc dt:dt="string">2015-08-14T11:59:58Z</DateUtc></StartTime><FrequencyChanges><FrequencyChange><Frequency dt:dt="r8">2612304</Frequency><Timestamp dt:dt="r8">35320649214</Timestamp><Current dt:dt="r8">0</Current><DateUtc dt:dt="string">2015-08-14T11:59:58Z</DateUtc></FrequencyChange></FrequencyChanges></Clock>\n	1 ver1_main_procedure-27-1	99.940	1.0.0.880	1	mk	961413948	prawa	1	2.0.10.182	08-14-2015	2015-08-14 11:59:58	13:59:58	kobieta	2.0.10.92	3	4	1	1																							l	{SPACE}		no	BlockProc2		BlockList									5	Cued	l			-1	1	267500	160																			2					25	prime_right.png	0	265689	0	0	13	0	265689	0	265689	1	265689	20	0	-1	264190	265689	265688	0	prime_right.png	TrialProc1	right	0		0	10	265999	1501		0	0	TrialList2	target_right.png	0	l	-1	3	265739	260		0	0															5	1	5	neut			150
1 ver1_main_procedure	27	1	34	<?xml version="1.0"?>\n<Clock xmlns:dt="urn:schemas-microsoft-com:datatypes"><Description dt:dt="string">E-Prime Primary Realtime Clock</Description><StartTime><Timestamp dt:dt="int">0</Timestamp><DateUtc dt:dt="string">2015-08-14T11:59:58Z</DateUtc></StartTime><FrequencyChanges><FrequencyChange><Frequency dt:dt="r8">2612304</Frequency><Timestamp dt:dt="r8">35320649214</Timestamp><Current dt:dt="r8">0</Current><DateUtc dt:dt="string">2015-08-14T11:59:58Z</DateUtc></FrequencyChange></FrequencyChanges></Clock>\n	1 ver1_main_procedure-27-1	99.940	1.0.0.880	1	mk	961413948	prawa	1	2.0.10.182	08-14-2015	2015-08-14 11:59:58	13:59:58	kobieta	2.0.10.92	3	4	1	1																							l	{SPACE}		no	BlockProc2		BlockList									6	Cued	l			-1	1	271282	310																								75	prime_left.png	0	269471	0	0	13	0	269471	0	269471	1	269471	20	0	-1	267972	269471	269470	0		TrialProc1	right	0		0	10	269781	1501		0	0	TrialList2	target_right.png	0	l	-1	3	269521	260		0	0															6	1	6	incomp			300
1 ver1_main_procedure	27	1	34	<?xml version="1.0"?>\n<Clock xmlns:dt="urn:schemas-microsoft-com:datatypes"><Description dt:dt="string">E-Prime Primary Realtime Clock</Description><StartTime><Timestamp dt:dt="int">0</Timestamp><DateUtc dt:dt="string">2015-08-14T11:59:58Z</DateUtc></StartTime><FrequencyChanges><FrequencyChange><Frequency dt:dt="r8">2612304</Frequency><Timestamp dt:dt="r8">35320649214</Timestamp><Current dt:dt="r8">0</Current><DateUtc dt:dt="string">2015-08-14T11:59:58Z</DateUtc></FrequencyChange></FrequencyChanges></Clock>\n	1 ver1_main_procedure-27-1	99.940	1.0.0.880	1	mk	961413948	prawa	1	2.0.10.182	08-14-2015	2015-08-14 11:59:58	13:59:58	kobieta	2.0.10.92	3	4	1	1																							l	{SPACE}		no	BlockProc2		BlockList									7	Free	dl			-1	1	275215	460																								25	prime_left.png	1	273404	0	0	13	1	273404	1	273404	0	273403	20	0	-1	271904	273403	273403	0		TrialProc1	right	0		0	10	273714	1501		0	0	TrialList2	target_both.png	0	dl	-1	4	273454	260		0	0															12	1	7	incomp			450
1 ver1_main_procedure	27	1	34	<?xml version="1.0"?>\n<Clock xmlns:dt="urn:schemas-microsoft-com:datatypes"><Description dt:dt="string">E-Prime Primary Realtime Clock</Description><StartTime><Timestamp dt:dt="int">0</Timestamp><DateUtc dt:dt="string">2015-08-14T11:59:58Z</DateUtc></StartTime><FrequencyChanges><FrequencyChange><Frequency dt:dt="r8">2612304</Frequency><Timestamp dt:dt="r8">35320649214</Timestamp><Current dt:dt="r8">0</Current><DateUtc dt:dt="string">2015-08-14T11:59:58Z</DateUtc></FrequencyChange></FrequencyChanges></Clock>\n	1 ver1_main_procedure-27-1	99.940	1.0.0.880	1	mk	961413948	prawa	1	2.0.10.182	08-14-2015	2015-08-14 11:59:58	13:59:58	kobieta	2.0.10.92	3	4	1	1																							l	{SPACE}		no	BlockProc2		BlockList									8	Free	dl			-1	1	279297	460																								75	prime_left.png	0	277486	0	0	13	0	277486	0	277486	1	277486	20	0	-1	275987	277486	277485	0		TrialProc1	left	0		0	10	277796	1501		0	0	TrialList2	target_both.png	0	dl	-1	3	277536	260		0	0															7	1	8	comp			450
1 ver1_main_procedure	27	1	34	<?xml version="1.0"?>\n<Clock xmlns:dt="urn:schemas-microsoft-com:datatypes"><Description dt:dt="string">E-Prime Primary Realtime Clock</Description><StartTime><Timestamp dt:dt="int">0</Timestamp><DateUtc dt:dt="string">2015-08-14T11:59:58Z</DateUtc></StartTime><FrequencyChanges><FrequencyChange><Frequency dt:dt="r8">2612304</Frequency><Timestamp dt:dt="r8">35320649214</Timestamp><Current dt:dt="r8">0</Current><DateUtc dt:dt="string">2015-08-14T11:59:58Z</DateUtc></FrequencyChange></FrequencyChanges></Clock>\n	1 ver1_main_procedure-27-1	99.940	1.0.0.880	1	mk	961413948	prawa	1	2.0.10.182	08-14-2015	2015-08-14 11:59:58	13:59:58	kobieta	2.0.10.92	3	4	1	1																							l	{SPACE}		no	BlockProc2		BlockList									9	Free	dl			-1	0	283379	461																			1					75	prime_left.png	0	281568	0	0	13	0	281569	0	281568	1	281568	20	0	-1	280069	281568	281567	0	prime_left.png	TrialProc1	left	0		0	11	281879	1500		0	0	TrialList2	target_both.png	0	dl	-1	3	281618	261		0	0															8	1	9	neut			450
1 ver1_main_procedure	27	1	34	<?xml version="1.0"?>\n<Clock xmlns:dt="urn:schemas-microsoft-com:datatypes"><Description dt:dt="string">E-Prime Primary Realtime Clock</Description><StartTime><Timestamp dt:dt="int">0</Timestamp><DateUtc dt:dt="string">2015-08-14T11:59:58Z</DateUtc></StartTime><FrequencyChanges><FrequencyChange><Frequency dt:dt="r8">2612304</Frequency><Timestamp dt:dt="r8">35320649214</Timestamp><Current dt:dt="r8">0</Current><DateUtc dt:dt="string">2015-08-14T11:59:58Z</DateUtc></FrequencyChange></FrequencyChanges></Clock>\n	1 ver1_main_procedure-27-1	99.940	1.0.0.880	1	mk	961413948	prawa	1	2.0.10.182	08-14-2015	2015-08-14 11:59:58	13:59:58	kobieta	2.0.10.92	3	4	1	1																							l	{SPACE}		no	BlockProc2		BlockList									10	Cued	d			-1	1	287462	310																								25	prime_left.png	0	285651	0	0	13	0	285651	0	285651	1	285651	20	0	-1	284152	285651	285650	0		TrialProc1	left	0		0	10	285961	1501		0	0	TrialList2	target_left.png	0	d	-1	3	285701	260		0	0															1	1	10	comp			300
1 ver1_main_procedure	27	1	34	<?xml version="1.0"?>\n<Clock xmlns:dt="urn:schemas-microsoft-com:datatypes"><Description dt:dt="string">E-Prime Primary Realtime Clock</Description><StartTime><Timestamp dt:dt="int">0</Timestamp><DateUtc dt:dt="string">2015-08-14T11:59:58Z</DateUtc></StartTime><FrequencyChanges><FrequencyChange><Frequency dt:dt="r8">2612304</Frequency><Timestamp dt:dt="r8">35320649214</Timestamp><Current dt:dt="r8">0</Current><DateUtc dt:dt="string">2015-08-14T11:59:58Z</DateUtc></FrequencyChange></FrequencyChanges></Clock>\n	1 ver1_main_procedure-27-1	99.940	1.0.0.880	1	mk	961413948	prawa	1	2.0.10.182	08-14-2015	2015-08-14 11:59:58	13:59:58	kobieta	2.0.10.92	3	4	1	1																							l	{SPACE}		no	BlockProc2		BlockList									11	Cued	l			-1	1	291394	160																								25	prime_left.png	0	289583	0	0	13	0	289583	0	289583	1	289583	20	0	-1	288084	289583	289582	0		TrialProc1	right	0		0	10	289893	1501		0	0	TrialList2	target_right.png	0	l	-1	3	289633	260		0	0															6	1	11	incomp			150
1 ver1_main_procedure	27	1	34	<?xml version="1.0"?>\n<Clock xmlns:dt="urn:schemas-microsoft-com:datatypes"><Description dt:dt="string">E-Prime Primary Realtime Clock</Description><StartTime><Timestamp dt:dt="int">0</Timestamp><DateUtc dt:dt="string">2015-08-14T11:59:58Z</DateUtc></StartTime><FrequencyChanges><FrequencyChange><Frequency dt:dt="r8">2612304</Frequency><Timestamp dt:dt="r8">35320649214</Timestamp><Current dt:dt="r8">0</Current><DateUtc dt:dt="string">2015-08-14T11:59:58Z</DateUtc></FrequencyChange></FrequencyChanges></Clock>\n	1 ver1_main_procedure-27-1	99.940	1.0.0.880	1	mk	961413948	prawa	1	2.0.10.182	08-14-2015	2015-08-14 11:59:58	13:59:58	kobieta	2.0.10.92	3	4	1	1																							l	{SPACE}		no	BlockProc2		BlockList									12	Free	dl			-1	0	295176	461																								25	prime_right.png	0	293365	0	0	13	0	293366	0	293365	1	293365	20	0	-1	291866	293365	293364	0		TrialProc1	right	0		0	11	293676	1500		0	0	TrialList2	target_both.png	0	dl	-1	3	293415	261		0	0															10	1	12	comp			450
1 ver1_main_procedure	27	1	34	<?xml version="1.0"?>\n<Clock xmlns:dt="urn:schemas-microsoft-com:datatypes"><Description dt:dt="string">E-Prime Primary Realtime Clock</Description><StartTime><Timestamp dt:dt="int">0</Timestamp><DateUtc dt:dt="string">2015-08-14T11:59:58Z</DateUtc></StartTime><FrequencyChanges><FrequencyChange><Frequency dt:dt="r8">2612304</Frequency><Timestamp dt:dt="r8">35320649214</Timestamp><Current dt:dt="r8">0</Current><DateUtc dt:dt="string">2015-08-14T11:59:58Z</DateUtc></FrequencyChange></FrequencyChanges></Clock>\n	1 ver1_main_procedure-27-1	99.940	1.0.0.880	1	mk	961413948	prawa	1	2.0.10.182	08-14-2015	2015-08-14 11:59:58	13:59:58	kobieta	2.0.10.92	3	4	1	1																							l	{SPACE}		no	BlockProc2		BlockList									13	Free	dl			-1	1	299259	310																								75	prime_right.png	0	297448	0	0	13	0	297448	0	297448	1	297448	20	0	-1	295949	297448	297447	0		TrialProc1	left	0		0	10	297758	1501		0	0	TrialList2	target_both.png	0	dl	-1	3	297498	260		0	0															9	1	13	incomp			300
1 ver1_main_procedure	27	1	34	<?xml version="1.0"?>\n<Clock xmlns:dt="urn:schemas-microsoft-com:datatypes"><Description dt:dt="string">E-Prime Primary Realtime Clock</Description><StartTime><Timestamp dt:dt="int">0</Timestamp><DateUtc dt:dt="string">2015-08-14T11:59:58Z</DateUtc></StartTime><FrequencyChanges><FrequencyChange><Frequency dt:dt="r8">2612304</Frequency><Timestamp dt:dt="r8">35320649214</Timestamp><Current dt:dt="r8">0</Current><DateUtc dt:dt="string">2015-08-14T11:59:58Z</DateUtc></FrequencyChange></FrequencyChanges></Clock>\n	1 ver1_main_procedure-27-1	99.940	1.0.0.880	1	mk	961413948	prawa	1	2.0.10.182	08-14-2015	2015-08-14 11:59:58	13:59:58	kobieta	2.0.10.92	3	4	1	1																							l	{SPACE}		no	BlockProc2		BlockList									14	Free	dl			-1	1	303191	310																								25	prime_right.png	0	301380	0	0	13	0	301380	0	301380	1	301380	20	0	-1	299881	301380	301379	0		TrialProc1	right	0		1	10	301690	1501		0	0	TrialList2	target_both.png	0	dl	-1	3	301430	260		0	0															10	1	14	comp			300
1 ver1_main_procedure	27	1	34	<?xml version="1.0"?>\n<Clock xmlns:dt="urn:schemas-microsoft-com:datatypes"><Description dt:dt="string">E-Prime Primary Realtime Clock</Description><StartTime><Timestamp dt:dt="int">0</Timestamp><DateUtc dt:dt="string">2015-08-14T11:59:58Z</DateUtc></StartTime><FrequencyChanges><FrequencyChange><Frequency dt:dt="r8">2612304</Frequency><Timestamp dt:dt="r8">35320649214</Timestamp><Current dt:dt="r8">0</Current><DateUtc dt:dt="string">2015-08-14T11:59:58Z</DateUtc></FrequencyChange></FrequencyChanges></Clock>\n	1 ver1_main_procedure-27-1	99.940	1.0.0.880	1	mk	961413948	prawa	1	2.0.10.182	08-14-2015	2015-08-14 11:59:58	13:59:58	kobieta	2.0.10.92	3	4	1	1																							l	{SPACE}		no	BlockProc2		BlockList									15	Free	dl			-1	1	307124	310																			2					25	prime_right.png	1	305313	0	0	13	1	305313	1	305313	0	305312	20	0	-1	303813	305312	305312	0	prime_right.png	TrialProc1	right	0		0	11	305623	1501		0	0	TrialList2	target_both.png	0	dl	-1	3	305362	261		0	0															11	1	15	neut			300
1 ver1_main_procedure	27	1	34	<?xml version="1.0"?>\n<Clock xmlns:dt="urn:schemas-microsoft-com:datatypes"><Description dt:dt="string">E-Prime Primary Realtime Clock</Description><StartTime><Timestamp dt:dt="int">0</Timestamp><DateUtc dt:dt="string">2015-08-14T11:59:58Z</DateUtc></StartTime><FrequencyChanges><FrequencyChange><Frequency dt:dt="r8">2612304</Frequency><Timestamp dt:dt="r8">35320649214</Timestamp><Current dt:dt="r8">0</Current><DateUtc dt:dt="string">2015-08-14T11:59:58Z</DateUtc></FrequencyChange></FrequencyChanges></Clock>\n	1 ver1_main_procedure-27-1	99.940	1.0.0.880	1	mk	961413948	prawa	1	2.0.10.182	08-14-2015	2015-08-14 11:59:58	13:59:58	kobieta	2.0.10.92	3	4	1	1																							l	{SPACE}		no	BlockProc2		BlockList									16	Free	dl			-1	1	311056	310																								75	prime_left.png	0	309245	0	0	13	0	309245	0	309245	1	309245	20	0	-1	307746	309245	309244	0		TrialProc1	left	0		0	10	309555	1501		0	0	TrialList2	target_both.png	0	dl	-1	3	309295	260		0	0															7	1	16	comp			300
1 ver1_main_procedure	27	1	34	<?xml version="1.0"?>\n<Clock xmlns:dt="urn:schemas-microsoft-com:datatypes"><Description dt:dt="string">E-Prime Primary Realtime Clock</Description><StartTime><Timestamp dt:dt="int">0</Timestamp><DateUtc dt:dt="string">2015-08-14T11:59:58Z</DateUtc></StartTime><FrequencyChanges><FrequencyChange><Frequency dt:dt="r8">2612304</Frequency><Timestamp dt:dt="r8">35320649214</Timestamp><Current dt:dt="r8">0</Current><DateUtc dt:dt="string">2015-08-14T11:59:58Z</DateUtc></FrequencyChange></FrequencyChanges></Clock>\n	1 ver1_main_procedure-27-1	99.940	1.0.0.880	1	mk	961413948	prawa	1	2.0.10.182	08-14-2015	2015-08-14 11:59:58	13:59:58	kobieta	2.0.10.92	3	4	1	1																							l	{SPACE}		no	BlockProc2		BlockList									17	Cued	l			-1	1	314988	160																			1					75	prime_left.png	0	313177	0	0	13	0	313177	0	313177	1	313177	20	0	-1	311678	313177	313176	0	prime_left.png	TrialProc1	right	0		0	10	313487	1501		0	0	TrialList2	target_right.png	0	l	-1	3	313227	260		0	0															5	1	17	neut			150
1 ver1_main_procedure	27	1	34	<?xml version="1.0"?>\n<Clock xmlns:dt="urn:schemas-microsoft-com:datatypes"><Description dt:dt="string">E-Prime Primary Realtime Clock</Description><StartTime><Timestamp dt:dt="int">0</Timestamp><DateUtc dt:dt="string">2015-08-14T11:59:58Z</DateUtc></StartTime><FrequencyChanges><FrequencyChange><Frequency dt:dt="r8">2612304</Frequency><Timestamp dt:dt="r8">35320649214</Timestamp><Current dt:dt="r8">0</Current><DateUtc dt:dt="string">2015-08-14T11:59:58Z</DateUtc></FrequencyChange></FrequencyChanges></Clock>\n	1 ver1_main_procedure-27-1	99.940	1.0.0.880	1	mk	961413948	prawa	1	2.0.10.182	08-14-2015	2015-08-14 11:59:58	13:59:58	kobieta	2.0.10.92	3	4	1	1																							l	{SPACE}		no	BlockProc2		BlockList									18	Cued	d			-1	0	318770	461																			2					25	prime_right.png	0	316959	0	0	13	1	316960	1	316960	1	316959	20	0	-1	315460	316959	316958	0	prime_right.png	TrialProc1	left	0		0	11	317270	1500		0	0	TrialList2	target_left.png	0	d	-1	3	317009	261		0	0															2	1	18	neut			450
1 ver1_main_procedure	27	1	34	<?xml version="1.0"?>\n<Clock xmlns:dt="urn:schemas-microsoft-com:datatypes"><Description dt:dt="string">E-Prime Primary Realtime Clock</Description><StartTime><Timestamp dt:dt="int">0</Timestamp><DateUtc dt:dt="string">2015-08-14T11:59:58Z</DateUtc></StartTime><FrequencyChanges><FrequencyChange><Frequency dt:dt="r8">2612304</Frequency><Timestamp dt:dt="r8">35320649214</Timestamp><Current dt:dt="r8">0</Current><DateUtc dt:dt="string">2015-08-14T11:59:58Z</DateUtc></FrequencyChange></FrequencyChanges></Clock>\n	1 ver1_main_procedure-27-1	99.940	1.0.0.880	1	mk	961413948	prawa	1	2.0.10.182	08-14-2015	2015-08-14 11:59:58	13:59:58	kobieta	2.0.10.92	3	4	1	1																							l	{SPACE}		no	BlockProc2		BlockList									19	Free	dl			-1	1	322853	160																			1					75	prime_left.png	0	321042	0	0	13	0	321042	0	321042	1	321042	20	0	-1	319543	321042	321041	0	prime_left.png	TrialProc1	left	0		0	10	321352	1501		0	0	TrialList2	target_both.png	0	dl	-1	3	321092	260		0	0															8	1	19	neut			150
1 ver1_main_procedure	27	1	34	<?xml version="1.0"?>\n<Clock xmlns:dt="urn:schemas-microsoft-com:datatypes"><Description dt:dt="string">E-Prime Primary Realtime Clock</Description><StartTime><Timestamp dt:dt="int">0</Timestamp><DateUtc dt:dt="string">2015-08-14T11:59:58Z</DateUtc></StartTime><FrequencyChanges><FrequencyChange><Frequency dt:dt="r8">2612304</Frequency><Timestamp dt:dt="r8">35320649214</Timestamp><Current dt:dt="r8">0</Current><DateUtc dt:dt="string">2015-08-14T11:59:58Z</DateUtc></FrequencyChange></FrequencyChanges></Clock>\n	1 ver1_main_procedure-27-1	99.940	1.0.0.880	1	mk	961413948	prawa	1	2.0.10.182	08-14-2015	2015-08-14 11:59:58	13:59:58	kobieta	2.0.10.92	3	4	1	1																							l	{SPACE}		no	BlockProc2		BlockList									20	Free	dl			-1	1	326635	460																			2					25	prime_right.png	0	324824	0	0	13	0	324824	0	324824	1	324824	20	0	-1	323325	324824	324823	0	prime_right.png	TrialProc1	right	0		1	10	325134	1501		0	0	TrialList2	target_both.png	0	dl	-1	3	324874	260		0	0															11	1	20	neut			450
1 ver1_main_procedure	27	1	34	<?xml version="1.0"?>\n<Clock xmlns:dt="urn:schemas-microsoft-com:datatypes"><Description dt:dt="string">E-Prime Primary Realtime Clock</Description><StartTime><Timestamp dt:dt="int">0</Timestamp><DateUtc dt:dt="string">2015-08-14T11:59:58Z</DateUtc></StartTime><FrequencyChanges><FrequencyChange><Frequency dt:dt="r8">2612304</Frequency><Timestamp dt:dt="r8">35320649214</Timestamp><Current dt:dt="r8">0</Current><DateUtc dt:dt="string">2015-08-14T11:59:58Z</DateUtc></FrequencyChange></FrequencyChanges></Clock>\n	1 ver1_main_procedure-27-1	99.940	1.0.0.880	1	mk	961413948	prawa	1	2.0.10.182	08-14-2015	2015-08-14 11:59:58	13:59:58	kobieta	2.0.10.92	3	4	1	1																							l	{SPACE}		no	BlockProc2		BlockList									21	Free	dl			-1	1	330718	160																								25	prime_right.png	0	328907	0	0	13	0	328907	0	328907	1	328907	19	0	-1	327407	328907	328906	0		TrialProc1	left	0		0	10	329217	1501		0	0	TrialList2	target_both.png	0	dl	-1	4	328957	260		0	0															9	1	21	incomp			150
1 ver1_main_procedure	27	1	34	<?xml version="1.0"?>\n<Clock xmlns:dt="urn:schemas-microsoft-com:datatypes"><Description dt:dt="string">E-Prime Primary Realtime Clock</Description><StartTime><Timestamp dt:dt="int">0</Timestamp><DateUtc dt:dt="string">2015-08-14T11:59:58Z</DateUtc></StartTime><FrequencyChanges><FrequencyChange><Frequency dt:dt="r8">2612304</Frequency><Timestamp dt:dt="r8">35320649214</Timestamp><Current dt:dt="r8">0</Current><DateUtc dt:dt="string">2015-08-14T11:59:58Z</DateUtc></FrequencyChange></FrequencyChanges></Clock>\n	1 ver1_main_procedure-27-1	99.940	1.0.0.880	1	mk	961413948	prawa	1	2.0.10.182	08-14-2015	2015-08-14 11:59:58	13:59:58	kobieta	2.0.10.92	3	4	1	1																							l	{SPACE}		no	BlockProc2		BlockList									22	Cued	l			-1	1	334500	310																			1					75	prime_left.png	0	332689	0	0	13	0	332689	0	332689	1	332689	20	0	-1	331190	332689	332688	0	prime_left.png	TrialProc1	right	0		0	10	332999	1501		0	0	TrialList2	target_right.png	0	l	-1	3	332739	260		0	0															5	1	22	neut			300
1 ver1_main_procedure	27	1	34	<?xml version="1.0"?>\n<Clock xmlns:dt="urn:schemas-microsoft-com:datatypes"><Description dt:dt="string">E-Prime Primary Realtime Clock</Description><StartTime><Timestamp dt:dt="int">0</Timestamp><DateUtc dt:dt="string">2015-08-14T11:59:58Z</DateUtc></StartTime><FrequencyChanges><FrequencyChange><Frequency dt:dt="r8">2612304</Frequency><Timestamp dt:dt="r8">35320649214</Timestamp><Current dt:dt="r8">0</Current><DateUtc dt:dt="string">2015-08-14T11:59:58Z</DateUtc></FrequencyChange></FrequencyChanges></Clock>\n	1 ver1_main_procedure-27-1	99.940	1.0.0.880	1	mk	961413948	prawa	1	2.0.10.182	08-14-2015	2015-08-14 11:59:58	13:59:58	kobieta	2.0.10.92	3	4	1	1																							l	{SPACE}		no	BlockProc2		BlockList									23	Free	dl			-1	1	338432	460																			2					25	prime_right.png	0	336621	0	0	13	0	336621	0	336621	1	336621	20	0	-1	335122	336621	336620	0	prime_right.png	TrialProc1	left	0		0	10	336931	1501		0	0	TrialList2	target_both.png	0	dl	-1	3	336671	260		0	0															8	1	23	neut			450
1 ver1_main_procedure	27	1	34	<?xml version="1.0"?>\n<Clock xmlns:dt="urn:schemas-microsoft-com:datatypes"><Description dt:dt="string">E-Prime Primary Realtime Clock</Description><StartTime><Timestamp dt:dt="int">0</Timestamp><DateUtc dt:dt="string">2015-08-14T11:59:58Z</DateUtc></StartTime><FrequencyChanges><FrequencyChange><Frequency dt:dt="r8">2612304</Frequency><Timestamp dt:dt="r8">35320649214</Timestamp><Current dt:dt="r8">0</Current><DateUtc dt:dt="string">2015-08-14T11:59:58Z</DateUtc></FrequencyChange></FrequencyChanges></Clock>\n	1 ver1_main_procedure-27-1	99.940	1.0.0.880	1	mk	961413948	prawa	1	2.0.10.182	08-14-2015	2015-08-14 11:59:58	13:59:58	kobieta	2.0.10.92	3	4	1	1																							l	{SPACE}		no	BlockProc2		BlockList									24	Cued	l			-1	1	342515	310																								75	prime_right.png	0	340704	0	0	13	0	340704	0	340704	1	340704	20	0	-1	339204	340704	340703	0		TrialProc1	right	0		0	10	341014	1501		0	0	TrialList2	target_right.png	0	l	-1	3	340754	260		0	0															4	1	24	comp			300
1 ver1_main_procedure	27	1	34	<?xml version="1.0"?>\n<Clock xmlns:dt="urn:schemas-microsoft-com:datatypes"><Description dt:dt="string">E-Prime Primary Realtime Clock</Description><StartTime><Timestamp dt:dt="int">0</Timestamp><DateUtc dt:dt="string">2015-08-14T11:59:58Z</DateUtc></StartTime><FrequencyChanges><FrequencyChange><Frequency dt:dt="r8">2612304</Frequency><Timestamp dt:dt="r8">35320649214</Timestamp><Current dt:dt="r8">0</Current><DateUtc dt:dt="string">2015-08-14T11:59:58Z</DateUtc></FrequencyChange></FrequencyChanges></Clock>\n	1 ver1_main_procedure-27-1	99.940	1.0.0.880	1	mk	961413948	prawa	1	2.0.10.182	08-14-2015	2015-08-14 11:59:58	13:59:58	kobieta	2.0.10.92	3	4	1	1																							l	{SPACE}		no	BlockProc2		BlockList									25	Free	dl			-1	1	346447	460																			1					25	prime_left.png	0	344636	0	0	13	0	344636	0	344636	1	344636	20	0	-1	343137	344636	344635	0	prime_left.png	TrialProc1	right	0		0	10	344946	1501		0	0	TrialList2	target_both.png	0	dl	-1	3	344686	260		0	0															11	1	25	neut			450
1 ver1_main_procedure	27	1	34	<?xml version="1.0"?>\n<Clock xmlns:dt="urn:schemas-microsoft-com:datatypes"><Description dt:dt="string">E-Prime Primary Realtime Clock</Description><StartTime><Timestamp dt:dt="int">0</Timestamp><DateUtc dt:dt="string">2015-08-14T11:59:58Z</DateUtc></StartTime><FrequencyChanges><FrequencyChange><Frequency dt:dt="r8">2612304</Frequency><Timestamp dt:dt="r8">35320649214</Timestamp><Current dt:dt="r8">0</Current><DateUtc dt:dt="string">2015-08-14T11:59:58Z</DateUtc></FrequencyChange></FrequencyChanges></Clock>\n	1 ver1_main_procedure-27-1	99.940	1.0.0.880	1	mk	961413948	prawa	1	2.0.10.182	08-14-2015	2015-08-14 11:59:58	13:59:58	kobieta	2.0.10.92	3	4	1	1																							l	{SPACE}		no	BlockProc2		BlockList									26	Free	dl			-1	1	350529	461																								25	prime_left.png	0	348718	0	0	13	0	348718	0	348718	1	348718	20	0	-1	347219	348718	348717	0		TrialProc1	right	0		1	10	349028	1501		0	0	TrialList2	target_both.png	0	dl	-1	3	348768	260		0	0															12	1	26	incomp			450
1 ver1_main_procedure	27	1	34	<?xml version="1.0"?>\n<Clock xmlns:dt="urn:schemas-microsoft-com:datatypes"><Description dt:dt="string">E-Prime Primary Realtime Clock</Description><StartTime><Timestamp dt:dt="int">0</Timestamp><DateUtc dt:dt="string">2015-08-14T11:59:58Z</DateUtc></StartTime><FrequencyChanges><FrequencyChange><Frequency dt:dt="r8">2612304</Frequency><Timestamp dt:dt="r8">35320649214</Timestamp><Current dt:dt="r8">0</Current><DateUtc dt:dt="string">2015-08-14T11:59:58Z</DateUtc></FrequencyChange></FrequencyChanges></Clock>\n	1 ver1_main_procedure-27-1	99.940	1.0.0.880	1	mk	961413948	prawa	1	2.0.10.182	08-14-2015	2015-08-14 11:59:58	13:59:58	kobieta	2.0.10.92	3	4	1	1																							l	{SPACE}		no	BlockProc2		BlockList									27	Cued	d			-1	1	354612	460																								75	prime_right.png	0	352801	0	0	13	0	352801	0	352801	1	352801	20	0	-1	351302	352801	352800	0		TrialProc1	left	0		0	10	353111	1501		0	0	TrialList2	target_left.png	0	d	-1	3	352851	260		0	0															3	1	27	incomp			450
1 ver1_main_procedure	27	1	34	<?xml version="1.0"?>\n<Clock xmlns:dt="urn:schemas-microsoft-com:datatypes"><Description dt:dt="string">E-Prime Primary Realtime Clock</Description><StartTime><Timestamp dt:dt="int">0</Timestamp><DateUtc dt:dt="string">2015-08-14T11:59:58Z</DateUtc></StartTime><FrequencyChanges><FrequencyChange><Frequency dt:dt="r8">2612304</Frequency><Timestamp dt:dt="r8">35320649214</Timestamp><Current dt:dt="r8">0</Current><DateUtc dt:dt="string">2015-08-14T11:59:58Z</DateUtc></FrequencyChange></FrequencyChanges></Clock>\n	1 ver1_main_procedure-27-1	99.940	1.0.0.880	1	mk	961413948	prawa	1	2.0.10.182	08-14-2015	2015-08-14 11:59:58	13:59:58	kobieta	2.0.10.92	3	4	1	1																							l	{SPACE}		no	BlockProc2		BlockList									28	Cued	d			-1	1	358694	310																			2					25	prime_right.png	0	356883	0	0	13	0	356883	0	356883	1	356883	20	0	-1	355384	356883	356882	0	prime_right.png	TrialProc1	left	0		1	10	357193	1501		0	0	TrialList2	target_left.png	0	d	-1	3	356933	260		0	0															2	1	28	neut			300
1 ver1_main_procedure	27	1	34	<?xml version="1.0"?>\n<Clock xmlns:dt="urn:schemas-microsoft-com:datatypes"><Description dt:dt="string">E-Prime Primary Realtime Clock</Description><StartTime><Timestamp dt:dt="int">0</Timestamp><DateUtc dt:dt="string">2015-08-14T11:59:58Z</DateUtc></StartTime><FrequencyChanges><FrequencyChange><Frequency dt:dt="r8">2612304</Frequency><Timestamp dt:dt="r8">35320649214</Timestamp><Current dt:dt="r8">0</Current><DateUtc dt:dt="string">2015-08-14T11:59:58Z</DateUtc></FrequencyChange></FrequencyChanges></Clock>\n	1 ver1_main_procedure-27-1	99.940	1.0.0.880	1	mk	961413948	prawa	1	2.0.10.182	08-14-2015	2015-08-14 11:59:58	13:59:58	kobieta	2.0.10.92	3	4	1	1																							l	{SPACE}		no	BlockProc2		BlockList									29	Cued	d	color_green.png		-1	9	362546	161																			1					25	prime_left.png	1	360816	0	0	13	1	360816	1	360816	0	360815	20	0	-1	359316	360815	360815	0	prime_left.png	TrialProc1	left	0		0	10	361126	-361126		0	0	TrialList2	target_left.png	1	d	-1	4	360866	260	d	1670	362536															2	1	29	neut			150
1 ver1_main_procedure	27	1	34	<?xml version="1.0"?>\n<Clock xmlns:dt="urn:schemas-microsoft-com:datatypes"><Description dt:dt="string">E-Prime Primary Realtime Clock</Description><StartTime><Timestamp dt:dt="int">0</Timestamp><DateUtc dt:dt="string">2015-08-14T11:59:58Z</DateUtc></StartTime><FrequencyChanges><FrequencyChange><Frequency dt:dt="r8">2612304</Frequency><Timestamp dt:dt="r8">35320649214</Timestamp><Current dt:dt="r8">0</Current><DateUtc dt:dt="string">2015-08-14T11:59:58Z</DateUtc></FrequencyChange></FrequencyChanges></Clock>\n	1 ver1_main_procedure-27-1	99.940	1.0.0.880	1	mk	961413948	prawa	1	2.0.10.182	08-14-2015	2015-08-14 11:59:58	13:59:58	kobieta	2.0.10.92	3	4	1	1																							l	{SPACE}		no	BlockProc2		BlockList									30	Free	dl			-1	1	366329	460																								25	prime_right.png	0	364518	0	0	13	0	364518	0	364518	1	364518	20	0	-1	363018	364518	364517	0		TrialProc1	left	0		0	10	364828	1501		0	0	TrialList2	target_both.png	0	dl	-1	3	364568	260		0	0															9	1	30	incomp			450
1 ver1_main_procedure	27	1	34	<?xml version="1.0"?>\n<Clock xmlns:dt="urn:schemas-microsoft-com:datatypes"><Description dt:dt="string">E-Prime Primary Realtime Clock</Description><StartTime><Timestamp dt:dt="int">0</Timestamp><DateUtc dt:dt="string">2015-08-14T11:59:58Z</DateUtc></StartTime><FrequencyChanges><FrequencyChange><Frequency dt:dt="r8">2612304</Frequency><Timestamp dt:dt="r8">35320649214</Timestamp><Current dt:dt="r8">0</Current><DateUtc dt:dt="string">2015-08-14T11:59:58Z</DateUtc></FrequencyChange></FrequencyChanges></Clock>\n	1 ver1_main_procedure-27-1	99.940	1.0.0.880	1	mk	961413948	prawa	1	2.0.10.182	08-14-2015	2015-08-14 11:59:58	13:59:58	kobieta	2.0.10.92	3	4	1	1																							l	{SPACE}		no	BlockProc2		BlockList									31	Free	dl			-1	1	370411	311																								25	prime_right.png	0	368600	0	0	13	0	368600	0	368600	1	368600	20	0	-1	367101	368600	368599	0		TrialProc1	right	0		1	10	368910	1501		0	0	TrialList2	target_both.png	0	dl	-1	3	368650	260		0	0															10	1	31	comp			300
1 ver1_main_procedure	27	1	34	<?xml version="1.0"?>\n<Clock xmlns:dt="urn:schemas-microsoft-com:datatypes"><Description dt:dt="string">E-Prime Primary Realtime Clock</Description><StartTime><Timestamp dt:dt="int">0</Timestamp><DateUtc dt:dt="string">2015-08-14T11:59:58Z</DateUtc></StartTime><FrequencyChanges><FrequencyChange><Frequency dt:dt="r8">2612304</Frequency><Timestamp dt:dt="r8">35320649214</Timestamp><Current dt:dt="r8">0</Current><DateUtc dt:dt="string">2015-08-14T11:59:58Z</DateUtc></FrequencyChange></FrequencyChanges></Clock>\n	1 ver1_main_procedure-27-1	99.940	1.0.0.880	1	mk	961413948	prawa	1	2.0.10.182	08-14-2015	2015-08-14 11:59:58	13:59:58	kobieta	2.0.10.92	3	4	1	1																							l	{SPACE}		no	BlockProc2		BlockList									32	Free	dl			-1	1	374344	460																								75	prime_left.png	1	372533	0	0	13	1	372533	1	372533	0	372532	20	0	-1	371033	372532	372532	0		TrialProc1	right	0		0	10	372843	1501		0	0	TrialList2	target_both.png	0	dl	-1	4	372583	260		0	0															12	1	32	incomp			450
1 ver1_main_procedure	27	1	34	<?xml version="1.0"?>\n<Clock xmlns:dt="urn:schemas-microsoft-com:datatypes"><Description dt:dt="string">E-Prime Primary Realtime Clock</Description><StartTime><Timestamp dt:dt="int">0</Timestamp><DateUtc dt:dt="string">2015-08-14T11:59:58Z</DateUtc></StartTime><FrequencyChanges><FrequencyChange><Frequency dt:dt="r8">2612304</Frequency><Timestamp dt:dt="r8">35320649214</Timestamp><Current dt:dt="r8">0</Current><DateUtc dt:dt="string">2015-08-14T11:59:58Z</DateUtc></FrequencyChange></FrequencyChanges></Clock>\n	1 ver1_main_procedure-27-1	99.940	1.0.0.880	1	mk	961413948	prawa	1	2.0.10.182	08-14-2015	2015-08-14 11:59:58	13:59:58	kobieta	2.0.10.92	3	4	1	1																							l	{SPACE}		no	BlockProc2		BlockList									33	Free	dl	color_red.png		-1	6	376855	160																								25	prime_left.png	0	376615	0	0	13	0	376615	0	376615	1	376615	20	0	-1	375116	376615	376614	0		TrialProc1	right	0		0	0	0	0		0	0	TrialList2	target_both.png	0	dl	-999999	3	376665	0	l	184	376849															12	1	33	incomp			150
1 ver1_main_procedure	27	1	34	<?xml version="1.0"?>\n<Clock xmlns:dt="urn:schemas-microsoft-com:datatypes"><Description dt:dt="string">E-Prime Primary Realtime Clock</Description><StartTime><Timestamp dt:dt="int">0</Timestamp><DateUtc dt:dt="string">2015-08-14T11:59:58Z</DateUtc></StartTime><FrequencyChanges><FrequencyChange><Frequency dt:dt="r8">2612304</Frequency><Timestamp dt:dt="r8">35320649214</Timestamp><Current dt:dt="r8">0</Current><DateUtc dt:dt="string">2015-08-14T11:59:58Z</DateUtc></FrequencyChange></FrequencyChanges></Clock>\n	1 ver1_main_procedure-27-1	99.940	1.0.0.880	1	mk	961413948	prawa	1	2.0.10.182	08-14-2015	2015-08-14 11:59:58	13:59:58	kobieta	2.0.10.92	3	4	1	1																							l	{SPACE}		no	BlockProc2		BlockList									34	Free	dl			-1	1	380637	160																			2					75	prime_right.png	0	378826	0	0	13	0	378826	0	378826	1	378826	20	0	-1	377327	378826	378825	0	prime_right.png	TrialProc1	right	0		1	10	379136	1501		0	0	TrialList2	target_both.png	0	dl	-1	3	378876	260		0	0															11	1	34	neut			150
1 ver1_main_procedure	27	1	34	<?xml version="1.0"?>\n<Clock xmlns:dt="urn:schemas-microsoft-com:datatypes"><Description dt:dt="string">E-Prime Primary Realtime Clock</Description><StartTime><Timestamp dt:dt="int">0</Timestamp><DateUtc dt:dt="string">2015-08-14T11:59:58Z</DateUtc></StartTime><FrequencyChanges><FrequencyChange><Frequency dt:dt="r8">2612304</Frequency><Timestamp dt:dt="r8">35320649214</Timestamp><Current dt:dt="r8">0</Current><DateUtc dt:dt="string">2015-08-14T11:59:58Z</DateUtc></FrequencyChange></FrequencyChanges></Clock>\n	1 ver1_main_procedure-27-1	99.940	1.0.0.880	1	mk	961413948	prawa	1	2.0.10.182	08-14-2015	2015-08-14 11:59:58	13:59:58	kobieta	2.0.10.92	3	4	1	1																							l	{SPACE}		no	BlockProc2		BlockList									35	Free	dl			-1	1	384420	160																			1					75	prime_left.png	0	382609	0	0	13	0	382609	0	382609	1	382609	19	0	-1	381109	382609	382608	0	prime_left.png	TrialProc1	left	0		0	11	382919	1501		0	0	TrialList2	target_both.png	0	dl	-1	3	382658	261		0	0															8	1	35	neut			150
1 ver1_main_procedure	27	1	34	<?xml version="1.0"?>\n<Clock xmlns:dt="urn:schemas-microsoft-com:datatypes"><Description dt:dt="string">E-Prime Primary Realtime Clock</Description><StartTime><Timestamp dt:dt="int">0</Timestamp><DateUtc dt:dt="string">2015-08-14T11:59:58Z</DateUtc></StartTime><FrequencyChanges><FrequencyChange><Frequency dt:dt="r8">2612304</Frequency><Timestamp dt:dt="r8">35320649214</Timestamp><Current dt:dt="r8">0</Current><DateUtc dt:dt="string">2015-08-14T11:59:58Z</DateUtc></FrequencyChange></FrequencyChanges></Clock>\n	1 ver1_main_procedure-27-1	99.940	1.0.0.880	1	mk	961413948	prawa	1	2.0.10.182	08-14-2015	2015-08-14 11:59:58	13:59:58	kobieta	2.0.10.92	3	4	1	1																							l	{SPACE}		no	BlockProc2		BlockList									36	Free	dl	color_red.png		-1	12	386461	310																								25	prime_left.png	0	386391	0	0	13	0	386391	0	386391	1	386391	20	0	-1	384892	386391	386390	0		TrialProc1	left	0		0	0	0	0		0	0	TrialList2	target_both.png	0	dl	-999999	3	386441	0	l	8	386449															7	1	36	comp			300
1 ver1_main_procedure	27	1	34	<?xml version="1.0"?>\n<Clock xmlns:dt="urn:schemas-microsoft-com:datatypes"><Description dt:dt="string">E-Prime Primary Realtime Clock</Description><StartTime><Timestamp dt:dt="int">0</Timestamp><DateUtc dt:dt="string">2015-08-14T11:59:58Z</DateUtc></StartTime><FrequencyChanges><FrequencyChange><Frequency dt:dt="r8">2612304</Frequency><Timestamp dt:dt="r8">35320649214</Timestamp><Current dt:dt="r8">0</Current><DateUtc dt:dt="string">2015-08-14T11:59:58Z</DateUtc></FrequencyChange></FrequencyChanges></Clock>\n	1 ver1_main_procedure-27-1	99.940	1.0.0.880	1	mk	961413948	prawa	1	2.0.10.182	08-14-2015	2015-08-14 11:59:58	13:59:58	kobieta	2.0.10.92	3	4	1	1																							l	{SPACE}		no	BlockProc2		BlockList									37	Free	dl			-1	1	390393	310																			2					75	prime_right.png	0	388582	0	0	13	0	388582	0	388582	1	388582	20	0	-1	387083	388582	388581	0	prime_right.png	TrialProc1	right	0		0	10	388892	1501		0	0	TrialList2	target_both.png	0	dl	-1	3	388632	260		0	0															11	1	37	neut			300
1 ver1_main_procedure	27	1	34	<?xml version="1.0"?>\n<Clock xmlns:dt="urn:schemas-microsoft-com:datatypes"><Description dt:dt="string">E-Prime Primary Realtime Clock</Description><StartTime><Timestamp dt:dt="int">0</Timestamp><DateUtc dt:dt="string">2015-08-14T11:59:58Z</DateUtc></StartTime><FrequencyChanges><FrequencyChange><Frequency dt:dt="r8">2612304</Frequency><Timestamp dt:dt="r8">35320649214</Timestamp><Current dt:dt="r8">0</Current><DateUtc dt:dt="string">2015-08-14T11:59:58Z</DateUtc></FrequencyChange></FrequencyChanges></Clock>\n	1 ver1_main_procedure-27-1	99.940	1.0.0.880	1	mk	961413948	prawa	1	2.0.10.182	08-14-2015	2015-08-14 11:59:58	13:59:58	kobieta	2.0.10.92	3	4	1	1																							l	{SPACE}		no	BlockProc2		BlockList									38	Free	dl			-1	0	394325	311																			1					75	prime_left.png	0	392514	0	0	13	0	392515	0	392514	1	392514	20	0	-1	391015	392514	392513	0	prime_left.png	TrialProc1	left	0		0	11	392825	1500		0	0	TrialList2	target_both.png	0	dl	-1	3	392564	261		0	0															8	1	38	neut			300
1 ver1_main_procedure	27	1	34	<?xml version="1.0"?>\n<Clock xmlns:dt="urn:schemas-microsoft-com:datatypes"><Description dt:dt="string">E-Prime Primary Realtime Clock</Description><StartTime><Timestamp dt:dt="int">0</Timestamp><DateUtc dt:dt="string">2015-08-14T11:59:58Z</DateUtc></StartTime><FrequencyChanges><FrequencyChange><Frequency dt:dt="r8">2612304</Frequency><Timestamp dt:dt="r8">35320649214</Timestamp><Current dt:dt="r8">0</Current><DateUtc dt:dt="string">2015-08-14T11:59:58Z</DateUtc></FrequencyChange></FrequencyChanges></Clock>\n	1 ver1_main_procedure-27-1	99.940	1.0.0.880	1	mk	961413948	prawa	1	2.0.10.182	08-14-2015	2015-08-14 11:59:58	13:59:58	kobieta	2.0.10.92	3	4	1	1																							l	{SPACE}		no	BlockProc2		BlockList									39	Free	dl			-1	1	398258	460																								25	prime_right.png	0	396447	0	0	13	0	396447	0	396447	1	396447	20	0	-1	394948	396447	396446	0		TrialProc1	right	0		0	10	396757	1501		0	0	TrialList2	target_both.png	0	dl	-1	3	396497	260		0	0															10	1	39	comp			450
1 ver1_main_procedure	27	1	34	<?xml version="1.0"?>\n<Clock xmlns:dt="urn:schemas-microsoft-com:datatypes"><Description dt:dt="string">E-Prime Primary Realtime Clock</Description><StartTime><Timestamp dt:dt="int">0</Timestamp><DateUtc dt:dt="string">2015-08-14T11:59:58Z</DateUtc></StartTime><FrequencyChanges><FrequencyChange><Frequency dt:dt="r8">2612304</Frequency><Timestamp dt:dt="r8">35320649214</Timestamp><Current dt:dt="r8">0</Current><DateUtc dt:dt="string">2015-08-14T11:59:58Z</DateUtc></FrequencyChange></FrequencyChanges></Clock>\n	1 ver1_main_procedure-27-1	99.940	1.0.0.880	1	mk	961413948	prawa	1	2.0.10.182	08-14-2015	2015-08-14 11:59:58	13:59:58	kobieta	2.0.10.92	3	4	1	1																							l	{SPACE}		no	BlockProc2		BlockList									40	Free	dl			-1	1	402340	460																			2					25	prime_right.png	0	400529	0	0	13	0	400529	0	400529	1	400529	20	0	-1	399030	400529	400528	0	prime_right.png	TrialProc1	left	0		0	10	400839	1501		0	0	TrialList2	target_both.png	0	dl	-1	3	400579	260		0	0															8	1	40	neut			450
1 ver1_main_procedure	27	1	34	<?xml version="1.0"?>\n<Clock xmlns:dt="urn:schemas-microsoft-com:datatypes"><Description dt:dt="string">E-Prime Primary Realtime Clock</Description><StartTime><Timestamp dt:dt="int">0</Timestamp><DateUtc dt:dt="string">2015-08-14T11:59:58Z</DateUtc></StartTime><FrequencyChanges><FrequencyChange><Frequency dt:dt="r8">2612304</Frequency><Timestamp dt:dt="r8">35320649214</Timestamp><Current dt:dt="r8">0</Current><DateUtc dt:dt="string">2015-08-14T11:59:58Z</DateUtc></FrequencyChange></FrequencyChanges></Clock>\n	1 ver1_main_procedure-27-1	99.940	1.0.0.880	1	mk	961413948	prawa	1	2.0.10.182	08-14-2015	2015-08-14 11:59:58	13:59:58	kobieta	2.0.10.92	3	4	1	1																							l	{SPACE}		no	BlockProc2		BlockList									41	Free	dl			-1	1	406423	160																			1					25	prime_left.png	0	404612	0	0	13	0	404612	0	404612	1	404612	20	0	-1	403113	404612	404611	0	prime_left.png	TrialProc1	right	0		0	10	404922	1501		0	0	TrialList2	target_both.png	0	dl	-1	3	404662	260		0	0															11	1	41	neut			150
1 ver1_main_procedure	27	1	34	<?xml version="1.0"?>\n<Clock xmlns:dt="urn:schemas-microsoft-com:datatypes"><Description dt:dt="string">E-Prime Primary Realtime Clock</Description><StartTime><Timestamp dt:dt="int">0</Timestamp><DateUtc dt:dt="string">2015-08-14T11:59:58Z</DateUtc></StartTime><FrequencyChanges><FrequencyChange><Frequency dt:dt="r8">2612304</Frequency><Timestamp dt:dt="r8">35320649214</Timestamp><Current dt:dt="r8">0</Current><DateUtc dt:dt="string">2015-08-14T11:59:58Z</DateUtc></FrequencyChange></FrequencyChanges></Clock>\n	1 ver1_main_procedure-27-1	99.940	1.0.0.880	1	mk	961413948	prawa	1	2.0.10.182	08-14-2015	2015-08-14 11:59:58	13:59:58	kobieta	2.0.10.92	3	4	1	1																							l	{SPACE}		no	BlockProc2		BlockList									42	Free	dl			-1	1	410205	460																								75	prime_right.png	0	408394	0	0	13	0	408394	0	408394	1	408394	20	0	-1	406895	408394	408393	0		TrialProc1	right	0		0	10	408704	1501		0	0	TrialList2	target_both.png	0	dl	-1	3	408444	260		0	0															10	1	42	comp			450
1 ver1_main_procedure	27	1	34	<?xml version="1.0"?>\n<Clock xmlns:dt="urn:schemas-microsoft-com:datatypes"><Description dt:dt="string">E-Prime Primary Realtime Clock</Description><StartTime><Timestamp dt:dt="int">0</Timestamp><DateUtc dt:dt="string">2015-08-14T11:59:58Z</DateUtc></StartTime><FrequencyChanges><FrequencyChange><Frequency dt:dt="r8">2612304</Frequency><Timestamp dt:dt="r8">35320649214</Timestamp><Current dt:dt="r8">0</Current><DateUtc dt:dt="string">2015-08-14T11:59:58Z</DateUtc></FrequencyChange></FrequencyChanges></Clock>\n	1 ver1_main_procedure-27-1	99.940	1.0.0.880	1	mk	961413948	prawa	1	2.0.10.182	08-14-2015	2015-08-14 11:59:58	13:59:58	kobieta	2.0.10.92	3	4	1	1																							l	{SPACE}		no	BlockProc2		BlockList									43	Free	dl	color_orange.png		-1	6	412736	311																			2					25	prime_right.png	0	412476	0	0	13	0	412476	0	412476	1	412476	20	0	-1	410977	412476	412475	0	prime_right.png	TrialProc1	right	0		0	0	0	0		0	0	TrialList2	target_both.png	0	dl	-999999	3	412526	0	l	203	412729															11	1	43	neut			300
1 ver1_main_procedure	27	1	34	<?xml version="1.0"?>\n<Clock xmlns:dt="urn:schemas-microsoft-com:datatypes"><Description dt:dt="string">E-Prime Primary Realtime Clock</Description><StartTime><Timestamp dt:dt="int">0</Timestamp><DateUtc dt:dt="string">2015-08-14T11:59:58Z</DateUtc></StartTime><FrequencyChanges><FrequencyChange><Frequency dt:dt="r8">2612304</Frequency><Timestamp dt:dt="r8">35320649214</Timestamp><Current dt:dt="r8">0</Current><DateUtc dt:dt="string">2015-08-14T11:59:58Z</DateUtc></FrequencyChange></FrequencyChanges></Clock>\n	1 ver1_main_procedure-27-1	99.940	1.0.0.880	1	mk	961413948	prawa	1	2.0.10.182	08-14-2015	2015-08-14 11:59:58	13:59:58	kobieta	2.0.10.92	3	4	1	1																							l	{SPACE}		no	BlockProc2		BlockList									44	Cued	l			-1	8	415298	160																								75	prime_right.png	0	414858	0	0	13	0	414858	0	414858	1	414858	20	0	-1	413358	414858	414857	0		TrialProc1	right	0		0	10	415168	-415168		0	0	TrialList2	target_right.png	0	l	-1	3	414908	260	d	381	415289															4	1	44	comp			150
1 ver1_main_procedure	27	1	34	<?xml version="1.0"?>\n<Clock xmlns:dt="urn:schemas-microsoft-com:datatypes"><Description dt:dt="string">E-Prime Primary Realtime Clock</Description><StartTime><Timestamp dt:dt="int">0</Timestamp><DateUtc dt:dt="string">2015-08-14T11:59:58Z</DateUtc></StartTime><FrequencyChanges><FrequencyChange><Frequency dt:dt="r8">2612304</Frequency><Timestamp dt:dt="r8">35320649214</Timestamp><Current dt:dt="r8">0</Current><DateUtc dt:dt="string">2015-08-14T11:59:58Z</DateUtc></FrequencyChange></FrequencyChanges></Clock>\n	1 ver1_main_procedure-27-1	99.940	1.0.0.880	1	mk	961413948	prawa	1	2.0.10.182	08-14-2015	2015-08-14 11:59:58	13:59:58	kobieta	2.0.10.92	3	4	1	1																							l	{SPACE}		no	BlockProc2		BlockList									45	Cued	d			-1	1	419080	310																								75	prime_right.png	0	417269	0	0	13	0	417269	0	417269	1	417269	20	0	-1	415770	417269	417268	0		TrialProc1	left	0		0	10	417579	1501		0	0	TrialList2	target_left.png	0	d	-1	3	417319	260		0	0															3	1	45	incomp			300
1 ver1_main_procedure	27	1	34	<?xml version="1.0"?>\n<Clock xmlns:dt="urn:schemas-microsoft-com:datatypes"><Description dt:dt="string">E-Prime Primary Realtime Clock</Description><StartTime><Timestamp dt:dt="int">0</Timestamp><DateUtc dt:dt="string">2015-08-14T11:59:58Z</DateUtc></StartTime><FrequencyChanges><FrequencyChange><Frequency dt:dt="r8">2612304</Frequency><Timestamp dt:dt="r8">35320649214</Timestamp><Current dt:dt="r8">0</Current><DateUtc dt:dt="string">2015-08-14T11:59:58Z</DateUtc></FrequencyChange></FrequencyChanges></Clock>\n	1 ver1_main_procedure-27-1	99.940	1.0.0.880	1	mk	961413948	prawa	1	2.0.10.182	08-14-2015	2015-08-14 11:59:58	13:59:58	kobieta	2.0.10.92	3	4	1	1																							l	{SPACE}		no	BlockProc2		BlockList									46	Free	dl	color_red.png		-1	16	421442	460																								25	prime_left.png	0	421202	0	0	13	0	421202	0	421202	1	421202	19	0	-1	419702	421202	421201	0		TrialProc1	left	0		0	0	0	0		0	0	TrialList2	target_both.png	0	dl	-999999	3	421251	0	l	175	421426															7	1	46	comp			450
1 ver1_main_procedure	27	1	34	<?xml version="1.0"?>\n<Clock xmlns:dt="urn:schemas-microsoft-com:datatypes"><Description dt:dt="string">E-Prime Primary Realtime Clock</Description><StartTime><Timestamp dt:dt="int">0</Timestamp><DateUtc dt:dt="string">2015-08-14T11:59:58Z</DateUtc></StartTime><FrequencyChanges><FrequencyChange><Frequency dt:dt="r8">2612304</Frequency><Timestamp dt:dt="r8">35320649214</Timestamp><Current dt:dt="r8">0</Current><DateUtc dt:dt="string">2015-08-14T11:59:58Z</DateUtc></FrequencyChange></FrequencyChanges></Clock>\n	1 ver1_main_procedure-27-1	99.940	1.0.0.880	1	mk	961413948	prawa	1	2.0.10.182	08-14-2015	2015-08-14 11:59:58	13:59:58	kobieta	2.0.10.92	3	4	1	1																							l	{SPACE}		no	BlockProc2		BlockList									47	Free	dl	color_yellow.png		-1	9	424443	461																								25	prime_right.png	0	423713	0	0	13	0	423713	0	423713	1	423713	20	0	-1	422214	423713	423712	0		TrialProc1	right	0		0	10	424023	-424023		0	0	TrialList2	target_both.png	0	dl	-1	3	423763	260	l	671	424434															10	1	47	comp			450
1 ver1_main_procedure	27	1	34	<?xml version="1.0"?>\n<Clock xmlns:dt="urn:schemas-microsoft-com:datatypes"><Description dt:dt="string">E-Prime Primary Realtime Clock</Description><StartTime><Timestamp dt:dt="int">0</Timestamp><DateUtc dt:dt="string">2015-08-14T11:59:58Z</DateUtc></StartTime><FrequencyChanges><FrequencyChange><Frequency dt:dt="r8">2612304</Frequency><Timestamp dt:dt="r8">35320649214</Timestamp><Current dt:dt="r8">0</Current><DateUtc dt:dt="string">2015-08-14T11:59:58Z</DateUtc></FrequencyChange></FrequencyChanges></Clock>\n	1 ver1_main_procedure-27-1	99.940	1.0.0.880	1	mk	961413948	prawa	1	2.0.10.182	08-14-2015	2015-08-14 11:59:58	13:59:58	kobieta	2.0.10.92	3	4	1	1																							l	{SPACE}		no	BlockProc2		BlockList									48	Free	dl	color_purple.png		-1	15	427505	460																								75	prime_left.png	0	426715	0	0	13	0	426715	0	426715	1	426715	20	0	-1	425216	426715	426714	0		TrialProc1	left	0		0	10	427025	-427025		0	0	TrialList2	target_both.png	0	dl	-1	3	426765	260	d	725	427490															7	1	48	comp			450
1 ver1_main_procedure	27	1	34	<?xml version="1.0"?>\n<Clock xmlns:dt="urn:schemas-microsoft-com:datatypes"><Description dt:dt="string">E-Prime Primary Realtime Clock</Description><StartTime><Timestamp dt:dt="int">0</Timestamp><DateUtc dt:dt="string">2015-08-14T11:59:58Z</DateUtc></StartTime><FrequencyChanges><FrequencyChange><Frequency dt:dt="r8">2612304</Frequency><Timestamp dt:dt="r8">35320649214</Timestamp><Current dt:dt="r8">0</Current><DateUtc dt:dt="string">2015-08-14T11:59:58Z</DateUtc></FrequencyChange></FrequencyChanges></Clock>\n	1 ver1_main_procedure-27-1	99.940	1.0.0.880	1	mk	961413948	prawa	1	2.0.10.182	08-14-2015	2015-08-14 11:59:58	13:59:58	kobieta	2.0.10.92	3	4	1	1																							l	{SPACE}		no	BlockProc2		BlockList									49	Free	dl	color_purple.png		-1	13	430407	310																								75	prime_left.png	1	429777	0	0	13	1	429777	1	429777	0	429776	21	0	-1	428277	429776	429776	0		TrialProc1	left	0		0	10	430087	-430087		0	0	TrialList2	target_both.png	0	dl	-1	3	429827	260	d	567	430394															7	1	49	comp			300
1 ver1_main_procedure	27	1	34	<?xml version="1.0"?>\n<Clock xmlns:dt="urn:schemas-microsoft-com:datatypes"><Description dt:dt="string">E-Prime Primary Realtime Clock</Description><StartTime><Timestamp dt:dt="int">0</Timestamp><DateUtc dt:dt="string">2015-08-14T11:59:58Z</DateUtc></StartTime><FrequencyChanges><FrequencyChange><Frequency dt:dt="r8">2612304</Frequency><Timestamp dt:dt="r8">35320649214</Timestamp><Current dt:dt="r8">0</Current><DateUtc dt:dt="string">2015-08-14T11:59:58Z</DateUtc></FrequencyChange></FrequencyChanges></Clock>\n	1 ver1_main_procedure-27-1	99.940	1.0.0.880	1	mk	961413948	prawa	1	2.0.10.182	08-14-2015	2015-08-14 11:59:58	13:59:58	kobieta	2.0.10.92	3	4	1	1																							l	{SPACE}		no	BlockProc2		BlockList									50	Free	dl			-1	1	434339	160																								75	prime_right.png	0	432528	0	0	13	0	432528	0	432528	1	432528	20	0	-1	431029	432528	432527	0		TrialProc1	left	0		0	10	432838	1501		0	0	TrialList2	target_both.png	0	dl	-1	3	432578	260		0	0															9	1	50	incomp			150
1 ver1_main_procedure	27	1	34	<?xml version="1.0"?>\n<Clock xmlns:dt="urn:schemas-microsoft-com:datatypes"><Description dt:dt="string">E-Prime Primary Realtime Clock</Description><StartTime><Timestamp dt:dt="int">0</Timestamp><DateUtc dt:dt="string">2015-08-14T11:59:58Z</DateUtc></StartTime><FrequencyChanges><FrequencyChange><Frequency dt:dt="r8">2612304</Frequency><Timestamp dt:dt="r8">35320649214</Timestamp><Current dt:dt="r8">0</Current><DateUtc dt:dt="string">2015-08-14T11:59:58Z</DateUtc></FrequencyChange></FrequencyChanges></Clock>\n	1 ver1_main_procedure-27-1	99.940	1.0.0.880	1	mk	961413948	prawa	1	2.0.10.182	08-14-2015	2015-08-14 11:59:58	13:59:58	kobieta	2.0.10.92	3	4	1	1																							l	{SPACE}		no	BlockProc2		BlockList									51	Free	dl	color_orange.png		-1	15	436561	310																			1					25	prime_left.png	0	436310	0	0	13	1	436311	1	436311	0	436310	20	0	-1	434811	436310	436310	0	prime_left.png	TrialProc1	left	0		0	0	0	0		0	0	TrialList2	target_both.png	0	dl	-999999	3	436360	0	l	186	436546															8	1	51	neut			300
1 ver1_main_procedure	27	1	34	<?xml version="1.0"?>\n<Clock xmlns:dt="urn:schemas-microsoft-com:datatypes"><Description dt:dt="string">E-Prime Primary Realtime Clock</Description><StartTime><Timestamp dt:dt="int">0</Timestamp><DateUtc dt:dt="string">2015-08-14T11:59:58Z</DateUtc></StartTime><FrequencyChanges><FrequencyChange><Frequency dt:dt="r8">2612304</Frequency><Timestamp dt:dt="r8">35320649214</Timestamp><Current dt:dt="r8">0</Current><DateUtc dt:dt="string">2015-08-14T11:59:58Z</DateUtc></FrequencyChange></FrequencyChanges></Clock>\n	1 ver1_main_procedure-27-1	99.940	1.0.0.880	1	mk	961413948	prawa	1	2.0.10.182	08-14-2015	2015-08-14 11:59:58	13:59:58	kobieta	2.0.10.92	3	4	1	1																							l	{SPACE}		no	BlockProc2		BlockList									52	Free	dl	color_purple.png		-1	5	439512	310																								75	prime_left.png	0	438682	0	0	13	0	438682	0	438682	1	438682	20	0	-1	437183	438682	438681	0		TrialProc1	right	0		0	10	438992	-438992		0	0	TrialList2	target_both.png	0	dl	-1	3	438732	260	d	774	439506															12	1	52	incomp			300
1 ver1_main_procedure	27	1	34	<?xml version="1.0"?>\n<Clock xmlns:dt="urn:schemas-microsoft-com:datatypes"><Description dt:dt="string">E-Prime Primary Realtime Clock</Description><StartTime><Timestamp dt:dt="int">0</Timestamp><DateUtc dt:dt="string">2015-08-14T11:59:58Z</DateUtc></StartTime><FrequencyChanges><FrequencyChange><Frequency dt:dt="r8">2612304</Frequency><Timestamp dt:dt="r8">35320649214</Timestamp><Current dt:dt="r8">0</Current><DateUtc dt:dt="string">2015-08-14T11:59:58Z</DateUtc></FrequencyChange></FrequencyChanges></Clock>\n	1 ver1_main_procedure-27-1	99.940	1.0.0.880	1	mk	961413948	prawa	1	2.0.10.182	08-14-2015	2015-08-14 11:59:58	13:59:58	kobieta	2.0.10.92	3	4	1	1																							l	{SPACE}		no	BlockProc2		BlockList									53	Free	dl	color_orange.png		-1	9	441924	160																			2					25	prime_right.png	0	441634	0	0	13	0	441634	0	441634	1	441634	20	0	-1	440134	441634	441633	0	prime_right.png	TrialProc1	left	0		0	0	0	0		0	0	TrialList2	target_both.png	0	dl	-999999	3	441684	0	l	230	441914															8	1	53	neut			150
1 ver1_main_procedure	27	1	34	<?xml version="1.0"?>\n<Clock xmlns:dt="urn:schemas-microsoft-com:datatypes"><Description dt:dt="string">E-Prime Primary Realtime Clock</Description><StartTime><Timestamp dt:dt="int">0</Timestamp><DateUtc dt:dt="string">2015-08-14T11:59:58Z</DateUtc></StartTime><FrequencyChanges><FrequencyChange><Frequency dt:dt="r8">2612304</Frequency><Timestamp dt:dt="r8">35320649214</Timestamp><Current dt:dt="r8">0</Current><DateUtc dt:dt="string">2015-08-14T11:59:58Z</DateUtc></FrequencyChange></FrequencyChanges></Clock>\n	1 ver1_main_procedure-27-1	99.940	1.0.0.880	1	mk	961413948	prawa	1	2.0.10.182	08-14-2015	2015-08-14 11:59:58	13:59:58	kobieta	2.0.10.92	3	4	1	1																							l	{SPACE}		no	BlockProc2		BlockList									54	Cued	d	color_purple.png		-1	14	444225	160																								75	prime_left.png	0	443895	0	0	13	0	443895	0	443895	1	443895	20	0	-1	442396	443895	443894	0		TrialProc1	left	0		0	10	444205	-444205		0	0	TrialList2	target_left.png	1	d	-1	3	443945	260	d	265	444210															1	1	54	comp			150
1 ver1_main_procedure	27	1	34	<?xml version="1.0"?>\n<Clock xmlns:dt="urn:schemas-microsoft-com:datatypes"><Description dt:dt="string">E-Prime Primary Realtime Clock</Description><StartTime><Timestamp dt:dt="int">0</Timestamp><DateUtc dt:dt="string">2015-08-14T11:59:58Z</DateUtc></StartTime><FrequencyChanges><FrequencyChange><Frequency dt:dt="r8">2612304</Frequency><Timestamp dt:dt="r8">35320649214</Timestamp><Current dt:dt="r8">0</Current><DateUtc dt:dt="string">2015-08-14T11:59:58Z</DateUtc></FrequencyChange></FrequencyChanges></Clock>\n	1 ver1_main_procedure-27-1	99.940	1.0.0.880	1	mk	961413948	prawa	1	2.0.10.182	08-14-2015	2015-08-14 11:59:58	13:59:58	kobieta	2.0.10.92	3	4	1	1																							l	{SPACE}		no	BlockProc2		BlockList									55	Free	dl	color_yellow.png		-1	8	446587	460																								75	prime_right.png	0	446196	0	0	13	0	446196	0	446196	1	446196	20	0	-1	444697	446196	446195	0		TrialProc1	left	0		1	10	446506	-446506		0	0	TrialList2	target_both.png	0	dl	-1	3	446246	260	l	332	446578															9	1	55	incomp			450
1 ver1_main_procedure	27	1	34	<?xml version="1.0"?>\n<Clock xmlns:dt="urn:schemas-microsoft-com:datatypes"><Description dt:dt="string">E-Prime Primary Realtime Clock</Description><StartTime><Timestamp dt:dt="int">0</Timestamp><DateUtc dt:dt="string">2015-08-14T11:59:58Z</DateUtc></StartTime><FrequencyChanges><FrequencyChange><Frequency dt:dt="r8">2612304</Frequency><Timestamp dt:dt="r8">35320649214</Timestamp><Current dt:dt="r8">0</Current><DateUtc dt:dt="string">2015-08-14T11:59:58Z</DateUtc></FrequencyChange></FrequencyChanges></Clock>\n	1 ver1_main_procedure-27-1	99.940	1.0.0.880	1	mk	961413948	prawa	1	2.0.10.182	08-14-2015	2015-08-14 11:59:58	13:59:58	kobieta	2.0.10.92	3	4	1	1																							l	{SPACE}		no	BlockProc2		BlockList									56	Free	dl			-1	1	450669	460																								25	prime_right.png	0	448858	0	0	13	0	448858	0	448858	1	448858	20	0	-1	447359	448858	448857	0		TrialProc1	left	0		0	10	449168	1501		0	0	TrialList2	target_both.png	0	dl	-1	3	448908	260		0	0															9	1	56	incomp			450
1 ver1_main_procedure	27	1	34	<?xml version="1.0"?>\n<Clock xmlns:dt="urn:schemas-microsoft-com:datatypes"><Description dt:dt="string">E-Prime Primary Realtime Clock</Description><StartTime><Timestamp dt:dt="int">0</Timestamp><DateUtc dt:dt="string">2015-08-14T11:59:58Z</DateUtc></StartTime><FrequencyChanges><FrequencyChange><Frequency dt:dt="r8">2612304</Frequency><Timestamp dt:dt="r8">35320649214</Timestamp><Current dt:dt="r8">0</Current><DateUtc dt:dt="string">2015-08-14T11:59:58Z</DateUtc></FrequencyChange></FrequencyChanges></Clock>\n	1 ver1_main_procedure-27-1	99.940	1.0.0.880	1	mk	961413948	prawa	1	2.0.10.182	08-14-2015	2015-08-14 11:59:58	13:59:58	kobieta	2.0.10.92	3	4	1	1																							l	{SPACE}		no	BlockProc2		BlockList									57	Free	dl	color_yellow.png		-1	10	453301	160																								25	prime_right.png	0	452940	0	0	13	0	452940	0	452940	1	452940	20	0	-1	451441	452940	452939	0		TrialProc1	left	0		1	10	453250	-453250		0	0	TrialList2	target_both.png	0	dl	-1	3	452990	260	l	300	453290															9	1	57	incomp			150
1 ver1_main_procedure	27	1	34	<?xml version="1.0"?>\n<Clock xmlns:dt="urn:schemas-microsoft-com:datatypes"><Description dt:dt="string">E-Prime Primary Realtime Clock</Description><StartTime><Timestamp dt:dt="int">0</Timestamp><DateUtc dt:dt="string">2015-08-14T11:59:58Z</DateUtc></StartTime><FrequencyChanges><FrequencyChange><Frequency dt:dt="r8">2612304</Frequency><Timestamp dt:dt="r8">35320649214</Timestamp><Current dt:dt="r8">0</Current><DateUtc dt:dt="string">2015-08-14T11:59:58Z</DateUtc></FrequencyChange></FrequencyChanges></Clock>\n	1 ver1_main_procedure-27-1	99.940	1.0.0.880	1	mk	961413948	prawa	1	2.0.10.182	08-14-2015	2015-08-14 11:59:58	13:59:58	kobieta	2.0.10.92	3	4	1	1																							l	{SPACE}		no	BlockProc2		BlockList									58	Free	dl	color_blue.png		-1	11	455742	310																								75	prime_right.png	0	455272	0	0	13	0	455272	0	455272	1	455272	20	0	-1	453772	455272	455271	0		TrialProc1	left	0		0	10	455582	-455582		0	0	TrialList2	target_both.png	0	dl	-1	3	455322	260	d	408	455730															9	1	58	incomp			300
1 ver1_main_procedure	27	1	34	<?xml version="1.0"?>\n<Clock xmlns:dt="urn:schemas-microsoft-com:datatypes"><Description dt:dt="string">E-Prime Primary Realtime Clock</Description><StartTime><Timestamp dt:dt="int">0</Timestamp><DateUtc dt:dt="string">2015-08-14T11:59:58Z</DateUtc></StartTime><FrequencyChanges><FrequencyChange><Frequency dt:dt="r8">2612304</Frequency><Timestamp dt:dt="r8">35320649214</Timestamp><Current dt:dt="r8">0</Current><DateUtc dt:dt="string">2015-08-14T11:59:58Z</DateUtc></FrequencyChange></FrequencyChanges></Clock>\n	1 ver1_main_procedure-27-1	99.940	1.0.0.880	1	mk	961413948	prawa	1	2.0.10.182	08-14-2015	2015-08-14 11:59:58	13:59:58	kobieta	2.0.10.92	3	4	1	1																							l	{SPACE}		no	BlockProc2		BlockList									59	Free	dl	color_red.png		-1	14	458153	461																								25	prime_left.png	0	457863	0	0	13	0	457863	0	457863	1	457863	20	0	-1	456364	457863	457862	0		TrialProc1	right	0		0	0	0	0		0	0	TrialList2	target_both.png	0	dl	-999999	3	457913	0	l	225	458138															12	1	59	incomp			450
1 ver1_main_procedure	27	1	34	<?xml version="1.0"?>\n<Clock xmlns:dt="urn:schemas-microsoft-com:datatypes"><Description dt:dt="string">E-Prime Primary Realtime Clock</Description><StartTime><Timestamp dt:dt="int">0</Timestamp><DateUtc dt:dt="string">2015-08-14T11:59:58Z</DateUtc></StartTime><FrequencyChanges><FrequencyChange><Frequency dt:dt="r8">2612304</Frequency><Timestamp dt:dt="r8">35320649214</Timestamp><Current dt:dt="r8">0</Current><DateUtc dt:dt="string">2015-08-14T11:59:58Z</DateUtc></FrequencyChange></FrequencyChanges></Clock>\n	1 ver1_main_procedure-27-1	99.940	1.0.0.880	1	mk	961413948	prawa	1	2.0.10.182	08-14-2015	2015-08-14 11:59:58	13:59:58	kobieta	2.0.10.92	3	4	1	1																							l	{SPACE}		no	BlockProc2		BlockList									60	Free	dl	color_purple.png		-1	12	460695	160																								25	prime_left.png	0	460425	0	0	13	0	460425	0	460425	1	460425	20	0	-1	458926	460425	460424	0		TrialProc1	right	0		0	0	0	0		0	0	TrialList2	target_both.png	0	dl	-999999	3	460475	0	d	207	460682															12	1	60	incomp			150
1 ver1_main_procedure	27	1	34	<?xml version="1.0"?>\n<Clock xmlns:dt="urn:schemas-microsoft-com:datatypes"><Description dt:dt="string">E-Prime Primary Realtime Clock</Description><StartTime><Timestamp dt:dt="int">0</Timestamp><DateUtc dt:dt="string">2015-08-14T11:59:58Z</DateUtc></StartTime><FrequencyChanges><FrequencyChange><Frequency dt:dt="r8">2612304</Frequency><Timestamp dt:dt="r8">35320649214</Timestamp><Current dt:dt="r8">0</Current><DateUtc dt:dt="string">2015-08-14T11:59:58Z</DateUtc></FrequencyChange></FrequencyChanges></Clock>\n	1 ver1_main_procedure-27-1	99.940	1.0.0.880	1	mk	961413948	prawa	1	2.0.10.182	08-14-2015	2015-08-14 11:59:58	13:59:58	kobieta	2.0.10.92	3	4	1	1																							l	{SPACE}		no	BlockProc2		BlockList									61	Cued	d	color_blue.png		-1	5	463216	311																								75	prime_right.png	0	462666	0	0	13	0	462666	0	462666	1	462666	20	0	-1	461167	462666	462665	0		TrialProc1	left	0		0	10	462976	-462976		0	0	TrialList2	target_left.png	1	d	-1	3	462716	260	d	494	463210															3	1	61	incomp			300
1 ver1_main_procedure	27	1	34	<?xml version="1.0"?>\n<Clock xmlns:dt="urn:schemas-microsoft-com:datatypes"><Description dt:dt="string">E-Prime Primary Realtime Clock</Description><StartTime><Timestamp dt:dt="int">0</Timestamp><DateUtc dt:dt="string">2015-08-14T11:59:58Z</DateUtc></StartTime><FrequencyChanges><FrequencyChange><Frequency dt:dt="r8">2612304</Frequency><Timestamp dt:dt="r8">35320649214</Timestamp><Current dt:dt="r8">0</Current><DateUtc dt:dt="string">2015-08-14T11:59:58Z</DateUtc></FrequencyChange></FrequencyChanges></Clock>\n	1 ver1_main_procedure-27-1	99.940	1.0.0.880	1	mk	961413948	prawa	1	2.0.10.182	08-14-2015	2015-08-14 11:59:58	13:59:58	kobieta	2.0.10.92	3	4	1	1																							l	{SPACE}		no	BlockProc2		BlockList									62	Free	dl	color_green.png		-1	9	465788	310																			1					75	prime_left.png	0	465338	0	0	13	0	465338	0	465338	1	465338	20	0	-1	463839	465338	465337	0	prime_left.png	TrialProc1	left	0		0	10	465648	-465648		0	0	TrialList2	target_both.png	0	dl	-1	3	465388	260	d	390	465778															8	1	62	neut			300
1 ver1_main_procedure	27	1	34	<?xml version="1.0"?>\n<Clock xmlns:dt="urn:schemas-microsoft-com:datatypes"><Description dt:dt="string">E-Prime Primary Realtime Clock</Description><StartTime><Timestamp dt:dt="int">0</Timestamp><DateUtc dt:dt="string">2015-08-14T11:59:58Z</DateUtc></StartTime><FrequencyChanges><FrequencyChange><Frequency dt:dt="r8">2612304</Frequency><Timestamp dt:dt="r8">35320649214</Timestamp><Current dt:dt="r8">0</Current><DateUtc dt:dt="string">2015-08-14T11:59:58Z</DateUtc></FrequencyChange></FrequencyChanges></Clock>\n	1 ver1_main_procedure-27-1	99.940	1.0.0.880	1	mk	961413948	prawa	1	2.0.10.182	08-14-2015	2015-08-14 11:59:58	13:59:58	kobieta	2.0.10.92	3	4	1	1																							l	{SPACE}		no	BlockProc2		BlockList									63	Free	dl	color_purple.png		-1	12	468239	461																								75	prime_left.png	0	467909	0	0	13	0	467909	0	467909	1	467909	20	0	-1	466410	467909	467908	0		TrialProc1	right	0		1	10	468219	-468219		0	0	TrialList2	target_both.png	0	dl	-1	3	467959	260	d	267	468226															12	1	63	incomp			450
1 ver1_main_procedure	27	1	34	<?xml version="1.0"?>\n<Clock xmlns:dt="urn:schemas-microsoft-com:datatypes"><Description dt:dt="string">E-Prime Primary Realtime Clock</Description><StartTime><Timestamp dt:dt="int">0</Timestamp><DateUtc dt:dt="string">2015-08-14T11:59:58Z</DateUtc></StartTime><FrequencyChanges><FrequencyChange><Frequency dt:dt="r8">2612304</Frequency><Timestamp dt:dt="r8">35320649214</Timestamp><Current dt:dt="r8">0</Current><DateUtc dt:dt="string">2015-08-14T11:59:58Z</DateUtc></FrequencyChange></FrequencyChanges></Clock>\n	1 ver1_main_procedure-27-1	99.940	1.0.0.880	1	mk	961413948	prawa	1	2.0.10.182	08-14-2015	2015-08-14 11:59:58	13:59:58	kobieta	2.0.10.92	3	4	1	1																							l	{SPACE}		no	BlockProc2		BlockList									64	Cued	l			-1	10	470831	310																								75	prime_right.png	0	470511	0	0	13	0	470511	0	470511	1	470511	20	0	-1	469012	470511	470510	0		TrialProc1	right	0		-999999	10	470821	0		0	0	TrialList2	target_right.png	0	l	-1	3	470561	0	d	258	470819															4	1	64	comp			300
1 ver1_main_procedure	27	1	34	<?xml version="1.0"?>\n<Clock xmlns:dt="urn:schemas-microsoft-com:datatypes"><Description dt:dt="string">E-Prime Primary Realtime Clock</Description><StartTime><Timestamp dt:dt="int">0</Timestamp><DateUtc dt:dt="string">2015-08-14T11:59:58Z</DateUtc></StartTime><FrequencyChanges><FrequencyChange><Frequency dt:dt="r8">2612304</Frequency><Timestamp dt:dt="r8">35320649214</Timestamp><Current dt:dt="r8">0</Current><DateUtc dt:dt="string">2015-08-14T11:59:58Z</DateUtc></FrequencyChange></FrequencyChanges></Clock>\n	1 ver1_main_procedure-27-1	99.940	1.0.0.880	1	mk	961413948	prawa	1	2.0.10.182	08-14-2015	2015-08-14 11:59:58	13:59:58	kobieta	2.0.10.92	3	4	1	1																							l	{SPACE}		no	BlockProc2		BlockList									65	Cued	d			-1	1	474763	160																								25	prime_left.png	0	472952	0	0	13	0	472952	0	472952	1	472952	20	0	-1	471453	472952	472951	0		TrialProc1	left	0		1	10	473262	1501		0	0	TrialList2	target_left.png	0	d	-1	3	473002	260		0	0															1	1	65	comp			150
1 ver1_main_procedure	27	1	34	<?xml version="1.0"?>\n<Clock xmlns:dt="urn:schemas-microsoft-com:datatypes"><Description dt:dt="string">E-Prime Primary Realtime Clock</Description><StartTime><Timestamp dt:dt="int">0</Timestamp><DateUtc dt:dt="string">2015-08-14T11:59:58Z</DateUtc></StartTime><FrequencyChanges><FrequencyChange><Frequency dt:dt="r8">2612304</Frequency><Timestamp dt:dt="r8">35320649214</Timestamp><Current dt:dt="r8">0</Current><DateUtc dt:dt="string">2015-08-14T11:59:58Z</DateUtc></FrequencyChange></FrequencyChanges></Clock>\n	1 ver1_main_procedure-27-1	99.940	1.0.0.880	1	mk	961413948	prawa	1	2.0.10.182	08-14-2015	2015-08-14 11:59:58	13:59:58	kobieta	2.0.10.92	3	4	1	1																							l	{SPACE}		no	BlockProc2		BlockList									66	Free	dl	color_orange.png		-1	8	476995	160																			2					25	prime_right.png	1	476735	0	0	13	1	476735	1	476735	0	476734	20	0	-1	475235	476734	476734	0	prime_right.png	TrialProc1	right	0		0	0	0	0		0	0	TrialList2	target_both.png	0	dl	-999999	3	476784	0	l	203	476987															11	1	66	neut			150
1 ver1_main_procedure	27	1	34	<?xml version="1.0"?>\n<Clock xmlns:dt="urn:schemas-microsoft-com:datatypes"><Description dt:dt="string">E-Prime Primary Realtime Clock</Description><StartTime><Timestamp dt:dt="int">0</Timestamp><DateUtc dt:dt="string">2015-08-14T11:59:58Z</DateUtc></StartTime><FrequencyChanges><FrequencyChange><Frequency dt:dt="r8">2612304</Frequency><Timestamp dt:dt="r8">35320649214</Timestamp><Current dt:dt="r8">0</Current><DateUtc dt:dt="string">2015-08-14T11:59:58Z</DateUtc></FrequencyChange></FrequencyChanges></Clock>\n	1 ver1_main_procedure-27-1	99.940	1.0.0.880	1	mk	961413948	prawa	1	2.0.10.182	08-14-2015	2015-08-14 11:59:58	13:59:58	kobieta	2.0.10.92	3	4	1	1																							l	{SPACE}		no	BlockProc2		BlockList									67	Free	dl	color_purple.png		-1	11	479326	460																								75	prime_left.png	0	478966	0	0	13	0	478966	0	478966	1	478966	20	0	-1	477467	478966	478965	0		TrialProc1	left	0		0	10	479276	-479276		0	0	TrialList2	target_both.png	0	dl	-1	3	479016	260	d	299	479315															7	1	67	comp			450
1 ver1_main_procedure	27	1	34	<?xml version="1.0"?>\n<Clock xmlns:dt="urn:schemas-microsoft-com:datatypes"><Description dt:dt="string">E-Prime Primary Realtime Clock</Description><StartTime><Timestamp dt:dt="int">0</Timestamp><DateUtc dt:dt="string">2015-08-14T11:59:58Z</DateUtc></StartTime><FrequencyChanges><FrequencyChange><Frequency dt:dt="r8">2612304</Frequency><Timestamp dt:dt="r8">35320649214</Timestamp><Current dt:dt="r8">0</Current><DateUtc dt:dt="string">2015-08-14T11:59:58Z</DateUtc></FrequencyChange></FrequencyChanges></Clock>\n	1 ver1_main_procedure-27-1	99.940	1.0.0.880	1	mk	961413948	prawa	1	2.0.10.182	08-14-2015	2015-08-14 11:59:58	13:59:58	kobieta	2.0.10.92	3	4	1	1																							l	{SPACE}		no	BlockProc2		BlockList									68	Free	dl	color_yellow.png		-1	6	481857	311																								25	prime_right.png	0	481597	0	0	13	0	481598	0	481597	1	481597	20	0	-1	480098	481597	481596	0		TrialProc1	right	0		0	0	0	0		0	0	TrialList2	target_both.png	0	dl	-999999	3	481647	0	l	204	481851															10	1	68	comp			300
1 ver1_main_procedure	27	1	34	<?xml version="1.0"?>\n<Clock xmlns:dt="urn:schemas-microsoft-com:datatypes"><Description dt:dt="string">E-Prime Primary Realtime Clock</Description><StartTime><Timestamp dt:dt="int">0</Timestamp><DateUtc dt:dt="string">2015-08-14T11:59:58Z</DateUtc></StartTime><FrequencyChanges><FrequencyChange><Frequency dt:dt="r8">2612304</Frequency><Timestamp dt:dt="r8">35320649214</Timestamp><Current dt:dt="r8">0</Current><DateUtc dt:dt="string">2015-08-14T11:59:58Z</DateUtc></FrequencyChange></FrequencyChanges></Clock>\n	1 ver1_main_procedure-27-1	99.940	1.0.0.880	1	mk	961413948	prawa	1	2.0.10.182	08-14-2015	2015-08-14 11:59:58	13:59:58	kobieta	2.0.10.92	3	4	1	1																							l	{SPACE}		no	BlockProc2		BlockList									69	Free	dl	color_yellow.png		-1	6	484449	460																								25	prime_right.png	0	483979	0	0	13	0	483979	0	483979	1	483979	20	0	-1	482480	483979	483978	0		TrialProc1	left	0		0	10	484289	-484289		0	0	TrialList2	target_both.png	0	dl	-1	3	484029	260	l	414	484443															9	1	69	incomp			450
1 ver1_main_procedure	27	1	34	<?xml version="1.0"?>\n<Clock xmlns:dt="urn:schemas-microsoft-com:datatypes"><Description dt:dt="string">E-Prime Primary Realtime Clock</Description><StartTime><Timestamp dt:dt="int">0</Timestamp><DateUtc dt:dt="string">2015-08-14T11:59:58Z</DateUtc></StartTime><FrequencyChanges><FrequencyChange><Frequency dt:dt="r8">2612304</Frequency><Timestamp dt:dt="r8">35320649214</Timestamp><Current dt:dt="r8">0</Current><DateUtc dt:dt="string">2015-08-14T11:59:58Z</DateUtc></FrequencyChange></FrequencyChanges></Clock>\n	1 ver1_main_procedure-27-1	99.940	1.0.0.880	1	mk	961413948	prawa	1	2.0.10.182	08-14-2015	2015-08-14 11:59:58	13:59:58	kobieta	2.0.10.92	3	4	1	1																							l	{SPACE}		no	BlockProc2		BlockList									70	Free	dl	color_yellow.png		-1	7	487091	460																								25	prime_right.png	0	486720	0	0	13	1	486721	1	486721	0	486720	20	0	-1	485221	486720	486720	0		TrialProc1	right	0		0	11	487031	-487031		0	0	TrialList2	target_both.png	0	dl	-1	3	486770	261	l	313	487083															10	1	70	comp			450
1 ver1_main_procedure	27	1	34	<?xml version="1.0"?>\n<Clock xmlns:dt="urn:schemas-microsoft-com:datatypes"><Description dt:dt="string">E-Prime Primary Realtime Clock</Description><StartTime><Timestamp dt:dt="int">0</Timestamp><DateUtc dt:dt="string">2015-08-14T11:59:58Z</DateUtc></StartTime><FrequencyChanges><FrequencyChange><Frequency dt:dt="r8">2612304</Frequency><Timestamp dt:dt="r8">35320649214</Timestamp><Current dt:dt="r8">0</Current><DateUtc dt:dt="string">2015-08-14T11:59:58Z</DateUtc></FrequencyChange></FrequencyChanges></Clock>\n	1 ver1_main_procedure-27-1	99.940	1.0.0.880	1	mk	961413948	prawa	1	2.0.10.182	08-14-2015	2015-08-14 11:59:58	13:59:58	kobieta	2.0.10.92	3	4	1	1																							l	{SPACE}		no	BlockProc2		BlockList									71	Free	dl	color_green.png		-1	12	489952	310																			1					75	prime_left.png	0	489362	0	0	13	0	489362	0	489362	1	489362	20	0	-1	487863	489362	489361	0	prime_left.png	TrialProc1	right	0		0	10	489672	-489672		0	0	TrialList2	target_both.png	0	dl	-1	3	489412	260	d	527	489939															11	1	71	neut			300
1 ver1_main_procedure	27	1	34	<?xml version="1.0"?>\n<Clock xmlns:dt="urn:schemas-microsoft-com:datatypes"><Description dt:dt="string">E-Prime Primary Realtime Clock</Description><StartTime><Timestamp dt:dt="int">0</Timestamp><DateUtc dt:dt="string">2015-08-14T11:59:58Z</DateUtc></StartTime><FrequencyChanges><FrequencyChange><Frequency dt:dt="r8">2612304</Frequency><Timestamp dt:dt="r8">35320649214</Timestamp><Current dt:dt="r8">0</Current><DateUtc dt:dt="string">2015-08-14T11:59:58Z</DateUtc></FrequencyChange></FrequencyChanges></Clock>\n	1 ver1_main_procedure-27-1	99.940	1.0.0.880	1	mk	961413948	prawa	1	2.0.10.182	08-14-2015	2015-08-14 11:59:58	13:59:58	kobieta	2.0.10.92	3	4	1	1																							l	{SPACE}		no	BlockProc2		BlockList									72	Free	dl	color_red.png		-1	10	492394	460																								25	prime_left.png	0	492074	0	0	13	0	492074	0	492074	1	492074	20	0	-1	490574	492074	492073	0		TrialProc1	right	0		-999999	10	492384	0		0	0	TrialList2	target_both.png	0	dl	-1	3	492124	0	l	255	492379															12	1	72	incomp			450
1 ver1_main_procedure	27	1	34	<?xml version="1.0"?>\n<Clock xmlns:dt="urn:schemas-microsoft-com:datatypes"><Description dt:dt="string">E-Prime Primary Realtime Clock</Description><StartTime><Timestamp dt:dt="int">0</Timestamp><DateUtc dt:dt="string">2015-08-14T11:59:58Z</DateUtc></StartTime><FrequencyChanges><FrequencyChange><Frequency dt:dt="r8">2612304</Frequency><Timestamp dt:dt="r8">35320649214</Timestamp><Current dt:dt="r8">0</Current><DateUtc dt:dt="string">2015-08-14T11:59:58Z</DateUtc></FrequencyChange></FrequencyChanges></Clock>\n	1 ver1_main_procedure-27-1	99.940	1.0.0.880	1	mk	961413948	prawa	1	2.0.10.182	08-14-2015	2015-08-14 11:59:58	13:59:58	kobieta	2.0.10.92	3	4	1	1																							l	{SPACE}		no	BlockProc2		BlockList									73									4	6	2	3	5	1	color_yellow.png	color_orange.png	color_green.png	color_purple.png	color_blue.png	color_red.png	color_red.png	color_green.png	color_purple.png	color_yellow.png	color_blue.png	color_orange.png		1	1	1	140368																						DragProc											Ocena																															
1 ver1_main_procedure	27	1	34	<?xml version="1.0"?>\n<Clock xmlns:dt="urn:schemas-microsoft-com:datatypes"><Description dt:dt="string">E-Prime Primary Realtime Clock</Description><StartTime><Timestamp dt:dt="int">0</Timestamp><DateUtc dt:dt="string">2015-08-14T11:59:58Z</DateUtc></StartTime><FrequencyChanges><FrequencyChange><Frequency dt:dt="r8">2612304</Frequency><Timestamp dt:dt="r8">35320649214</Timestamp><Current dt:dt="r8">0</Current><DateUtc dt:dt="string">2015-08-14T11:59:58Z</DateUtc></FrequencyChange></FrequencyChanges></Clock>\n	1 ver1_main_procedure-27-1	99.940	1.0.0.880	1	mk	961413948	prawa	1	2.0.10.182	08-14-2015	2015-08-14 11:59:58	13:59:58	kobieta	2.0.10.92	3	4	1	1																							l	{SPACE}		no	BlockProc2		BlockList									74															color_yellow.png	color_orange.png	color_green.png	color_purple.png	color_blue.png	color_red.png								2	1	2																							EnterProc											Ocena												10	30	60	80	90	100														
1 ver1_main_procedure	27	1	34	<?xml version="1.0"?>\n<Clock xmlns:dt="urn:schemas-microsoft-com:datatypes"><Description dt:dt="string">E-Prime Primary Realtime Clock</Description><StartTime><Timestamp dt:dt="int">0</Timestamp><DateUtc dt:dt="string">2015-08-14T11:59:58Z</DateUtc></StartTime><FrequencyChanges><FrequencyChange><Frequency dt:dt="r8">2612304</Frequency><Timestamp dt:dt="r8">35320649214</Timestamp><Current dt:dt="r8">0</Current><DateUtc dt:dt="string">2015-08-14T11:59:58Z</DateUtc></FrequencyChange></FrequencyChanges></Clock>\n	1 ver1_main_procedure-27-1	99.940	1.0.0.880	1	mk	961413948	prawa	1	2.0.10.182	08-14-2015	2015-08-14 11:59:58	13:59:58	kobieta	2.0.10.92	4	1	1	2																							d	{SPACE}		no	BlockProc1		BlockList									1	Cued	l			-1	1	827543	310																								75	prime_right.png	0	825732	0	0	13	0	825732	0	825732	1	825732	20	0	-1	824233	825732	825731	0		TrialProc1	right	0		0	10	826042	1501		0	0	TrialList1	target_right.png	0	l	-1	3	825782	260		0	0												4	1	1				comp			300
1 ver1_main_procedure	27	1	34	<?xml version="1.0"?>\n<Clock xmlns:dt="urn:schemas-microsoft-com:datatypes"><Description dt:dt="string">E-Prime Primary Realtime Clock</Description><StartTime><Timestamp dt:dt="int">0</Timestamp><DateUtc dt:dt="string">2015-08-14T11:59:58Z</DateUtc></StartTime><FrequencyChanges><FrequencyChange><Frequency dt:dt="r8">2612304</Frequency><Timestamp dt:dt="r8">35320649214</Timestamp><Current dt:dt="r8">0</Current><DateUtc dt:dt="string">2015-08-14T11:59:58Z</DateUtc></FrequencyChange></FrequencyChanges></Clock>\n	1 ver1_main_procedure-27-1	99.940	1.0.0.880	1	mk	961413948	prawa	1	2.0.10.182	08-14-2015	2015-08-14 11:59:58	13:59:58	kobieta	2.0.10.92	4	1	1	2																							d	{SPACE}		no	BlockProc1		BlockList									2	Free	dl	color_green.png		-1	13	830055	460																								75	prime_left.png	0	829664	0	0	13	1	829665	1	829665	0	829664	20	0	-1	828165	829664	829664	0		TrialProc1	left	0		0	11	829975	-829975		0	0	TrialList1	target_both.png	0	dl	-1	3	829714	261	d	328	830042												7	1	2				comp			450
1 ver1_main_procedure	27	1	34	<?xml version="1.0"?>\n<Clock xmlns:dt="urn:schemas-microsoft-com:datatypes"><Description dt:dt="string">E-Prime Primary Realtime Clock</Description><StartTime><Timestamp dt:dt="int">0</Timestamp><DateUtc dt:dt="string">2015-08-14T11:59:58Z</DateUtc></StartTime><FrequencyChanges><FrequencyChange><Frequency dt:dt="r8">2612304</Frequency><Timestamp dt:dt="r8">35320649214</Timestamp><Current dt:dt="r8">0</Current><DateUtc dt:dt="string">2015-08-14T11:59:58Z</DateUtc></FrequencyChange></FrequencyChanges></Clock>\n	1 ver1_main_procedure-27-1	99.940	1.0.0.880	1	mk	961413948	prawa	1	2.0.10.182	08-14-2015	2015-08-14 11:59:58	13:59:58	kobieta	2.0.10.92	4	1	1	2																							d	{SPACE}		no	BlockProc1		BlockList									3	Cued	l			-1	9	832796	160																								75	prime_right.png	0	832326	0	0	13	0	832326	0	832326	1	832326	20	0	-1	830827	832326	832325	0		TrialProc1	right	0		1	10	832636	-832636		0	0	TrialList1	target_right.png	0	l	-1	3	832376	260	d	410	832786												4	1	3				comp			150
1 ver1_main_procedure	27	1	34	<?xml version="1.0"?>\n<Clock xmlns:dt="urn:schemas-microsoft-com:datatypes"><Description dt:dt="string">E-Prime Primary Realtime Clock</Description><StartTime><Timestamp dt:dt="int">0</Timestamp><DateUtc dt:dt="string">2015-08-14T11:59:58Z</DateUtc></StartTime><FrequencyChanges><FrequencyChange><Frequency dt:dt="r8">2612304</Frequency><Timestamp dt:dt="r8">35320649214</Timestamp><Current dt:dt="r8">0</Current><DateUtc dt:dt="string">2015-08-14T11:59:58Z</DateUtc></FrequencyChange></FrequencyChanges></Clock>\n	1 ver1_main_procedure-27-1	99.940	1.0.0.880	1	mk	961413948	prawa	1	2.0.10.182	08-14-2015	2015-08-14 11:59:58	13:59:58	kobieta	2.0.10.92	4	1	1	2																							d	{SPACE}		no	BlockProc1		BlockList									4	Cued	d			-1	9	835108	160																								25	prime_right.png	1	834768	0	0	13	1	834768	1	834768	0	834767	20	0	-1	833268	834767	834767	0		TrialProc1	left	0		0	11	835078	-835078		0	0	TrialList1	target_left.png	0	d	-1	3	834817	261	l	281	835098												3	1	4				incomp			150
1 ver1_main_procedure	27	1	34	<?xml version="1.0"?>\n<Clock xmlns:dt="urn:schemas-microsoft-com:datatypes"><Description dt:dt="string">E-Prime Primary Realtime Clock</Description><StartTime><Timestamp dt:dt="int">0</Timestamp><DateUtc dt:dt="string">2015-08-14T11:59:58Z</DateUtc></StartTime><FrequencyChanges><FrequencyChange><Frequency dt:dt="r8">2612304</Frequency><Timestamp dt:dt="r8">35320649214</Timestamp><Current dt:dt="r8">0</Current><DateUtc dt:dt="string">2015-08-14T11:59:58Z</DateUtc></FrequencyChange></FrequencyChanges></Clock>\n	1 ver1_main_procedure-27-1	99.940	1.0.0.880	1	mk	961413948	prawa	1	2.0.10.182	08-14-2015	2015-08-14 11:59:58	13:59:58	kobieta	2.0.10.92	4	1	1	2																							d	{SPACE}		no	BlockProc1		BlockList									5	Free	dl	color_blue.png		-1	10	837399	310																			2					75	prime_right.png	0	837079	0	0	13	0	837079	0	837079	1	837079	20	0	-1	835580	837079	837078	0	prime_right.png	TrialProc1	left	0		-999999	10	837389	0		0	0	TrialList1	target_both.png	0	dl	-1	3	837129	0	l	257	837386												8	1	5				neut			300
1 ver1_main_procedure	27	1	34	<?xml version="1.0"?>\n<Clock xmlns:dt="urn:schemas-microsoft-com:datatypes"><Description dt:dt="string">E-Prime Primary Realtime Clock</Description><StartTime><Timestamp dt:dt="int">0</Timestamp><DateUtc dt:dt="string">2015-08-14T11:59:58Z</DateUtc></StartTime><FrequencyChanges><FrequencyChange><Frequency dt:dt="r8">2612304</Frequency><Timestamp dt:dt="r8">35320649214</Timestamp><Current dt:dt="r8">0</Current><DateUtc dt:dt="string">2015-08-14T11:59:58Z</DateUtc></FrequencyChange></FrequencyChanges></Clock>\n	1 ver1_main_procedure-27-1	99.940	1.0.0.880	1	mk	961413948	prawa	1	2.0.10.182	08-14-2015	2015-08-14 11:59:58	13:59:58	kobieta	2.0.10.92	4	1	1	2																							d	{SPACE}		no	BlockProc1		BlockList									6	Cued	d	color_yellow.png		-1	10	840541	160																			1					25	prime_left.png	0	839520	0	0	13	0	839520	0	839520	1	839520	20	0	-1	838021	839520	839519	0	prime_left.png	TrialProc1	left	0		1	10	839830	-839830		0	0	TrialList1	target_left.png	1	d	-1	3	839570	260	d	960	840530												2	1	6				neut			150
1 ver1_main_procedure	27	1	34	<?xml version="1.0"?>\n<Clock xmlns:dt="urn:schemas-microsoft-com:datatypes"><Description dt:dt="string">E-Prime Primary Realtime Clock</Description><StartTime><Timestamp dt:dt="int">0</Timestamp><DateUtc dt:dt="string">2015-08-14T11:59:58Z</DateUtc></StartTime><FrequencyChanges><FrequencyChange><Frequency dt:dt="r8">2612304</Frequency><Timestamp dt:dt="r8">35320649214</Timestamp><Current dt:dt="r8">0</Current><DateUtc dt:dt="string">2015-08-14T11:59:58Z</DateUtc></FrequencyChange></FrequencyChanges></Clock>\n	1 ver1_main_procedure-27-1	99.940	1.0.0.880	1	mk	961413948	prawa	1	2.0.10.182	08-14-2015	2015-08-14 11:59:58	13:59:58	kobieta	2.0.10.92	4	1	1	2																							d	{SPACE}		no	BlockProc1		BlockList									7	Cued	l			-1	13	842792	160																			2					75	prime_right.png	0	842512	0	0	13	0	842512	0	842512	1	842512	20	0	-1	841013	842512	842511	0	prime_right.png	TrialProc1	right	0		0	0	0	0		0	0	TrialList1	target_right.png	0	l	-999999	3	842562	0	d	216	842778												5	1	7				neut			150
1 ver1_main_procedure	27	1	34	<?xml version="1.0"?>\n<Clock xmlns:dt="urn:schemas-microsoft-com:datatypes"><Description dt:dt="string">E-Prime Primary Realtime Clock</Description><StartTime><Timestamp dt:dt="int">0</Timestamp><DateUtc dt:dt="string">2015-08-14T11:59:58Z</DateUtc></StartTime><FrequencyChanges><FrequencyChange><Frequency dt:dt="r8">2612304</Frequency><Timestamp dt:dt="r8">35320649214</Timestamp><Current dt:dt="r8">0</Current><DateUtc dt:dt="string">2015-08-14T11:59:58Z</DateUtc></FrequencyChange></FrequencyChanges></Clock>\n	1 ver1_main_procedure-27-1	99.940	1.0.0.880	1	mk	961413948	prawa	1	2.0.10.182	08-14-2015	2015-08-14 11:59:58	13:59:58	kobieta	2.0.10.92	4	1	1	2																							d	{SPACE}		no	BlockProc1		BlockList									8	Free	dl	color_yellow.png		-1	9	845124	310																			1					25	prime_left.png	1	844764	0	0	13	1	844764	1	844764	0	844763	20	0	-1	843264	844763	844763	0	prime_left.png	TrialProc1	left	0		0	11	845074	-845074		0	0	TrialList1	target_both.png	0	dl	-1	3	844813	261	d	301	845114												8	1	8				neut			300
1 ver1_main_procedure	27	1	34	<?xml version="1.0"?>\n<Clock xmlns:dt="urn:schemas-microsoft-com:datatypes"><Description dt:dt="string">E-Prime Primary Realtime Clock</Description><StartTime><Timestamp dt:dt="int">0</Timestamp><DateUtc dt:dt="string">2015-08-14T11:59:58Z</DateUtc></StartTime><FrequencyChanges><FrequencyChange><Frequency dt:dt="r8">2612304</Frequency><Timestamp dt:dt="r8">35320649214</Timestamp><Current dt:dt="r8">0</Current><DateUtc dt:dt="string">2015-08-14T11:59:58Z</DateUtc></FrequencyChange></FrequencyChanges></Clock>\n	1 ver1_main_procedure-27-1	99.940	1.0.0.880	1	mk	961413948	prawa	1	2.0.10.182	08-14-2015	2015-08-14 11:59:58	13:59:58	kobieta	2.0.10.92	4	1	1	2																							d	{SPACE}		no	BlockProc1		BlockList									9	Cued	d			-1	10	847565	160																								75	prime_right.png	0	847245	0	0	13	0	847245	0	847245	1	847245	20	0	-1	845746	847245	847244	0		TrialProc1	left	0		-999999	10	847555	0		0	0	TrialList1	target_left.png	0	d	-1	3	847295	0	l	251	847546												3	1	9				incomp			150
1 ver1_main_procedure	27	1	34	<?xml version="1.0"?>\n<Clock xmlns:dt="urn:schemas-microsoft-com:datatypes"><Description dt:dt="string">E-Prime Primary Realtime Clock</Description><StartTime><Timestamp dt:dt="int">0</Timestamp><DateUtc dt:dt="string">2015-08-14T11:59:58Z</DateUtc></StartTime><FrequencyChanges><FrequencyChange><Frequency dt:dt="r8">2612304</Frequency><Timestamp dt:dt="r8">35320649214</Timestamp><Current dt:dt="r8">0</Current><DateUtc dt:dt="string">2015-08-14T11:59:58Z</DateUtc></FrequencyChange></FrequencyChanges></Clock>\n	1 ver1_main_procedure-27-1	99.940	1.0.0.880	1	mk	961413948	prawa	1	2.0.10.182	08-14-2015	2015-08-14 11:59:58	13:59:58	kobieta	2.0.10.92	4	1	1	2																							d	{SPACE}		no	BlockProc1		BlockList									10	Cued	l			-1	9	849876	161																								25	prime_right.png	0	849536	0	0	13	0	849536	0	849536	1	849536	20	0	-1	848037	849536	849535	0		TrialProc1	right	0		1	10	849846	-849846		0	0	TrialList1	target_right.png	0	l	-1	3	849586	260	d	280	849866												4	1	10				comp			150
1 ver1_main_procedure	27	1	34	<?xml version="1.0"?>\n<Clock xmlns:dt="urn:schemas-microsoft-com:datatypes"><Description dt:dt="string">E-Prime Primary Realtime Clock</Description><StartTime><Timestamp dt:dt="int">0</Timestamp><DateUtc dt:dt="string">2015-08-14T11:59:58Z</DateUtc></StartTime><FrequencyChanges><FrequencyChange><Frequency dt:dt="r8">2612304</Frequency><Timestamp dt:dt="r8">35320649214</Timestamp><Current dt:dt="r8">0</Current><DateUtc dt:dt="string">2015-08-14T11:59:58Z</DateUtc></FrequencyChange></FrequencyChanges></Clock>\n	1 ver1_main_procedure-27-1	99.940	1.0.0.880	1	mk	961413948	prawa	1	2.0.10.182	08-14-2015	2015-08-14 11:59:58	13:59:58	kobieta	2.0.10.92	4	1	1	2																							d	{SPACE}		no	BlockProc1		BlockList									11	Cued	d	color_green.png		-1	13	852248	310																								25	prime_left.png	0	851848	0	0	13	0	851848	0	851848	1	851848	20	0	-1	850348	851848	851847	0		TrialProc1	left	0		0	10	852158	-852158		0	0	TrialList1	target_left.png	1	d	-1	3	851898	260	d	336	852234												1	1	11				comp			300
