ExperimentName	Subject	Session	Age	Clock.Information	DataFile.Basename	Display.RefreshRate	ExperimentVersion	Group	Name	RandomSeed	Recznosc	ResearcherID	RuntimeVersion	SessionDate	SessionStartDateTimeUtc	SessionTime	Sex	StudioVersion	Block	BlockList	BlockList.Cycle	BlockList.Sample	BlockNumber	GoodBye.RESP	GoodBye2.RESP	GoodByeList	GoodByeList.Cycle	GoodByeList.Sample	InstrList	InstrList.Cycle	InstrList.Sample	Instructions3.RESP	Instructions4.RESP	Instructions5.RESP	kobieta_S1	kobieta_S2	kobieta_S3	kobieta_S4	kobieta_S5	mezczyzna_S1	mezczyzna_S2	mezczyzna_S3	mezczyzna_S4	mezczyzna_S5	NextBlock.RESP	NextBlock0.RESP	planowanie	PracticeMode	Procedure[Block]	proszenie	Running[Block]	TrainingList	TrainingList.Cycle	TrainingList.Sample	WordList	WordList1	wykonanie	zauwazenie	zrozumienie	Trial	ChoiceType	CorrectRespon	Effect	ErrorText	Fixation2.DurationError	Fixation2.OnsetDelay	Fixation2.OnsetTime	Fixation2.OnsetToOnsetTime	GoalRespInd1	GoalRespInd2	GoalRespInd3	GoalRespInd4	GoalRespInd5	GoalRespInd6	GoalRespName1	GoalRespName2	GoalRespName3	GoalRespName4	GoalRespName5	GoalRespName6	kol1	kol2	kol3	kol4	kol5	kol6	NeutralPrimeList1	Ocena	Ocena.Cycle	Ocena.Sample	OverallRT	Posit	Prime	Prime.ActionDelay	Prime.ActionTime	Prime.CustomOffsetTime	Prime.CustomOnsetTime	Prime.Duration	Prime.DurationError	Prime.FinishTime	Prime.OffsetDelay	Prime.OffsetTime	Prime.OnsetDelay	Prime.OnsetTime	Prime.OnsetToOnsetTime	Prime.PendingInputMasks	Prime.PreRelease	Prime.StartTime	Prime.TargetOffsetTime	Prime.TargetOnsetTime	Prime.TimingMode	PrimeChoice	Procedure[Trial]	Resp	RespWin.ACC	RespWin.CRESP	RespWin.DurationError	RespWin.OnsetDelay	RespWin.OnsetTime	RespWin.OnsetToOnsetTime	RespWin.RESP	RespWin.RT	RespWin.RTTime	Running[Trial]	Target	TargetSlide.ACC	TargetSlide.CRESP	TargetSlide.DurationError	TargetSlide.OnsetDelay	TargetSlide.OnsetTime	TargetSlide.OnsetToOnsetTime	TargetSlide.RESP	TargetSlide.RT	TargetSlide.RTTime	TargetTraining	TBox1	TBox2	TBox3	TBox4	TBox5	TBox6	TrainingList1	TrainingList1.Cycle	TrainingList1.Sample	TrCorrectResp	TrialList1	TrialList1.Cycle	TrialList1.Sample	TrialList2	TrialList2.Cycle	TrialList2.Sample	TrialType	TrPosit	TrWaitTime	WaitTime
1 ver1_main_procedure	32	1	22	<?xml version="1.0"?>\n<Clock xmlns:dt="urn:schemas-microsoft-com:datatypes"><Description dt:dt="string">E-Prime Primary Realtime Clock</Description><StartTime><Timestamp dt:dt="int">0</Timestamp><DateUtc dt:dt="string">2015-08-18T07:54:39Z</DateUtc></StartTime><FrequencyChanges><FrequencyChange><Frequency dt:dt="r8">2441386</Frequency><Timestamp dt:dt="r8">963012780</Timestamp><Current dt:dt="r8">0</Current><DateUtc dt:dt="string">2015-08-18T07:54:39Z</DateUtc></FrequencyChange></FrequencyChanges></Clock>\n	1 ver1_main_procedure-32-1	99.923	1.0.0.880	2	mm	963477960	prawa	1	2.0.10.356	08-18-2015	2015-08-18 07:54:39	09:54:39	kobieta	2.0.10.92	1										1	1	1	{SPACE}	{SPACE}	l	poproszona	planowała	zrozumiałaś	wykonała		poproszony	planował	zrozumiałeś	wykonał				planowała		InstrProc	poproszona	InstrList				1		wykonała		zrozumiałaś																																																																																																
1 ver1_main_procedure	32	1	22	<?xml version="1.0"?>\n<Clock xmlns:dt="urn:schemas-microsoft-com:datatypes"><Description dt:dt="string">E-Prime Primary Realtime Clock</Description><StartTime><Timestamp dt:dt="int">0</Timestamp><DateUtc dt:dt="string">2015-08-18T07:54:39Z</DateUtc></StartTime><FrequencyChanges><FrequencyChange><Frequency dt:dt="r8">2441386</Frequency><Timestamp dt:dt="r8">963012780</Timestamp><Current dt:dt="r8">0</Current><DateUtc dt:dt="string">2015-08-18T07:54:39Z</DateUtc></FrequencyChange></FrequencyChanges></Clock>\n	1 ver1_main_procedure-32-1	99.923	1.0.0.880	2	mm	963477960	prawa	1	2.0.10.356	08-18-2015	2015-08-18 07:54:39	09:54:39	kobieta	2.0.10.92	2																														TrainingProc1		TrainingList	1	1	1						1																																																					TrainProc											TrainingList1											target_right.png							2	1	1	l								75	450	
1 ver1_main_procedure	32	1	22	<?xml version="1.0"?>\n<Clock xmlns:dt="urn:schemas-microsoft-com:datatypes"><Description dt:dt="string">E-Prime Primary Realtime Clock</Description><StartTime><Timestamp dt:dt="int">0</Timestamp><DateUtc dt:dt="string">2015-08-18T07:54:39Z</DateUtc></StartTime><FrequencyChanges><FrequencyChange><Frequency dt:dt="r8">2441386</Frequency><Timestamp dt:dt="r8">963012780</Timestamp><Current dt:dt="r8">0</Current><DateUtc dt:dt="string">2015-08-18T07:54:39Z</DateUtc></FrequencyChange></FrequencyChanges></Clock>\n	1 ver1_main_procedure-32-1	99.923	1.0.0.880	2	mm	963477960	prawa	1	2.0.10.356	08-18-2015	2015-08-18 07:54:39	09:54:39	kobieta	2.0.10.92	2																														TrainingProc1		TrainingList	1	1	1						2																																																					TrainProc											TrainingList1											target_left.png							1	1	2	d								75	300	
1 ver1_main_procedure	32	1	22	<?xml version="1.0"?>\n<Clock xmlns:dt="urn:schemas-microsoft-com:datatypes"><Description dt:dt="string">E-Prime Primary Realtime Clock</Description><StartTime><Timestamp dt:dt="int">0</Timestamp><DateUtc dt:dt="string">2015-08-18T07:54:39Z</DateUtc></StartTime><FrequencyChanges><FrequencyChange><Frequency dt:dt="r8">2441386</Frequency><Timestamp dt:dt="r8">963012780</Timestamp><Current dt:dt="r8">0</Current><DateUtc dt:dt="string">2015-08-18T07:54:39Z</DateUtc></FrequencyChange></FrequencyChanges></Clock>\n	1 ver1_main_procedure-32-1	99.923	1.0.0.880	2	mm	963477960	prawa	1	2.0.10.356	08-18-2015	2015-08-18 07:54:39	09:54:39	kobieta	2.0.10.92	2																														TrainingProc1		TrainingList	1	1	1						3																																																					TrainProc											TrainingList1											target_right.png							2	1	3	l								75	150	
1 ver1_main_procedure	32	1	22	<?xml version="1.0"?>\n<Clock xmlns:dt="urn:schemas-microsoft-com:datatypes"><Description dt:dt="string">E-Prime Primary Realtime Clock</Description><StartTime><Timestamp dt:dt="int">0</Timestamp><DateUtc dt:dt="string">2015-08-18T07:54:39Z</DateUtc></StartTime><FrequencyChanges><FrequencyChange><Frequency dt:dt="r8">2441386</Frequency><Timestamp dt:dt="r8">963012780</Timestamp><Current dt:dt="r8">0</Current><DateUtc dt:dt="string">2015-08-18T07:54:39Z</DateUtc></FrequencyChange></FrequencyChanges></Clock>\n	1 ver1_main_procedure-32-1	99.923	1.0.0.880	2	mm	963477960	prawa	1	2.0.10.356	08-18-2015	2015-08-18 07:54:39	09:54:39	kobieta	2.0.10.92	2																														TrainingProc1		TrainingList	1	1	1						4																																																					TrainProc											TrainingList1											target_right.png							2	1	4	l								75	150	
1 ver1_main_procedure	32	1	22	<?xml version="1.0"?>\n<Clock xmlns:dt="urn:schemas-microsoft-com:datatypes"><Description dt:dt="string">E-Prime Primary Realtime Clock</Description><StartTime><Timestamp dt:dt="int">0</Timestamp><DateUtc dt:dt="string">2015-08-18T07:54:39Z</DateUtc></StartTime><FrequencyChanges><FrequencyChange><Frequency dt:dt="r8">2441386</Frequency><Timestamp dt:dt="r8">963012780</Timestamp><Current dt:dt="r8">0</Current><DateUtc dt:dt="string">2015-08-18T07:54:39Z</DateUtc></FrequencyChange></FrequencyChanges></Clock>\n	1 ver1_main_procedure-32-1	99.923	1.0.0.880	2	mm	963477960	prawa	1	2.0.10.356	08-18-2015	2015-08-18 07:54:39	09:54:39	kobieta	2.0.10.92	2																														TrainingProc1		TrainingList	1	1	1						5																																																					TrainProc											TrainingList1											target_both.png							3	1	5	dl								75	300	
1 ver1_main_procedure	32	1	22	<?xml version="1.0"?>\n<Clock xmlns:dt="urn:schemas-microsoft-com:datatypes"><Description dt:dt="string">E-Prime Primary Realtime Clock</Description><StartTime><Timestamp dt:dt="int">0</Timestamp><DateUtc dt:dt="string">2015-08-18T07:54:39Z</DateUtc></StartTime><FrequencyChanges><FrequencyChange><Frequency dt:dt="r8">2441386</Frequency><Timestamp dt:dt="r8">963012780</Timestamp><Current dt:dt="r8">0</Current><DateUtc dt:dt="string">2015-08-18T07:54:39Z</DateUtc></FrequencyChange></FrequencyChanges></Clock>\n	1 ver1_main_procedure-32-1	99.923	1.0.0.880	2	mm	963477960	prawa	1	2.0.10.356	08-18-2015	2015-08-18 07:54:39	09:54:39	kobieta	2.0.10.92	2																														TrainingProc1		TrainingList	1	1	1						6																																																					TrainProc											TrainingList1											target_left.png							1	1	6	d								75	450	
1 ver1_main_procedure	32	1	22	<?xml version="1.0"?>\n<Clock xmlns:dt="urn:schemas-microsoft-com:datatypes"><Description dt:dt="string">E-Prime Primary Realtime Clock</Description><StartTime><Timestamp dt:dt="int">0</Timestamp><DateUtc dt:dt="string">2015-08-18T07:54:39Z</DateUtc></StartTime><FrequencyChanges><FrequencyChange><Frequency dt:dt="r8">2441386</Frequency><Timestamp dt:dt="r8">963012780</Timestamp><Current dt:dt="r8">0</Current><DateUtc dt:dt="string">2015-08-18T07:54:39Z</DateUtc></FrequencyChange></FrequencyChanges></Clock>\n	1 ver1_main_procedure-32-1	99.923	1.0.0.880	2	mm	963477960	prawa	1	2.0.10.356	08-18-2015	2015-08-18 07:54:39	09:54:39	kobieta	2.0.10.92	2																														TrainingProc1		TrainingList	1	1	1						7																																																					TrainProc											TrainingList1											target_both.png							3	1	7	dl								75	150	
1 ver1_main_procedure	32	1	22	<?xml version="1.0"?>\n<Clock xmlns:dt="urn:schemas-microsoft-com:datatypes"><Description dt:dt="string">E-Prime Primary Realtime Clock</Description><StartTime><Timestamp dt:dt="int">0</Timestamp><DateUtc dt:dt="string">2015-08-18T07:54:39Z</DateUtc></StartTime><FrequencyChanges><FrequencyChange><Frequency dt:dt="r8">2441386</Frequency><Timestamp dt:dt="r8">963012780</Timestamp><Current dt:dt="r8">0</Current><DateUtc dt:dt="string">2015-08-18T07:54:39Z</DateUtc></FrequencyChange></FrequencyChanges></Clock>\n	1 ver1_main_procedure-32-1	99.923	1.0.0.880	2	mm	963477960	prawa	1	2.0.10.356	08-18-2015	2015-08-18 07:54:39	09:54:39	kobieta	2.0.10.92	2																														TrainingProc1		TrainingList	1	1	1						8																																																					TrainProc											TrainingList1											target_both.png							3	1	8	dl								25	300	
1 ver1_main_procedure	32	1	22	<?xml version="1.0"?>\n<Clock xmlns:dt="urn:schemas-microsoft-com:datatypes"><Description dt:dt="string">E-Prime Primary Realtime Clock</Description><StartTime><Timestamp dt:dt="int">0</Timestamp><DateUtc dt:dt="string">2015-08-18T07:54:39Z</DateUtc></StartTime><FrequencyChanges><FrequencyChange><Frequency dt:dt="r8">2441386</Frequency><Timestamp dt:dt="r8">963012780</Timestamp><Current dt:dt="r8">0</Current><DateUtc dt:dt="string">2015-08-18T07:54:39Z</DateUtc></FrequencyChange></FrequencyChanges></Clock>\n	1 ver1_main_procedure-32-1	99.923	1.0.0.880	2	mm	963477960	prawa	1	2.0.10.356	08-18-2015	2015-08-18 07:54:39	09:54:39	kobieta	2.0.10.92	2																														TrainingProc1		TrainingList	1	1	1						9																																																					TrainProc											TrainingList1											target_left.png							1	1	9	d								75	150	
1 ver1_main_procedure	32	1	22	<?xml version="1.0"?>\n<Clock xmlns:dt="urn:schemas-microsoft-com:datatypes"><Description dt:dt="string">E-Prime Primary Realtime Clock</Description><StartTime><Timestamp dt:dt="int">0</Timestamp><DateUtc dt:dt="string">2015-08-18T07:54:39Z</DateUtc></StartTime><FrequencyChanges><FrequencyChange><Frequency dt:dt="r8">2441386</Frequency><Timestamp dt:dt="r8">963012780</Timestamp><Current dt:dt="r8">0</Current><DateUtc dt:dt="string">2015-08-18T07:54:39Z</DateUtc></FrequencyChange></FrequencyChanges></Clock>\n	1 ver1_main_procedure-32-1	99.923	1.0.0.880	2	mm	963477960	prawa	1	2.0.10.356	08-18-2015	2015-08-18 07:54:39	09:54:39	kobieta	2.0.10.92	3	1	1	1																							l	{SPACE}		no	BlockProc1		BlockList									1	Cued	l	color_purple.png		0	6	142674	170																								25	prime_left.png	0	142033	0	0	13	0	142033	0	142033	1	142033	20	0	-1	140534	142033	142032	0		TrialProc1	right	0		1	20	142353	-142353		0	0	TrialList1	target_right.png	1	l	0	3	142083	270	l	585	142668												6	1	1				incomp			150
1 ver1_main_procedure	32	1	22	<?xml version="1.0"?>\n<Clock xmlns:dt="urn:schemas-microsoft-com:datatypes"><Description dt:dt="string">E-Prime Primary Realtime Clock</Description><StartTime><Timestamp dt:dt="int">0</Timestamp><DateUtc dt:dt="string">2015-08-18T07:54:39Z</DateUtc></StartTime><FrequencyChanges><FrequencyChange><Frequency dt:dt="r8">2441386</Frequency><Timestamp dt:dt="r8">963012780</Timestamp><Current dt:dt="r8">0</Current><DateUtc dt:dt="string">2015-08-18T07:54:39Z</DateUtc></FrequencyChange></FrequencyChanges></Clock>\n	1 ver1_main_procedure-32-1	99.923	1.0.0.880	2	mm	963477960	prawa	1	2.0.10.356	08-18-2015	2015-08-18 07:54:39	09:54:39	kobieta	2.0.10.92	3	1	1	1																							l	{SPACE}		no	BlockProc1		BlockList									2	Cued	d	color_orange.png		0	8	145106	160																								25	prime_right.png	0	144655	0	0	13	0	144655	0	144655	1	144655	20	0	-1	143156	144655	144654	0		TrialProc1	left	0		1	10	144965	-144965		0	0	TrialList1	target_left.png	1	d	0	3	144705	260	d	393	145098												3	1	2				incomp			150
1 ver1_main_procedure	32	1	22	<?xml version="1.0"?>\n<Clock xmlns:dt="urn:schemas-microsoft-com:datatypes"><Description dt:dt="string">E-Prime Primary Realtime Clock</Description><StartTime><Timestamp dt:dt="int">0</Timestamp><DateUtc dt:dt="string">2015-08-18T07:54:39Z</DateUtc></StartTime><FrequencyChanges><FrequencyChange><Frequency dt:dt="r8">2441386</Frequency><Timestamp dt:dt="r8">963012780</Timestamp><Current dt:dt="r8">0</Current><DateUtc dt:dt="string">2015-08-18T07:54:39Z</DateUtc></FrequencyChange></FrequencyChanges></Clock>\n	1 ver1_main_procedure-32-1	99.923	1.0.0.880	2	mm	963477960	prawa	1	2.0.10.356	08-18-2015	2015-08-18 07:54:39	09:54:39	kobieta	2.0.10.92	3	1	1	1																							l	{SPACE}		no	BlockProc1		BlockList									3	Free	dl	color_blue.png		0	9	147597	311																			2					75	prime_right.png	0	147077	0	0	13	0	147077	0	147077	1	147077	20	0	-1	145578	147077	147076	0	prime_right.png	TrialProc1	right	0		0	10	147387	-147387		0	0	TrialList1	target_both.png	0	dl	0	3	147127	260	d	461	147588												11	1	3				neut			300
1 ver1_main_procedure	32	1	22	<?xml version="1.0"?>\n<Clock xmlns:dt="urn:schemas-microsoft-com:datatypes"><Description dt:dt="string">E-Prime Primary Realtime Clock</Description><StartTime><Timestamp dt:dt="int">0</Timestamp><DateUtc dt:dt="string">2015-08-18T07:54:39Z</DateUtc></StartTime><FrequencyChanges><FrequencyChange><Frequency dt:dt="r8">2441386</Frequency><Timestamp dt:dt="r8">963012780</Timestamp><Current dt:dt="r8">0</Current><DateUtc dt:dt="string">2015-08-18T07:54:39Z</DateUtc></FrequencyChange></FrequencyChanges></Clock>\n	1 ver1_main_procedure-32-1	99.923	1.0.0.880	2	mm	963477960	prawa	1	2.0.10.356	08-18-2015	2015-08-18 07:54:39	09:54:39	kobieta	2.0.10.92	3	1	1	1																							l	{SPACE}		no	BlockProc1		BlockList									4	Cued	d	color_red.png		0	8	150129	161																								75	prime_left.png	0	149719	0	0	13	0	149719	0	149719	1	149719	20	0	-1	148220	149719	149718	0		TrialProc1	left	0		0	10	150029	-150029		0	0	TrialList1	target_left.png	1	d	0	3	149769	260	d	352	150121												1	1	4				comp			150
1 ver1_main_procedure	32	1	22	<?xml version="1.0"?>\n<Clock xmlns:dt="urn:schemas-microsoft-com:datatypes"><Description dt:dt="string">E-Prime Primary Realtime Clock</Description><StartTime><Timestamp dt:dt="int">0</Timestamp><DateUtc dt:dt="string">2015-08-18T07:54:39Z</DateUtc></StartTime><FrequencyChanges><FrequencyChange><Frequency dt:dt="r8">2441386</Frequency><Timestamp dt:dt="r8">963012780</Timestamp><Current dt:dt="r8">0</Current><DateUtc dt:dt="string">2015-08-18T07:54:39Z</DateUtc></FrequencyChange></FrequencyChanges></Clock>\n	1 ver1_main_procedure-32-1	99.923	1.0.0.880	2	mm	963477960	prawa	1	2.0.10.356	08-18-2015	2015-08-18 07:54:39	09:54:39	kobieta	2.0.10.92	3	1	1	1																							l	{SPACE}		no	BlockProc1		BlockList									5	Cued	d	color_red.png		0	10	152551	160																								75	prime_left.png	0	152101	0	0	13	0	152101	0	152101	1	152101	20	0	-1	150602	152101	152100	0		TrialProc1	left	0		0	10	152411	-152411		0	0	TrialList1	target_left.png	1	d	0	3	152151	260	d	390	152541												1	1	5				comp			150
1 ver1_main_procedure	32	1	22	<?xml version="1.0"?>\n<Clock xmlns:dt="urn:schemas-microsoft-com:datatypes"><Description dt:dt="string">E-Prime Primary Realtime Clock</Description><StartTime><Timestamp dt:dt="int">0</Timestamp><DateUtc dt:dt="string">2015-08-18T07:54:39Z</DateUtc></StartTime><FrequencyChanges><FrequencyChange><Frequency dt:dt="r8">2441386</Frequency><Timestamp dt:dt="r8">963012780</Timestamp><Current dt:dt="r8">0</Current><DateUtc dt:dt="string">2015-08-18T07:54:39Z</DateUtc></FrequencyChange></FrequencyChanges></Clock>\n	1 ver1_main_procedure-32-1	99.923	1.0.0.880	2	mm	963477960	prawa	1	2.0.10.356	08-18-2015	2015-08-18 07:54:39	09:54:39	kobieta	2.0.10.92	3	1	1	1																							l	{SPACE}		no	BlockProc1		BlockList									6	Cued	d	color_blue.png		0	8	154923	460																			1					75	prime_left.png	0	154523	0	0	13	0	154523	0	154523	1	154523	20	0	-1	153024	154523	154522	0	prime_left.png	TrialProc1	left	0		0	10	154833	-154833		0	0	TrialList1	target_left.png	1	d	0	3	154573	260	d	342	154915												2	1	6				neut			450
1 ver1_main_procedure	32	1	22	<?xml version="1.0"?>\n<Clock xmlns:dt="urn:schemas-microsoft-com:datatypes"><Description dt:dt="string">E-Prime Primary Realtime Clock</Description><StartTime><Timestamp dt:dt="int">0</Timestamp><DateUtc dt:dt="string">2015-08-18T07:54:39Z</DateUtc></StartTime><FrequencyChanges><FrequencyChange><Frequency dt:dt="r8">2441386</Frequency><Timestamp dt:dt="r8">963012780</Timestamp><Current dt:dt="r8">0</Current><DateUtc dt:dt="string">2015-08-18T07:54:39Z</DateUtc></FrequencyChange></FrequencyChanges></Clock>\n	1 ver1_main_procedure-32-1	99.923	1.0.0.880	2	mm	963477960	prawa	1	2.0.10.356	08-18-2015	2015-08-18 07:54:39	09:54:39	kobieta	2.0.10.92	3	1	1	1																							l	{SPACE}		no	BlockProc1		BlockList									7	Cued	l	color_yellow.png		0	6	157595	320																			2					25	prime_right.png	0	157195	0	0	13	0	157195	0	157195	1	157195	20	0	-1	155696	157195	157194	0	prime_right.png	TrialProc1	right	0		0	10	157505	-157505		0	0	TrialList1	target_right.png	1	l	0	3	157245	260	l	344	157589												5	1	7				neut			300
1 ver1_main_procedure	32	1	22	<?xml version="1.0"?>\n<Clock xmlns:dt="urn:schemas-microsoft-com:datatypes"><Description dt:dt="string">E-Prime Primary Realtime Clock</Description><StartTime><Timestamp dt:dt="int">0</Timestamp><DateUtc dt:dt="string">2015-08-18T07:54:39Z</DateUtc></StartTime><FrequencyChanges><FrequencyChange><Frequency dt:dt="r8">2441386</Frequency><Timestamp dt:dt="r8">963012780</Timestamp><Current dt:dt="r8">0</Current><DateUtc dt:dt="string">2015-08-18T07:54:39Z</DateUtc></FrequencyChange></FrequencyChanges></Clock>\n	1 ver1_main_procedure-32-1	99.923	1.0.0.880	2	mm	963477960	prawa	1	2.0.10.356	08-18-2015	2015-08-18 07:54:39	09:54:39	kobieta	2.0.10.92	3	1	1	1																							l	{SPACE}		no	BlockProc1		BlockList									8	Cued	l	color_green.png		0	10	160147	160																								25	prime_right.png	0	159727	0	0	13	0	159727	0	159727	2	159727	20	0	-1	158228	159727	159725	0		TrialProc1	right	0		0	10	160037	-160037		0	0	TrialList1	target_right.png	1	l	0	3	159777	260	l	360	160137												4	1	8				comp			150
1 ver1_main_procedure	32	1	22	<?xml version="1.0"?>\n<Clock xmlns:dt="urn:schemas-microsoft-com:datatypes"><Description dt:dt="string">E-Prime Primary Realtime Clock</Description><StartTime><Timestamp dt:dt="int">0</Timestamp><DateUtc dt:dt="string">2015-08-18T07:54:39Z</DateUtc></StartTime><FrequencyChanges><FrequencyChange><Frequency dt:dt="r8">2441386</Frequency><Timestamp dt:dt="r8">963012780</Timestamp><Current dt:dt="r8">0</Current><DateUtc dt:dt="string">2015-08-18T07:54:39Z</DateUtc></FrequencyChange></FrequencyChanges></Clock>\n	1 ver1_main_procedure-32-1	99.923	1.0.0.880	2	mm	963477960	prawa	1	2.0.10.356	08-18-2015	2015-08-18 07:54:39	09:54:39	kobieta	2.0.10.92	3	1	1	1																							l	{SPACE}		no	BlockProc1		BlockList									9	Cued	d	color_orange.png		0	8	162559	460																								25	prime_right.png	1	162119	0	0	13	1	162119	1	162119	1	162118	20	0	-1	160620	162118	162117	0		TrialProc1	left	0		0	11	162429	-162429		0	0	TrialList1	target_left.png	1	d	0	3	162168	261	d	383	162551												3	1	9				incomp			450
1 ver1_main_procedure	32	1	22	<?xml version="1.0"?>\n<Clock xmlns:dt="urn:schemas-microsoft-com:datatypes"><Description dt:dt="string">E-Prime Primary Realtime Clock</Description><StartTime><Timestamp dt:dt="int">0</Timestamp><DateUtc dt:dt="string">2015-08-18T07:54:39Z</DateUtc></StartTime><FrequencyChanges><FrequencyChange><Frequency dt:dt="r8">2441386</Frequency><Timestamp dt:dt="r8">963012780</Timestamp><Current dt:dt="r8">0</Current><DateUtc dt:dt="string">2015-08-18T07:54:39Z</DateUtc></FrequencyChange></FrequencyChanges></Clock>\n	1 ver1_main_procedure-32-1	99.923	1.0.0.880	2	mm	963477960	prawa	1	2.0.10.356	08-18-2015	2015-08-18 07:54:39	09:54:39	kobieta	2.0.10.92	3	1	1	1																							l	{SPACE}		no	BlockProc1		BlockList									10	Cued	d	color_red.png		0	6	165191	310																								75	prime_left.png	1	164831	0	0	13	1	164831	1	164831	1	164830	20	0	-1	163332	164830	164829	0		TrialProc1	left	0		0	10	165141	-165141		0	0	TrialList1	target_left.png	1	d	0	4	164881	260	d	304	165185												1	1	10				comp			300
1 ver1_main_procedure	32	1	22	<?xml version="1.0"?>\n<Clock xmlns:dt="urn:schemas-microsoft-com:datatypes"><Description dt:dt="string">E-Prime Primary Realtime Clock</Description><StartTime><Timestamp dt:dt="int">0</Timestamp><DateUtc dt:dt="string">2015-08-18T07:54:39Z</DateUtc></StartTime><FrequencyChanges><FrequencyChange><Frequency dt:dt="r8">2441386</Frequency><Timestamp dt:dt="r8">963012780</Timestamp><Current dt:dt="r8">0</Current><DateUtc dt:dt="string">2015-08-18T07:54:39Z</DateUtc></FrequencyChange></FrequencyChanges></Clock>\n	1 ver1_main_procedure-32-1	99.923	1.0.0.880	2	mm	963477960	prawa	1	2.0.10.356	08-18-2015	2015-08-18 07:54:39	09:54:39	kobieta	2.0.10.92	3	1	1	1																							l	{SPACE}		no	BlockProc1		BlockList									11	Free	dl	color_red.png		0	11	167663	160																								25	prime_left.png	0	167312	0	0	13	0	167313	0	167312	1	167312	20	0	-1	165813	167312	167311	0		TrialProc1	right	0		0	11	167623	-167623		0	0	TrialList1	target_both.png	0	dl	0	3	167362	261	d	290	167652												12	1	11				incomp			150
1 ver1_main_procedure	32	1	22	<?xml version="1.0"?>\n<Clock xmlns:dt="urn:schemas-microsoft-com:datatypes"><Description dt:dt="string">E-Prime Primary Realtime Clock</Description><StartTime><Timestamp dt:dt="int">0</Timestamp><DateUtc dt:dt="string">2015-08-18T07:54:39Z</DateUtc></StartTime><FrequencyChanges><FrequencyChange><Frequency dt:dt="r8">2441386</Frequency><Timestamp dt:dt="r8">963012780</Timestamp><Current dt:dt="r8">0</Current><DateUtc dt:dt="string">2015-08-18T07:54:39Z</DateUtc></FrequencyChange></FrequencyChanges></Clock>\n	1 ver1_main_procedure-32-1	99.923	1.0.0.880	2	mm	963477960	prawa	1	2.0.10.356	08-18-2015	2015-08-18 07:54:39	09:54:39	kobieta	2.0.10.92	3	1	1	1																							l	{SPACE}		no	BlockProc1		BlockList									12	Cued	d	color_orange.png		0	12	170034	161																								75	prime_right.png	0	169634	0	0	13	0	169634	0	169634	1	169634	20	0	-1	168135	169634	169633	0		TrialProc1	left	0		0	10	169944	-169944		0	0	TrialList1	target_left.png	1	d	0	3	169684	260	d	338	170022												3	1	12				incomp			150
1 ver1_main_procedure	32	1	22	<?xml version="1.0"?>\n<Clock xmlns:dt="urn:schemas-microsoft-com:datatypes"><Description dt:dt="string">E-Prime Primary Realtime Clock</Description><StartTime><Timestamp dt:dt="int">0</Timestamp><DateUtc dt:dt="string">2015-08-18T07:54:39Z</DateUtc></StartTime><FrequencyChanges><FrequencyChange><Frequency dt:dt="r8">2441386</Frequency><Timestamp dt:dt="r8">963012780</Timestamp><Current dt:dt="r8">0</Current><DateUtc dt:dt="string">2015-08-18T07:54:39Z</DateUtc></FrequencyChange></FrequencyChanges></Clock>\n	1 ver1_main_procedure-32-1	99.923	1.0.0.880	2	mm	963477960	prawa	1	2.0.10.356	08-18-2015	2015-08-18 07:54:39	09:54:39	kobieta	2.0.10.92	3	1	1	1																							l	{SPACE}		no	BlockProc1		BlockList									13	Cued	d			0	6	172276	460																			1					25	prime_left.png	0	172006	0	0	13	0	172006	0	172006	1	172006	20	0	-1	170507	172006	172005	0	prime_left.png	TrialProc1	left	0		0	0	0	0		0	0	TrialList1	target_left.png	0	d	-999999	3	172056	0	l	214	172270												2	1	13				neut			450
1 ver1_main_procedure	32	1	22	<?xml version="1.0"?>\n<Clock xmlns:dt="urn:schemas-microsoft-com:datatypes"><Description dt:dt="string">E-Prime Primary Realtime Clock</Description><StartTime><Timestamp dt:dt="int">0</Timestamp><DateUtc dt:dt="string">2015-08-18T07:54:39Z</DateUtc></StartTime><FrequencyChanges><FrequencyChange><Frequency dt:dt="r8">2441386</Frequency><Timestamp dt:dt="r8">963012780</Timestamp><Current dt:dt="r8">0</Current><DateUtc dt:dt="string">2015-08-18T07:54:39Z</DateUtc></FrequencyChange></FrequencyChanges></Clock>\n	1 ver1_main_procedure-32-1	99.923	1.0.0.880	2	mm	963477960	prawa	1	2.0.10.356	08-18-2015	2015-08-18 07:54:39	09:54:39	kobieta	2.0.10.92	3	1	1	1																							l	{SPACE}		no	BlockProc1		BlockList									14	Cued	d	color_red.png		0	8	174918	310																								75	prime_left.png	0	174548	0	0	13	0	174548	0	174548	1	174548	20	0	-1	173049	174548	174547	0		TrialProc1	left	0		0	10	174858	-174858		0	0	TrialList1	target_left.png	1	d	0	3	174598	260	d	312	174910												1	1	14				comp			300
1 ver1_main_procedure	32	1	22	<?xml version="1.0"?>\n<Clock xmlns:dt="urn:schemas-microsoft-com:datatypes"><Description dt:dt="string">E-Prime Primary Realtime Clock</Description><StartTime><Timestamp dt:dt="int">0</Timestamp><DateUtc dt:dt="string">2015-08-18T07:54:39Z</DateUtc></StartTime><FrequencyChanges><FrequencyChange><Frequency dt:dt="r8">2441386</Frequency><Timestamp dt:dt="r8">963012780</Timestamp><Current dt:dt="r8">0</Current><DateUtc dt:dt="string">2015-08-18T07:54:39Z</DateUtc></FrequencyChange></FrequencyChanges></Clock>\n	1 ver1_main_procedure-32-1	99.923	1.0.0.880	2	mm	963477960	prawa	1	2.0.10.356	08-18-2015	2015-08-18 07:54:39	09:54:39	kobieta	2.0.10.92	3	1	1	1																							l	{SPACE}		no	BlockProc1		BlockList									15	Cued	l	color_yellow.png		0	12	177390	460																			2					75	prime_right.png	0	177040	0	0	13	0	177040	0	177040	1	177040	20	0	-1	175541	177040	177039	0	prime_right.png	TrialProc1	right	0		0	10	177350	-177350		0	0	TrialList1	target_right.png	1	l	0	3	177090	260	l	288	177378												5	1	15				neut			450
1 ver1_main_procedure	32	1	22	<?xml version="1.0"?>\n<Clock xmlns:dt="urn:schemas-microsoft-com:datatypes"><Description dt:dt="string">E-Prime Primary Realtime Clock</Description><StartTime><Timestamp dt:dt="int">0</Timestamp><DateUtc dt:dt="string">2015-08-18T07:54:39Z</DateUtc></StartTime><FrequencyChanges><FrequencyChange><Frequency dt:dt="r8">2441386</Frequency><Timestamp dt:dt="r8">963012780</Timestamp><Current dt:dt="r8">0</Current><DateUtc dt:dt="string">2015-08-18T07:54:39Z</DateUtc></FrequencyChange></FrequencyChanges></Clock>\n	1 ver1_main_procedure-32-1	99.923	1.0.0.880	2	mm	963477960	prawa	1	2.0.10.356	08-18-2015	2015-08-18 07:54:39	09:54:39	kobieta	2.0.10.92	3	1	1	1																							l	{SPACE}		no	BlockProc1		BlockList									16	Cued	l	color_green.png		0	12	180152	310																								75	prime_right.png	0	179662	0	0	13	0	179662	0	179662	1	179662	20	0	-1	178163	179662	179661	0		TrialProc1	right	0		0	10	179972	-179972		0	0	TrialList1	target_right.png	1	l	0	3	179712	260	l	428	180140												4	1	16				comp			300
1 ver1_main_procedure	32	1	22	<?xml version="1.0"?>\n<Clock xmlns:dt="urn:schemas-microsoft-com:datatypes"><Description dt:dt="string">E-Prime Primary Realtime Clock</Description><StartTime><Timestamp dt:dt="int">0</Timestamp><DateUtc dt:dt="string">2015-08-18T07:54:39Z</DateUtc></StartTime><FrequencyChanges><FrequencyChange><Frequency dt:dt="r8">2441386</Frequency><Timestamp dt:dt="r8">963012780</Timestamp><Current dt:dt="r8">0</Current><DateUtc dt:dt="string">2015-08-18T07:54:39Z</DateUtc></FrequencyChange></FrequencyChanges></Clock>\n	1 ver1_main_procedure-32-1	99.923	1.0.0.880	2	mm	963477960	prawa	1	2.0.10.356	08-18-2015	2015-08-18 07:54:39	09:54:39	kobieta	2.0.10.92	3	1	1	1																							l	{SPACE}		no	BlockProc1		BlockList									17	Cued	l			0	6	182584	460																								75	prime_left.png	0	182274	0	0	13	0	182274	0	182274	1	182274	20	0	-1	180775	182274	182273	0		TrialProc1	right	0		-999999	0	0	0		0	0	TrialList1	target_right.png	0	l	0	3	182324	0	d	253	182577												6	1	17				incomp			450
1 ver1_main_procedure	32	1	22	<?xml version="1.0"?>\n<Clock xmlns:dt="urn:schemas-microsoft-com:datatypes"><Description dt:dt="string">E-Prime Primary Realtime Clock</Description><StartTime><Timestamp dt:dt="int">0</Timestamp><DateUtc dt:dt="string">2015-08-18T07:54:39Z</DateUtc></StartTime><FrequencyChanges><FrequencyChange><Frequency dt:dt="r8">2441386</Frequency><Timestamp dt:dt="r8">963012780</Timestamp><Current dt:dt="r8">0</Current><DateUtc dt:dt="string">2015-08-18T07:54:39Z</DateUtc></FrequencyChange></FrequencyChanges></Clock>\n	1 ver1_main_procedure-32-1	99.923	1.0.0.880	2	mm	963477960	prawa	1	2.0.10.356	08-18-2015	2015-08-18 07:54:39	09:54:39	kobieta	2.0.10.92	3	1	1	1																							l	{SPACE}		no	BlockProc1		BlockList									18	Cued	d	color_orange.png		0	8	185216	160																								75	prime_right.png	0	184856	0	0	13	0	184856	0	184856	2	184856	20	0	-1	183357	184856	184854	0		TrialProc1	left	0		0	10	185166	-185166		0	0	TrialList1	target_left.png	1	d	0	3	184906	260	d	302	185208												3	1	18				incomp			150
1 ver1_main_procedure	32	1	22	<?xml version="1.0"?>\n<Clock xmlns:dt="urn:schemas-microsoft-com:datatypes"><Description dt:dt="string">E-Prime Primary Realtime Clock</Description><StartTime><Timestamp dt:dt="int">0</Timestamp><DateUtc dt:dt="string">2015-08-18T07:54:39Z</DateUtc></StartTime><FrequencyChanges><FrequencyChange><Frequency dt:dt="r8">2441386</Frequency><Timestamp dt:dt="r8">963012780</Timestamp><Current dt:dt="r8">0</Current><DateUtc dt:dt="string">2015-08-18T07:54:39Z</DateUtc></FrequencyChange></FrequencyChanges></Clock>\n	1 ver1_main_procedure-32-1	99.923	1.0.0.880	2	mm	963477960	prawa	1	2.0.10.356	08-18-2015	2015-08-18 07:54:39	09:54:39	kobieta	2.0.10.92	3	1	1	1																							l	{SPACE}		no	BlockProc1		BlockList									19	Cued	l	color_green.png		0	10	187548	310																								25	prime_right.png	0	187187	0	0	13	1	187188	1	187188	1	187187	20	0	-1	185689	187187	187186	0		TrialProc1	right	0		0	11	187498	-187498		0	0	TrialList1	target_right.png	1	l	0	3	187237	261	l	301	187538												4	1	19				comp			300
1 ver1_main_procedure	32	1	22	<?xml version="1.0"?>\n<Clock xmlns:dt="urn:schemas-microsoft-com:datatypes"><Description dt:dt="string">E-Prime Primary Realtime Clock</Description><StartTime><Timestamp dt:dt="int">0</Timestamp><DateUtc dt:dt="string">2015-08-18T07:54:39Z</DateUtc></StartTime><FrequencyChanges><FrequencyChange><Frequency dt:dt="r8">2441386</Frequency><Timestamp dt:dt="r8">963012780</Timestamp><Current dt:dt="r8">0</Current><DateUtc dt:dt="string">2015-08-18T07:54:39Z</DateUtc></FrequencyChange></FrequencyChanges></Clock>\n	1 ver1_main_procedure-32-1	99.923	1.0.0.880	2	mm	963477960	prawa	1	2.0.10.356	08-18-2015	2015-08-18 07:54:39	09:54:39	kobieta	2.0.10.92	3	1	1	1																							l	{SPACE}		no	BlockProc1		BlockList									20	Cued	d	color_orange.png		0	11	190080	160																								25	prime_right.png	0	189669	0	0	13	0	189669	0	189669	1	189669	20	0	-1	188170	189669	189668	0		TrialProc1	left	0		1	10	189979	-189979		0	0	TrialList1	target_left.png	1	d	0	3	189719	260	d	349	190068												3	1	20				incomp			150
1 ver1_main_procedure	32	1	22	<?xml version="1.0"?>\n<Clock xmlns:dt="urn:schemas-microsoft-com:datatypes"><Description dt:dt="string">E-Prime Primary Realtime Clock</Description><StartTime><Timestamp dt:dt="int">0</Timestamp><DateUtc dt:dt="string">2015-08-18T07:54:39Z</DateUtc></StartTime><FrequencyChanges><FrequencyChange><Frequency dt:dt="r8">2441386</Frequency><Timestamp dt:dt="r8">963012780</Timestamp><Current dt:dt="r8">0</Current><DateUtc dt:dt="string">2015-08-18T07:54:39Z</DateUtc></FrequencyChange></FrequencyChanges></Clock>\n	1 ver1_main_procedure-32-1	99.923	1.0.0.880	2	mm	963477960	prawa	1	2.0.10.356	08-18-2015	2015-08-18 07:54:39	09:54:39	kobieta	2.0.10.92	3	1	1	1																							l	{SPACE}		no	BlockProc1		BlockList									21	Cued	l	color_green.png		0	5	192371	461																								75	prime_right.png	0	192051	0	0	13	0	192051	0	192051	1	192051	20	0	-1	190552	192051	192050	0		TrialProc1	right	0		0	10	192361	-192361		0	0	TrialList1	target_right.png	1	l	0	3	192101	260	l	265	192366												4	1	21				comp			450
1 ver1_main_procedure	32	1	22	<?xml version="1.0"?>\n<Clock xmlns:dt="urn:schemas-microsoft-com:datatypes"><Description dt:dt="string">E-Prime Primary Realtime Clock</Description><StartTime><Timestamp dt:dt="int">0</Timestamp><DateUtc dt:dt="string">2015-08-18T07:54:39Z</DateUtc></StartTime><FrequencyChanges><FrequencyChange><Frequency dt:dt="r8">2441386</Frequency><Timestamp dt:dt="r8">963012780</Timestamp><Current dt:dt="r8">0</Current><DateUtc dt:dt="string">2015-08-18T07:54:39Z</DateUtc></FrequencyChange></FrequencyChanges></Clock>\n	1 ver1_main_procedure-32-1	99.923	1.0.0.880	2	mm	963477960	prawa	1	2.0.10.356	08-18-2015	2015-08-18 07:54:39	09:54:39	kobieta	2.0.10.92	3	1	1	1																							l	{SPACE}		no	BlockProc1		BlockList									22	Cued	l	color_yellow.png		0	9	195133	311																			1					75	prime_left.png	0	194643	0	0	13	0	194643	0	194643	1	194643	20	0	-1	193144	194643	194642	0	prime_left.png	TrialProc1	right	0		0	10	194953	-194953		0	0	TrialList1	target_right.png	1	l	0	3	194693	260	l	431	195124												5	1	22				neut			300
1 ver1_main_procedure	32	1	22	<?xml version="1.0"?>\n<Clock xmlns:dt="urn:schemas-microsoft-com:datatypes"><Description dt:dt="string">E-Prime Primary Realtime Clock</Description><StartTime><Timestamp dt:dt="int">0</Timestamp><DateUtc dt:dt="string">2015-08-18T07:54:39Z</DateUtc></StartTime><FrequencyChanges><FrequencyChange><Frequency dt:dt="r8">2441386</Frequency><Timestamp dt:dt="r8">963012780</Timestamp><Current dt:dt="r8">0</Current><DateUtc dt:dt="string">2015-08-18T07:54:39Z</DateUtc></FrequencyChange></FrequencyChanges></Clock>\n	1 ver1_main_procedure-32-1	99.923	1.0.0.880	2	mm	963477960	prawa	1	2.0.10.356	08-18-2015	2015-08-18 07:54:39	09:54:39	kobieta	2.0.10.92	3	1	1	1																							l	{SPACE}		no	BlockProc1		BlockList									23	Free	dl	color_orange.png		0	11	197825	311																								25	prime_right.png	0	197255	0	0	13	0	197255	0	197255	1	197255	20	0	-1	195756	197255	197254	0		TrialProc1	right	0		0	10	197565	-197565		0	0	TrialList1	target_both.png	0	dl	0	3	197305	260	d	509	197814												10	1	23				comp			300
1 ver1_main_procedure	32	1	22	<?xml version="1.0"?>\n<Clock xmlns:dt="urn:schemas-microsoft-com:datatypes"><Description dt:dt="string">E-Prime Primary Realtime Clock</Description><StartTime><Timestamp dt:dt="int">0</Timestamp><DateUtc dt:dt="string">2015-08-18T07:54:39Z</DateUtc></StartTime><FrequencyChanges><FrequencyChange><Frequency dt:dt="r8">2441386</Frequency><Timestamp dt:dt="r8">963012780</Timestamp><Current dt:dt="r8">0</Current><DateUtc dt:dt="string">2015-08-18T07:54:39Z</DateUtc></FrequencyChange></FrequencyChanges></Clock>\n	1 ver1_main_procedure-32-1	99.923	1.0.0.880	2	mm	963477960	prawa	1	2.0.10.356	08-18-2015	2015-08-18 07:54:39	09:54:39	kobieta	2.0.10.92	3	1	1	1																							l	{SPACE}		no	BlockProc1		BlockList									24	Cued	d	color_blue.png		0	14	200357	160																			2					25	prime_right.png	0	199947	0	0	13	0	199947	0	199947	1	199947	20	0	-1	198448	199947	199946	0	prime_right.png	TrialProc1	left	0		0	10	200257	-200257		0	0	TrialList1	target_left.png	1	d	0	3	199997	260	d	346	200343												2	1	24				neut			150
1 ver1_main_procedure	32	1	22	<?xml version="1.0"?>\n<Clock xmlns:dt="urn:schemas-microsoft-com:datatypes"><Description dt:dt="string">E-Prime Primary Realtime Clock</Description><StartTime><Timestamp dt:dt="int">0</Timestamp><DateUtc dt:dt="string">2015-08-18T07:54:39Z</DateUtc></StartTime><FrequencyChanges><FrequencyChange><Frequency dt:dt="r8">2441386</Frequency><Timestamp dt:dt="r8">963012780</Timestamp><Current dt:dt="r8">0</Current><DateUtc dt:dt="string">2015-08-18T07:54:39Z</DateUtc></FrequencyChange></FrequencyChanges></Clock>\n	1 ver1_main_procedure-32-1	99.923	1.0.0.880	2	mm	963477960	prawa	1	2.0.10.356	08-18-2015	2015-08-18 07:54:39	09:54:39	kobieta	2.0.10.92	3	1	1	1																							l	{SPACE}		no	BlockProc1		BlockList									25	Cued	l	color_yellow.png		0	14	202749	310																			1					75	prime_left.png	0	202329	0	0	13	0	202329	0	202329	1	202329	20	0	-1	200830	202329	202328	0	prime_left.png	TrialProc1	right	0		0	10	202639	-202639		0	0	TrialList1	target_right.png	1	l	0	3	202379	260	l	356	202735												5	1	25				neut			300
1 ver1_main_procedure	32	1	22	<?xml version="1.0"?>\n<Clock xmlns:dt="urn:schemas-microsoft-com:datatypes"><Description dt:dt="string">E-Prime Primary Realtime Clock</Description><StartTime><Timestamp dt:dt="int">0</Timestamp><DateUtc dt:dt="string">2015-08-18T07:54:39Z</DateUtc></StartTime><FrequencyChanges><FrequencyChange><Frequency dt:dt="r8">2441386</Frequency><Timestamp dt:dt="r8">963012780</Timestamp><Current dt:dt="r8">0</Current><DateUtc dt:dt="string">2015-08-18T07:54:39Z</DateUtc></FrequencyChange></FrequencyChanges></Clock>\n	1 ver1_main_procedure-32-1	99.923	1.0.0.880	2	mm	963477960	prawa	1	2.0.10.356	08-18-2015	2015-08-18 07:54:39	09:54:39	kobieta	2.0.10.92	3	1	1	1																							l	{SPACE}		no	BlockProc1		BlockList									26	Cued	d	color_red.png		0	8	205201	160																								75	prime_left.png	0	204871	0	0	13	0	204871	0	204871	1	204871	20	0	-1	203372	204871	204870	0		TrialProc1	left	0		0	10	205181	-205181		0	0	TrialList1	target_left.png	1	d	0	3	204921	260	d	272	205193												1	1	26				comp			150
1 ver1_main_procedure	32	1	22	<?xml version="1.0"?>\n<Clock xmlns:dt="urn:schemas-microsoft-com:datatypes"><Description dt:dt="string">E-Prime Primary Realtime Clock</Description><StartTime><Timestamp dt:dt="int">0</Timestamp><DateUtc dt:dt="string">2015-08-18T07:54:39Z</DateUtc></StartTime><FrequencyChanges><FrequencyChange><Frequency dt:dt="r8">2441386</Frequency><Timestamp dt:dt="r8">963012780</Timestamp><Current dt:dt="r8">0</Current><DateUtc dt:dt="string">2015-08-18T07:54:39Z</DateUtc></FrequencyChange></FrequencyChanges></Clock>\n	1 ver1_main_procedure-32-1	99.923	1.0.0.880	2	mm	963477960	prawa	1	2.0.10.356	08-18-2015	2015-08-18 07:54:39	09:54:39	kobieta	2.0.10.92	3	1	1	1																							l	{SPACE}		no	BlockProc1		BlockList									27	Cued	l	color_purple.png		0	12	207603	460																								75	prime_left.png	1	207173	0	0	13	1	207173	1	207173	1	207172	20	0	-1	205674	207172	207171	0		TrialProc1	right	0		0	11	207483	-207483		0	0	TrialList1	target_right.png	1	l	0	3	207222	261	l	369	207591												6	1	27				incomp			450
1 ver1_main_procedure	32	1	22	<?xml version="1.0"?>\n<Clock xmlns:dt="urn:schemas-microsoft-com:datatypes"><Description dt:dt="string">E-Prime Primary Realtime Clock</Description><StartTime><Timestamp dt:dt="int">0</Timestamp><DateUtc dt:dt="string">2015-08-18T07:54:39Z</DateUtc></StartTime><FrequencyChanges><FrequencyChange><Frequency dt:dt="r8">2441386</Frequency><Timestamp dt:dt="r8">963012780</Timestamp><Current dt:dt="r8">0</Current><DateUtc dt:dt="string">2015-08-18T07:54:39Z</DateUtc></FrequencyChange></FrequencyChanges></Clock>\n	1 ver1_main_procedure-32-1	99.923	1.0.0.880	2	mm	963477960	prawa	1	2.0.10.356	08-18-2015	2015-08-18 07:54:39	09:54:39	kobieta	2.0.10.92	3	1	1	1																							l	{SPACE}		no	BlockProc1		BlockList									28	Cued	l	color_yellow.png		0	6	210295	310																			2					75	prime_right.png	1	209875	0	0	13	1	209875	1	209875	1	209874	21	0	-1	208376	209874	209873	0	prime_right.png	TrialProc1	right	0		0	10	210185	-210185		0	0	TrialList1	target_right.png	1	l	0	3	209925	260	l	364	210289												5	1	28				neut			300
1 ver1_main_procedure	32	1	22	<?xml version="1.0"?>\n<Clock xmlns:dt="urn:schemas-microsoft-com:datatypes"><Description dt:dt="string">E-Prime Primary Realtime Clock</Description><StartTime><Timestamp dt:dt="int">0</Timestamp><DateUtc dt:dt="string">2015-08-18T07:54:39Z</DateUtc></StartTime><FrequencyChanges><FrequencyChange><Frequency dt:dt="r8">2441386</Frequency><Timestamp dt:dt="r8">963012780</Timestamp><Current dt:dt="r8">0</Current><DateUtc dt:dt="string">2015-08-18T07:54:39Z</DateUtc></FrequencyChange></FrequencyChanges></Clock>\n	1 ver1_main_procedure-32-1	99.923	1.0.0.880	2	mm	963477960	prawa	1	2.0.10.356	08-18-2015	2015-08-18 07:54:39	09:54:39	kobieta	2.0.10.92	3	1	1	1																							l	{SPACE}		no	BlockProc1		BlockList									29	Free	dl	color_blue.png		0	10	212937	460																			1					75	prime_left.png	0	212416	0	0	13	1	212417	1	212417	1	212416	20	0	-1	210918	212416	212415	0	prime_left.png	TrialProc1	right	0		0	11	212727	-212727		0	0	TrialList1	target_both.png	0	dl	0	3	212466	261	d	461	212927												11	1	29				neut			450
1 ver1_main_procedure	32	1	22	<?xml version="1.0"?>\n<Clock xmlns:dt="urn:schemas-microsoft-com:datatypes"><Description dt:dt="string">E-Prime Primary Realtime Clock</Description><StartTime><Timestamp dt:dt="int">0</Timestamp><DateUtc dt:dt="string">2015-08-18T07:54:39Z</DateUtc></StartTime><FrequencyChanges><FrequencyChange><Frequency dt:dt="r8">2441386</Frequency><Timestamp dt:dt="r8">963012780</Timestamp><Current dt:dt="r8">0</Current><DateUtc dt:dt="string">2015-08-18T07:54:39Z</DateUtc></FrequencyChange></FrequencyChanges></Clock>\n	1 ver1_main_procedure-32-1	99.923	1.0.0.880	2	mm	963477960	prawa	1	2.0.10.356	08-18-2015	2015-08-18 07:54:39	09:54:39	kobieta	2.0.10.92	3	1	1	1																							l	{SPACE}		no	BlockProc1		BlockList									30	Free	dl	color_purple.png		0	12	215879	160																								75	prime_left.png	0	215209	0	0	13	0	215209	0	215209	2	215209	20	0	-1	213710	215209	215207	0		TrialProc1	right	0		0	10	215519	-215519		0	0	TrialList1	target_both.png	0	dl	0	3	215259	260	l	608	215867												12	1	30				incomp			150
1 ver1_main_procedure	32	1	22	<?xml version="1.0"?>\n<Clock xmlns:dt="urn:schemas-microsoft-com:datatypes"><Description dt:dt="string">E-Prime Primary Realtime Clock</Description><StartTime><Timestamp dt:dt="int">0</Timestamp><DateUtc dt:dt="string">2015-08-18T07:54:39Z</DateUtc></StartTime><FrequencyChanges><FrequencyChange><Frequency dt:dt="r8">2441386</Frequency><Timestamp dt:dt="r8">963012780</Timestamp><Current dt:dt="r8">0</Current><DateUtc dt:dt="string">2015-08-18T07:54:39Z</DateUtc></FrequencyChange></FrequencyChanges></Clock>\n	1 ver1_main_procedure-32-1	99.923	1.0.0.880	2	mm	963477960	prawa	1	2.0.10.356	08-18-2015	2015-08-18 07:54:39	09:54:39	kobieta	2.0.10.92	3	1	1	1																							l	{SPACE}		no	BlockProc1		BlockList									31	Free	dl	color_green.png		0	13	218521	310																								25	prime_right.png	1	217851	0	0	13	1	217851	1	217851	1	217850	21	0	-1	216352	217850	217849	0		TrialProc1	right	0		0	10	218161	-218161		0	0	TrialList1	target_both.png	0	dl	0	3	217901	260	l	607	218508												10	1	31				comp			300
1 ver1_main_procedure	32	1	22	<?xml version="1.0"?>\n<Clock xmlns:dt="urn:schemas-microsoft-com:datatypes"><Description dt:dt="string">E-Prime Primary Realtime Clock</Description><StartTime><Timestamp dt:dt="int">0</Timestamp><DateUtc dt:dt="string">2015-08-18T07:54:39Z</DateUtc></StartTime><FrequencyChanges><FrequencyChange><Frequency dt:dt="r8">2441386</Frequency><Timestamp dt:dt="r8">963012780</Timestamp><Current dt:dt="r8">0</Current><DateUtc dt:dt="string">2015-08-18T07:54:39Z</DateUtc></FrequencyChange></FrequencyChanges></Clock>\n	1 ver1_main_procedure-32-1	99.923	1.0.0.880	2	mm	963477960	prawa	1	2.0.10.356	08-18-2015	2015-08-18 07:54:39	09:54:39	kobieta	2.0.10.92	3	1	1	1																							l	{SPACE}		no	BlockProc1		BlockList									32	Cued	l	color_purple.png		0	9	221073	310																								75	prime_left.png	0	220643	0	0	13	0	220643	0	220643	1	220643	20	0	-1	219144	220643	220642	0		TrialProc1	right	0		0	10	220953	-220953		0	0	TrialList1	target_right.png	1	l	0	3	220693	260	l	371	221064												6	1	32				incomp			300
1 ver1_main_procedure	32	1	22	<?xml version="1.0"?>\n<Clock xmlns:dt="urn:schemas-microsoft-com:datatypes"><Description dt:dt="string">E-Prime Primary Realtime Clock</Description><StartTime><Timestamp dt:dt="int">0</Timestamp><DateUtc dt:dt="string">2015-08-18T07:54:39Z</DateUtc></StartTime><FrequencyChanges><FrequencyChange><Frequency dt:dt="r8">2441386</Frequency><Timestamp dt:dt="r8">963012780</Timestamp><Current dt:dt="r8">0</Current><DateUtc dt:dt="string">2015-08-18T07:54:39Z</DateUtc></FrequencyChange></FrequencyChanges></Clock>\n	1 ver1_main_procedure-32-1	99.923	1.0.0.880	2	mm	963477960	prawa	1	2.0.10.356	08-18-2015	2015-08-18 07:54:39	09:54:39	kobieta	2.0.10.92	3	1	1	1																							l	{SPACE}		no	BlockProc1		BlockList									33	Free	dl	color_red.png		0	13	223815	160																								75	prime_left.png	0	223195	0	0	13	0	223195	0	223195	2	223195	20	0	-1	221696	223195	223193	0		TrialProc1	left	0		0	10	223505	-223505		0	0	TrialList1	target_both.png	0	dl	0	3	223245	260	d	557	223802												7	1	33				comp			150
1 ver1_main_procedure	32	1	22	<?xml version="1.0"?>\n<Clock xmlns:dt="urn:schemas-microsoft-com:datatypes"><Description dt:dt="string">E-Prime Primary Realtime Clock</Description><StartTime><Timestamp dt:dt="int">0</Timestamp><DateUtc dt:dt="string">2015-08-18T07:54:39Z</DateUtc></StartTime><FrequencyChanges><FrequencyChange><Frequency dt:dt="r8">2441386</Frequency><Timestamp dt:dt="r8">963012780</Timestamp><Current dt:dt="r8">0</Current><DateUtc dt:dt="string">2015-08-18T07:54:39Z</DateUtc></FrequencyChange></FrequencyChanges></Clock>\n	1 ver1_main_procedure-32-1	99.923	1.0.0.880	2	mm	963477960	prawa	1	2.0.10.356	08-18-2015	2015-08-18 07:54:39	09:54:39	kobieta	2.0.10.92	3	1	1	1																							l	{SPACE}		no	BlockProc1		BlockList									34	Cued	d	color_orange.png		0	13	226347	310																								75	prime_right.png	0	225787	0	0	13	0	225787	0	225787	2	225787	20	0	-1	224288	225787	225785	0		TrialProc1	left	0		0	10	226097	-226097		0	0	TrialList1	target_left.png	1	d	0	3	225837	260	d	497	226334												3	1	34				incomp			300
1 ver1_main_procedure	32	1	22	<?xml version="1.0"?>\n<Clock xmlns:dt="urn:schemas-microsoft-com:datatypes"><Description dt:dt="string">E-Prime Primary Realtime Clock</Description><StartTime><Timestamp dt:dt="int">0</Timestamp><DateUtc dt:dt="string">2015-08-18T07:54:39Z</DateUtc></StartTime><FrequencyChanges><FrequencyChange><Frequency dt:dt="r8">2441386</Frequency><Timestamp dt:dt="r8">963012780</Timestamp><Current dt:dt="r8">0</Current><DateUtc dt:dt="string">2015-08-18T07:54:39Z</DateUtc></FrequencyChange></FrequencyChanges></Clock>\n	1 ver1_main_procedure-32-1	99.923	1.0.0.880	2	mm	963477960	prawa	1	2.0.10.356	08-18-2015	2015-08-18 07:54:39	09:54:39	kobieta	2.0.10.92	3	1	1	1																							l	{SPACE}		no	BlockProc1		BlockList									35	Cued	d	color_blue.png		0	11	228989	460																			2					75	prime_right.png	0	228469	0	0	13	0	228469	0	228469	1	228469	20	0	-1	226970	228469	228468	0	prime_right.png	TrialProc1	left	0		0	10	228779	-228779		0	0	TrialList1	target_left.png	1	d	0	3	228519	260	d	459	228978												2	1	35				neut			450
1 ver1_main_procedure	32	1	22	<?xml version="1.0"?>\n<Clock xmlns:dt="urn:schemas-microsoft-com:datatypes"><Description dt:dt="string">E-Prime Primary Realtime Clock</Description><StartTime><Timestamp dt:dt="int">0</Timestamp><DateUtc dt:dt="string">2015-08-18T07:54:39Z</DateUtc></StartTime><FrequencyChanges><FrequencyChange><Frequency dt:dt="r8">2441386</Frequency><Timestamp dt:dt="r8">963012780</Timestamp><Current dt:dt="r8">0</Current><DateUtc dt:dt="string">2015-08-18T07:54:39Z</DateUtc></FrequencyChange></FrequencyChanges></Clock>\n	1 ver1_main_procedure-32-1	99.923	1.0.0.880	2	mm	963477960	prawa	1	2.0.10.356	08-18-2015	2015-08-18 07:54:39	09:54:39	kobieta	2.0.10.92	3	1	1	1																							l	{SPACE}		no	BlockProc1		BlockList									36	Free	dl	color_green.png		0	11	231741	310																								75	prime_right.png	0	231261	0	0	13	0	231261	0	231261	2	231261	20	0	-1	229762	231261	231259	0		TrialProc1	left	0		0	10	231571	-231571		0	0	TrialList1	target_both.png	0	dl	0	3	231311	260	l	419	231730												9	1	36				incomp			300
1 ver1_main_procedure	32	1	22	<?xml version="1.0"?>\n<Clock xmlns:dt="urn:schemas-microsoft-com:datatypes"><Description dt:dt="string">E-Prime Primary Realtime Clock</Description><StartTime><Timestamp dt:dt="int">0</Timestamp><DateUtc dt:dt="string">2015-08-18T07:54:39Z</DateUtc></StartTime><FrequencyChanges><FrequencyChange><Frequency dt:dt="r8">2441386</Frequency><Timestamp dt:dt="r8">963012780</Timestamp><Current dt:dt="r8">0</Current><DateUtc dt:dt="string">2015-08-18T07:54:39Z</DateUtc></FrequencyChange></FrequencyChanges></Clock>\n	1 ver1_main_procedure-32-1	99.923	1.0.0.880	2	mm	963477960	prawa	1	2.0.10.356	08-18-2015	2015-08-18 07:54:39	09:54:39	kobieta	2.0.10.92	3	1	1	1																							l	{SPACE}		no	BlockProc1		BlockList									37	Cued	l	color_purple.png		0	14	234313	460																								75	prime_left.png	0	233863	0	0	13	0	233863	0	233863	2	233863	20	0	-1	232364	233863	233861	0		TrialProc1	right	0		0	10	234173	-234173		0	0	TrialList1	target_right.png	1	l	0	3	233913	260	l	386	234299												6	1	37				incomp			450
1 ver1_main_procedure	32	1	22	<?xml version="1.0"?>\n<Clock xmlns:dt="urn:schemas-microsoft-com:datatypes"><Description dt:dt="string">E-Prime Primary Realtime Clock</Description><StartTime><Timestamp dt:dt="int">0</Timestamp><DateUtc dt:dt="string">2015-08-18T07:54:39Z</DateUtc></StartTime><FrequencyChanges><FrequencyChange><Frequency dt:dt="r8">2441386</Frequency><Timestamp dt:dt="r8">963012780</Timestamp><Current dt:dt="r8">0</Current><DateUtc dt:dt="string">2015-08-18T07:54:39Z</DateUtc></FrequencyChange></FrequencyChanges></Clock>\n	1 ver1_main_procedure-32-1	99.923	1.0.0.880	2	mm	963477960	prawa	1	2.0.10.356	08-18-2015	2015-08-18 07:54:39	09:54:39	kobieta	2.0.10.92	3	1	1	1																							l	{SPACE}		no	BlockProc1		BlockList									38	Cued	d	color_orange.png		0	12	237005	460																								25	prime_right.png	0	236585	0	0	13	0	236585	0	236585	1	236585	20	0	-1	235086	236585	236584	0		TrialProc1	left	0		0	10	236895	-236895		0	0	TrialList1	target_left.png	1	d	0	3	236635	260	d	358	236993												3	1	38				incomp			450
1 ver1_main_procedure	32	1	22	<?xml version="1.0"?>\n<Clock xmlns:dt="urn:schemas-microsoft-com:datatypes"><Description dt:dt="string">E-Prime Primary Realtime Clock</Description><StartTime><Timestamp dt:dt="int">0</Timestamp><DateUtc dt:dt="string">2015-08-18T07:54:39Z</DateUtc></StartTime><FrequencyChanges><FrequencyChange><Frequency dt:dt="r8">2441386</Frequency><Timestamp dt:dt="r8">963012780</Timestamp><Current dt:dt="r8">0</Current><DateUtc dt:dt="string">2015-08-18T07:54:39Z</DateUtc></FrequencyChange></FrequencyChanges></Clock>\n	1 ver1_main_procedure-32-1	99.923	1.0.0.880	2	mm	963477960	prawa	1	2.0.10.356	08-18-2015	2015-08-18 07:54:39	09:54:39	kobieta	2.0.10.92	3	1	1	1																							l	{SPACE}		no	BlockProc1		BlockList									39	Cued	d	color_red.png		0	8	239727	460																								25	prime_left.png	0	239277	0	0	13	0	239277	0	239277	1	239277	20	0	-1	237778	239277	239276	0		TrialProc1	left	0		0	10	239587	-239587		0	0	TrialList1	target_left.png	1	d	0	3	239327	260	d	392	239719												1	1	39				comp			450
1 ver1_main_procedure	32	1	22	<?xml version="1.0"?>\n<Clock xmlns:dt="urn:schemas-microsoft-com:datatypes"><Description dt:dt="string">E-Prime Primary Realtime Clock</Description><StartTime><Timestamp dt:dt="int">0</Timestamp><DateUtc dt:dt="string">2015-08-18T07:54:39Z</DateUtc></StartTime><FrequencyChanges><FrequencyChange><Frequency dt:dt="r8">2441386</Frequency><Timestamp dt:dt="r8">963012780</Timestamp><Current dt:dt="r8">0</Current><DateUtc dt:dt="string">2015-08-18T07:54:39Z</DateUtc></FrequencyChange></FrequencyChanges></Clock>\n	1 ver1_main_procedure-32-1	99.923	1.0.0.880	2	mm	963477960	prawa	1	2.0.10.356	08-18-2015	2015-08-18 07:54:39	09:54:39	kobieta	2.0.10.92	3	1	1	1																							l	{SPACE}		no	BlockProc1		BlockList									40	Cued	d	color_blue.png		0	14	242419	160																			1					25	prime_left.png	0	241999	0	0	13	0	241999	0	241999	1	241999	20	0	-1	240500	241999	241998	0	prime_left.png	TrialProc1	left	0		0	10	242309	-242309		0	0	TrialList1	target_left.png	1	d	0	3	242049	260	d	356	242405												2	1	40				neut			150
1 ver1_main_procedure	32	1	22	<?xml version="1.0"?>\n<Clock xmlns:dt="urn:schemas-microsoft-com:datatypes"><Description dt:dt="string">E-Prime Primary Realtime Clock</Description><StartTime><Timestamp dt:dt="int">0</Timestamp><DateUtc dt:dt="string">2015-08-18T07:54:39Z</DateUtc></StartTime><FrequencyChanges><FrequencyChange><Frequency dt:dt="r8">2441386</Frequency><Timestamp dt:dt="r8">963012780</Timestamp><Current dt:dt="r8">0</Current><DateUtc dt:dt="string">2015-08-18T07:54:39Z</DateUtc></FrequencyChange></FrequencyChanges></Clock>\n	1 ver1_main_procedure-32-1	99.923	1.0.0.880	2	mm	963477960	prawa	1	2.0.10.356	08-18-2015	2015-08-18 07:54:39	09:54:39	kobieta	2.0.10.92	3	1	1	1																							l	{SPACE}		no	BlockProc1		BlockList									41	Free	dl	color_yellow.png		0	10	244841	160																			2					75	prime_right.png	0	244391	0	0	13	0	244391	0	244391	2	244391	20	0	-1	242892	244391	244389	0	prime_right.png	TrialProc1	left	0		0	10	244701	-244701		0	0	TrialList1	target_both.png	0	dl	0	3	244441	260	l	390	244831												8	1	41				neut			150
1 ver1_main_procedure	32	1	22	<?xml version="1.0"?>\n<Clock xmlns:dt="urn:schemas-microsoft-com:datatypes"><Description dt:dt="string">E-Prime Primary Realtime Clock</Description><StartTime><Timestamp dt:dt="int">0</Timestamp><DateUtc dt:dt="string">2015-08-18T07:54:39Z</DateUtc></StartTime><FrequencyChanges><FrequencyChange><Frequency dt:dt="r8">2441386</Frequency><Timestamp dt:dt="r8">963012780</Timestamp><Current dt:dt="r8">0</Current><DateUtc dt:dt="string">2015-08-18T07:54:39Z</DateUtc></FrequencyChange></FrequencyChanges></Clock>\n	1 ver1_main_procedure-32-1	99.923	1.0.0.880	2	mm	963477960	prawa	1	2.0.10.356	08-18-2015	2015-08-18 07:54:39	09:54:39	kobieta	2.0.10.92	3	1	1	1																							l	{SPACE}		no	BlockProc1		BlockList									42	Cued	l	color_green.png		0	10	247403	160																								75	prime_right.png	0	246812	0	0	13	1	246813	1	246813	1	246812	20	0	-1	245314	246812	246811	0		TrialProc1	right	0		0	11	247123	-247123		0	0	TrialList1	target_right.png	1	l	0	3	246862	261	l	531	247393												4	1	42				comp			150
1 ver1_main_procedure	32	1	22	<?xml version="1.0"?>\n<Clock xmlns:dt="urn:schemas-microsoft-com:datatypes"><Description dt:dt="string">E-Prime Primary Realtime Clock</Description><StartTime><Timestamp dt:dt="int">0</Timestamp><DateUtc dt:dt="string">2015-08-18T07:54:39Z</DateUtc></StartTime><FrequencyChanges><FrequencyChange><Frequency dt:dt="r8">2441386</Frequency><Timestamp dt:dt="r8">963012780</Timestamp><Current dt:dt="r8">0</Current><DateUtc dt:dt="string">2015-08-18T07:54:39Z</DateUtc></FrequencyChange></FrequencyChanges></Clock>\n	1 ver1_main_procedure-32-1	99.923	1.0.0.880	2	mm	963477960	prawa	1	2.0.10.356	08-18-2015	2015-08-18 07:54:39	09:54:39	kobieta	2.0.10.92	3	1	1	1																							l	{SPACE}		no	BlockProc1		BlockList									43	Cued	l	color_green.png		0	12	249775	160																								75	prime_right.png	0	249374	0	0	13	0	249374	0	249374	1	249374	20	0	-1	247875	249374	249373	0		TrialProc1	right	0		0	11	249685	-249685		0	0	TrialList1	target_right.png	1	l	0	3	249424	261	l	339	249763												4	1	43				comp			150
1 ver1_main_procedure	32	1	22	<?xml version="1.0"?>\n<Clock xmlns:dt="urn:schemas-microsoft-com:datatypes"><Description dt:dt="string">E-Prime Primary Realtime Clock</Description><StartTime><Timestamp dt:dt="int">0</Timestamp><DateUtc dt:dt="string">2015-08-18T07:54:39Z</DateUtc></StartTime><FrequencyChanges><FrequencyChange><Frequency dt:dt="r8">2441386</Frequency><Timestamp dt:dt="r8">963012780</Timestamp><Current dt:dt="r8">0</Current><DateUtc dt:dt="string">2015-08-18T07:54:39Z</DateUtc></FrequencyChange></FrequencyChanges></Clock>\n	1 ver1_main_procedure-32-1	99.923	1.0.0.880	2	mm	963477960	prawa	1	2.0.10.356	08-18-2015	2015-08-18 07:54:39	09:54:39	kobieta	2.0.10.92	3	1	1	1																							l	{SPACE}		no	BlockProc1		BlockList									44	Cued	l	color_yellow.png		0	6	252226	461																			1					25	prime_left.png	0	251746	0	0	13	0	251746	0	251746	1	251746	20	0	-1	250247	251746	251745	0	prime_left.png	TrialProc1	right	0		0	10	252056	-252056		0	0	TrialList1	target_right.png	1	l	0	3	251796	260	l	424	252220												5	1	44				neut			450
1 ver1_main_procedure	32	1	22	<?xml version="1.0"?>\n<Clock xmlns:dt="urn:schemas-microsoft-com:datatypes"><Description dt:dt="string">E-Prime Primary Realtime Clock</Description><StartTime><Timestamp dt:dt="int">0</Timestamp><DateUtc dt:dt="string">2015-08-18T07:54:39Z</DateUtc></StartTime><FrequencyChanges><FrequencyChange><Frequency dt:dt="r8">2441386</Frequency><Timestamp dt:dt="r8">963012780</Timestamp><Current dt:dt="r8">0</Current><DateUtc dt:dt="string">2015-08-18T07:54:39Z</DateUtc></FrequencyChange></FrequencyChanges></Clock>\n	1 ver1_main_procedure-32-1	99.923	1.0.0.880	2	mm	963477960	prawa	1	2.0.10.356	08-18-2015	2015-08-18 07:54:39	09:54:39	kobieta	2.0.10.92	3	1	1	1																							l	{SPACE}		no	BlockProc1		BlockList									45	Cued	l	color_purple.png		0	9	254999	160																								75	prime_left.png	0	254498	0	0	13	0	254498	0	254498	1	254498	20	0	-1	252999	254498	254497	0		TrialProc1	right	0		1	10	254808	-254808		0	0	TrialList1	target_right.png	1	l	0	3	254548	260	l	442	254990												6	1	45				incomp			150
1 ver1_main_procedure	32	1	22	<?xml version="1.0"?>\n<Clock xmlns:dt="urn:schemas-microsoft-com:datatypes"><Description dt:dt="string">E-Prime Primary Realtime Clock</Description><StartTime><Timestamp dt:dt="int">0</Timestamp><DateUtc dt:dt="string">2015-08-18T07:54:39Z</DateUtc></StartTime><FrequencyChanges><FrequencyChange><Frequency dt:dt="r8">2441386</Frequency><Timestamp dt:dt="r8">963012780</Timestamp><Current dt:dt="r8">0</Current><DateUtc dt:dt="string">2015-08-18T07:54:39Z</DateUtc></FrequencyChange></FrequencyChanges></Clock>\n	1 ver1_main_procedure-32-1	99.923	1.0.0.880	2	mm	963477960	prawa	1	2.0.10.356	08-18-2015	2015-08-18 07:54:39	09:54:39	kobieta	2.0.10.92	3	1	1	1																							l	{SPACE}		no	BlockProc1		BlockList									46	Cued	l	color_green.png		0	14	257440	161																								25	prime_right.png	0	256970	0	0	13	0	256970	0	256970	1	256970	20	0	-1	255471	256970	256969	0		TrialProc1	right	0		0	10	257280	-257280		0	0	TrialList1	target_right.png	1	l	0	3	257020	260	l	406	257426												4	1	46				comp			150
1 ver1_main_procedure	32	1	22	<?xml version="1.0"?>\n<Clock xmlns:dt="urn:schemas-microsoft-com:datatypes"><Description dt:dt="string">E-Prime Primary Realtime Clock</Description><StartTime><Timestamp dt:dt="int">0</Timestamp><DateUtc dt:dt="string">2015-08-18T07:54:39Z</DateUtc></StartTime><FrequencyChanges><FrequencyChange><Frequency dt:dt="r8">2441386</Frequency><Timestamp dt:dt="r8">963012780</Timestamp><Current dt:dt="r8">0</Current><DateUtc dt:dt="string">2015-08-18T07:54:39Z</DateUtc></FrequencyChange></FrequencyChanges></Clock>\n	1 ver1_main_procedure-32-1	99.923	1.0.0.880	2	mm	963477960	prawa	1	2.0.10.356	08-18-2015	2015-08-18 07:54:39	09:54:39	kobieta	2.0.10.92	3	1	1	1																							l	{SPACE}		no	BlockProc1		BlockList									47	Cued	d	color_blue.png		0	6	259882	311																			2					75	prime_right.png	0	259412	0	0	13	0	259412	0	259412	1	259412	20	0	-1	257913	259412	259411	0	prime_right.png	TrialProc1	left	0		0	10	259722	-259722		0	0	TrialList1	target_left.png	1	d	0	3	259462	260	d	414	259876												2	1	47				neut			300
1 ver1_main_procedure	32	1	22	<?xml version="1.0"?>\n<Clock xmlns:dt="urn:schemas-microsoft-com:datatypes"><Description dt:dt="string">E-Prime Primary Realtime Clock</Description><StartTime><Timestamp dt:dt="int">0</Timestamp><DateUtc dt:dt="string">2015-08-18T07:54:39Z</DateUtc></StartTime><FrequencyChanges><FrequencyChange><Frequency dt:dt="r8">2441386</Frequency><Timestamp dt:dt="r8">963012780</Timestamp><Current dt:dt="r8">0</Current><DateUtc dt:dt="string">2015-08-18T07:54:39Z</DateUtc></FrequencyChange></FrequencyChanges></Clock>\n	1 ver1_main_procedure-32-1	99.923	1.0.0.880	2	mm	963477960	prawa	1	2.0.10.356	08-18-2015	2015-08-18 07:54:39	09:54:39	kobieta	2.0.10.92	3	1	1	1																							l	{SPACE}		no	BlockProc1		BlockList									48	Cued	d			0	8	262274	160																								25	prime_right.png	0	262004	0	0	13	0	262004	0	262004	1	262004	20	0	-1	260505	262004	262003	0		TrialProc1	left	0		0	0	0	0		0	0	TrialList1	target_left.png	0	d	-999999	3	262054	0	l	212	262266												3	1	48				incomp			150
1 ver1_main_procedure	32	1	22	<?xml version="1.0"?>\n<Clock xmlns:dt="urn:schemas-microsoft-com:datatypes"><Description dt:dt="string">E-Prime Primary Realtime Clock</Description><StartTime><Timestamp dt:dt="int">0</Timestamp><DateUtc dt:dt="string">2015-08-18T07:54:39Z</DateUtc></StartTime><FrequencyChanges><FrequencyChange><Frequency dt:dt="r8">2441386</Frequency><Timestamp dt:dt="r8">963012780</Timestamp><Current dt:dt="r8">0</Current><DateUtc dt:dt="string">2015-08-18T07:54:39Z</DateUtc></FrequencyChange></FrequencyChanges></Clock>\n	1 ver1_main_procedure-32-1	99.923	1.0.0.880	2	mm	963477960	prawa	1	2.0.10.356	08-18-2015	2015-08-18 07:54:39	09:54:39	kobieta	2.0.10.92	3	1	1	1																							l	{SPACE}		no	BlockProc1		BlockList									49	Cued	l	color_purple.png		0	10	264826	310																								25	prime_left.png	0	264246	0	0	13	0	264246	0	264246	2	264246	20	0	-1	262747	264246	264244	0		TrialProc1	right	0		0	10	264556	-264556		0	0	TrialList1	target_right.png	1	l	0	3	264296	260	l	520	264816												6	1	49				incomp			300
1 ver1_main_procedure	32	1	22	<?xml version="1.0"?>\n<Clock xmlns:dt="urn:schemas-microsoft-com:datatypes"><Description dt:dt="string">E-Prime Primary Realtime Clock</Description><StartTime><Timestamp dt:dt="int">0</Timestamp><DateUtc dt:dt="string">2015-08-18T07:54:39Z</DateUtc></StartTime><FrequencyChanges><FrequencyChange><Frequency dt:dt="r8">2441386</Frequency><Timestamp dt:dt="r8">963012780</Timestamp><Current dt:dt="r8">0</Current><DateUtc dt:dt="string">2015-08-18T07:54:39Z</DateUtc></FrequencyChange></FrequencyChanges></Clock>\n	1 ver1_main_procedure-32-1	99.923	1.0.0.880	2	mm	963477960	prawa	1	2.0.10.356	08-18-2015	2015-08-18 07:54:39	09:54:39	kobieta	2.0.10.92	3	1	1	1																							l	{SPACE}		no	BlockProc1		BlockList									50	Cued	d	color_red.png		0	8	267278	460																								25	prime_left.png	0	266948	0	0	13	0	266948	0	266948	2	266948	20	0	-1	265449	266948	266946	0		TrialProc1	left	0		0	10	267258	-267258		0	0	TrialList1	target_left.png	1	d	0	3	266998	260	d	272	267270												1	1	50				comp			450
1 ver1_main_procedure	32	1	22	<?xml version="1.0"?>\n<Clock xmlns:dt="urn:schemas-microsoft-com:datatypes"><Description dt:dt="string">E-Prime Primary Realtime Clock</Description><StartTime><Timestamp dt:dt="int">0</Timestamp><DateUtc dt:dt="string">2015-08-18T07:54:39Z</DateUtc></StartTime><FrequencyChanges><FrequencyChange><Frequency dt:dt="r8">2441386</Frequency><Timestamp dt:dt="r8">963012780</Timestamp><Current dt:dt="r8">0</Current><DateUtc dt:dt="string">2015-08-18T07:54:39Z</DateUtc></FrequencyChange></FrequencyChanges></Clock>\n	1 ver1_main_procedure-32-1	99.923	1.0.0.880	2	mm	963477960	prawa	1	2.0.10.356	08-18-2015	2015-08-18 07:54:39	09:54:39	kobieta	2.0.10.92	3	1	1	1																							l	{SPACE}		no	BlockProc1		BlockList									51	Cued	d	color_red.png		0	7	269940	310																								25	prime_left.png	0	269550	0	0	13	0	269550	0	269550	2	269550	20	0	-1	268051	269550	269548	0		TrialProc1	left	0		0	10	269860	-269860		0	0	TrialList1	target_left.png	1	d	0	3	269600	260	d	332	269932												1	1	51				comp			300
1 ver1_main_procedure	32	1	22	<?xml version="1.0"?>\n<Clock xmlns:dt="urn:schemas-microsoft-com:datatypes"><Description dt:dt="string">E-Prime Primary Realtime Clock</Description><StartTime><Timestamp dt:dt="int">0</Timestamp><DateUtc dt:dt="string">2015-08-18T07:54:39Z</DateUtc></StartTime><FrequencyChanges><FrequencyChange><Frequency dt:dt="r8">2441386</Frequency><Timestamp dt:dt="r8">963012780</Timestamp><Current dt:dt="r8">0</Current><DateUtc dt:dt="string">2015-08-18T07:54:39Z</DateUtc></FrequencyChange></FrequencyChanges></Clock>\n	1 ver1_main_procedure-32-1	99.923	1.0.0.880	2	mm	963477960	prawa	1	2.0.10.356	08-18-2015	2015-08-18 07:54:39	09:54:39	kobieta	2.0.10.92	3	1	1	1																							l	{SPACE}		no	BlockProc1		BlockList									52	Free	dl	color_yellow.png		0	11	272582	160																			1					25	prime_left.png	1	272062	0	0	13	1	272062	1	272062	1	272061	20	0	-1	270563	272061	272060	0	prime_left.png	TrialProc1	left	0		0	11	272372	-272372		0	0	TrialList1	target_both.png	0	dl	0	3	272111	261	l	459	272570												8	1	52				neut			150
1 ver1_main_procedure	32	1	22	<?xml version="1.0"?>\n<Clock xmlns:dt="urn:schemas-microsoft-com:datatypes"><Description dt:dt="string">E-Prime Primary Realtime Clock</Description><StartTime><Timestamp dt:dt="int">0</Timestamp><DateUtc dt:dt="string">2015-08-18T07:54:39Z</DateUtc></StartTime><FrequencyChanges><FrequencyChange><Frequency dt:dt="r8">2441386</Frequency><Timestamp dt:dt="r8">963012780</Timestamp><Current dt:dt="r8">0</Current><DateUtc dt:dt="string">2015-08-18T07:54:39Z</DateUtc></FrequencyChange></FrequencyChanges></Clock>\n	1 ver1_main_procedure-32-1	99.923	1.0.0.880	2	mm	963477960	prawa	1	2.0.10.356	08-18-2015	2015-08-18 07:54:39	09:54:39	kobieta	2.0.10.92	3	1	1	1																							l	{SPACE}		no	BlockProc1		BlockList									53	Free	dl	color_orange.png		0	14	275134	160																								25	prime_right.png	0	274553	0	0	13	0	274553	0	274553	1	274553	20	0	-1	273054	274553	274552	0		TrialProc1	left	0		0	11	274864	-274864		0	0	TrialList1	target_both.png	0	dl	0	3	274603	261	d	517	275120												9	1	53				incomp			150
1 ver1_main_procedure	32	1	22	<?xml version="1.0"?>\n<Clock xmlns:dt="urn:schemas-microsoft-com:datatypes"><Description dt:dt="string">E-Prime Primary Realtime Clock</Description><StartTime><Timestamp dt:dt="int">0</Timestamp><DateUtc dt:dt="string">2015-08-18T07:54:39Z</DateUtc></StartTime><FrequencyChanges><FrequencyChange><Frequency dt:dt="r8">2441386</Frequency><Timestamp dt:dt="r8">963012780</Timestamp><Current dt:dt="r8">0</Current><DateUtc dt:dt="string">2015-08-18T07:54:39Z</DateUtc></FrequencyChange></FrequencyChanges></Clock>\n	1 ver1_main_procedure-32-1	99.923	1.0.0.880	2	mm	963477960	prawa	1	2.0.10.356	08-18-2015	2015-08-18 07:54:39	09:54:39	kobieta	2.0.10.92	3	1	1	1																							l	{SPACE}		no	BlockProc1		BlockList									54	Cued	l	color_purple.png		0	14	277586	460																								25	prime_left.png	0	277105	0	0	13	0	277105	0	277105	1	277105	20	0	-1	275607	277105	277104	0		TrialProc1	right	0		0	11	277416	-277416		0	0	TrialList1	target_right.png	1	l	0	3	277155	261	l	417	277572												6	1	54				incomp			450
1 ver1_main_procedure	32	1	22	<?xml version="1.0"?>\n<Clock xmlns:dt="urn:schemas-microsoft-com:datatypes"><Description dt:dt="string">E-Prime Primary Realtime Clock</Description><StartTime><Timestamp dt:dt="int">0</Timestamp><DateUtc dt:dt="string">2015-08-18T07:54:39Z</DateUtc></StartTime><FrequencyChanges><FrequencyChange><Frequency dt:dt="r8">2441386</Frequency><Timestamp dt:dt="r8">963012780</Timestamp><Current dt:dt="r8">0</Current><DateUtc dt:dt="string">2015-08-18T07:54:39Z</DateUtc></FrequencyChange></FrequencyChanges></Clock>\n	1 ver1_main_procedure-32-1	99.923	1.0.0.880	2	mm	963477960	prawa	1	2.0.10.356	08-18-2015	2015-08-18 07:54:39	09:54:39	kobieta	2.0.10.92	3	1	1	1																							l	{SPACE}		no	BlockProc1		BlockList									55	Cued	l	color_yellow.png		0	6	280378	310																			2					75	prime_right.png	0	279857	0	0	13	0	279857	0	279857	1	279857	20	0	-1	278358	279857	279856	0	prime_right.png	TrialProc1	right	0		0	11	280168	-280168		0	0	TrialList1	target_right.png	1	l	0	3	279907	261	l	465	280372												5	1	55				neut			300
1 ver1_main_procedure	32	1	22	<?xml version="1.0"?>\n<Clock xmlns:dt="urn:schemas-microsoft-com:datatypes"><Description dt:dt="string">E-Prime Primary Realtime Clock</Description><StartTime><Timestamp dt:dt="int">0</Timestamp><DateUtc dt:dt="string">2015-08-18T07:54:39Z</DateUtc></StartTime><FrequencyChanges><FrequencyChange><Frequency dt:dt="r8">2441386</Frequency><Timestamp dt:dt="r8">963012780</Timestamp><Current dt:dt="r8">0</Current><DateUtc dt:dt="string">2015-08-18T07:54:39Z</DateUtc></FrequencyChange></FrequencyChanges></Clock>\n	1 ver1_main_procedure-32-1	99.923	1.0.0.880	2	mm	963477960	prawa	1	2.0.10.356	08-18-2015	2015-08-18 07:54:39	09:54:39	kobieta	2.0.10.92	3	1	1	1																							l	{SPACE}		no	BlockProc1		BlockList									56	Free	dl	color_red.png		0	12	283010	310																								75	prime_left.png	0	282499	0	0	13	1	282500	1	282500	1	282499	20	0	-1	281000	282499	282498	0		TrialProc1	left	0		0	11	282810	-282810		0	0	TrialList1	target_both.png	0	dl	0	3	282549	261	d	449	282998												7	1	56				comp			300
1 ver1_main_procedure	32	1	22	<?xml version="1.0"?>\n<Clock xmlns:dt="urn:schemas-microsoft-com:datatypes"><Description dt:dt="string">E-Prime Primary Realtime Clock</Description><StartTime><Timestamp dt:dt="int">0</Timestamp><DateUtc dt:dt="string">2015-08-18T07:54:39Z</DateUtc></StartTime><FrequencyChanges><FrequencyChange><Frequency dt:dt="r8">2441386</Frequency><Timestamp dt:dt="r8">963012780</Timestamp><Current dt:dt="r8">0</Current><DateUtc dt:dt="string">2015-08-18T07:54:39Z</DateUtc></FrequencyChange></FrequencyChanges></Clock>\n	1 ver1_main_procedure-32-1	99.923	1.0.0.880	2	mm	963477960	prawa	1	2.0.10.356	08-18-2015	2015-08-18 07:54:39	09:54:39	kobieta	2.0.10.92	3	1	1	1																							l	{SPACE}		no	BlockProc1		BlockList									57	Free	dl	color_blue.png		0	7	285782	160																			1					75	prime_left.png	0	285131	0	0	13	0	285131	0	285131	1	285131	20	0	-1	283633	285131	285130	0	prime_left.png	TrialProc1	left	0		0	11	285442	-285442		0	0	TrialList1	target_both.png	0	dl	0	3	285181	261	d	594	285775												8	1	57				neut			150
1 ver1_main_procedure	32	1	22	<?xml version="1.0"?>\n<Clock xmlns:dt="urn:schemas-microsoft-com:datatypes"><Description dt:dt="string">E-Prime Primary Realtime Clock</Description><StartTime><Timestamp dt:dt="int">0</Timestamp><DateUtc dt:dt="string">2015-08-18T07:54:39Z</DateUtc></StartTime><FrequencyChanges><FrequencyChange><Frequency dt:dt="r8">2441386</Frequency><Timestamp dt:dt="r8">963012780</Timestamp><Current dt:dt="r8">0</Current><DateUtc dt:dt="string">2015-08-18T07:54:39Z</DateUtc></FrequencyChange></FrequencyChanges></Clock>\n	1 ver1_main_procedure-32-1	99.923	1.0.0.880	2	mm	963477960	prawa	1	2.0.10.356	08-18-2015	2015-08-18 07:54:39	09:54:39	kobieta	2.0.10.92	3	1	1	1																							l	{SPACE}		no	BlockProc1		BlockList									58	Cued	l	color_yellow.png		0	13	288204	460																			2					25	prime_right.png	0	287753	0	0	13	0	287754	0	287753	1	287753	20	0	-1	286254	287753	287752	0	prime_right.png	TrialProc1	right	0		0	11	288064	-288064		0	0	TrialList1	target_right.png	1	l	0	3	287803	261	l	388	288191												5	1	58				neut			450
1 ver1_main_procedure	32	1	22	<?xml version="1.0"?>\n<Clock xmlns:dt="urn:schemas-microsoft-com:datatypes"><Description dt:dt="string">E-Prime Primary Realtime Clock</Description><StartTime><Timestamp dt:dt="int">0</Timestamp><DateUtc dt:dt="string">2015-08-18T07:54:39Z</DateUtc></StartTime><FrequencyChanges><FrequencyChange><Frequency dt:dt="r8">2441386</Frequency><Timestamp dt:dt="r8">963012780</Timestamp><Current dt:dt="r8">0</Current><DateUtc dt:dt="string">2015-08-18T07:54:39Z</DateUtc></FrequencyChange></FrequencyChanges></Clock>\n	1 ver1_main_procedure-32-1	99.923	1.0.0.880	2	mm	963477960	prawa	1	2.0.10.356	08-18-2015	2015-08-18 07:54:39	09:54:39	kobieta	2.0.10.92	3	1	1	1																							l	{SPACE}		no	BlockProc1		BlockList									59	Cued	d	color_blue.png		0	13	290836	160																			1					75	prime_left.png	0	290475	0	0	13	1	290476	1	290476	1	290475	20	0	-1	288976	290475	290474	0	prime_left.png	TrialProc1	left	0		0	11	290786	-290786		0	0	TrialList1	target_left.png	1	d	0	3	290525	261	d	298	290823												2	1	59				neut			150
1 ver1_main_procedure	32	1	22	<?xml version="1.0"?>\n<Clock xmlns:dt="urn:schemas-microsoft-com:datatypes"><Description dt:dt="string">E-Prime Primary Realtime Clock</Description><StartTime><Timestamp dt:dt="int">0</Timestamp><DateUtc dt:dt="string">2015-08-18T07:54:39Z</DateUtc></StartTime><FrequencyChanges><FrequencyChange><Frequency dt:dt="r8">2441386</Frequency><Timestamp dt:dt="r8">963012780</Timestamp><Current dt:dt="r8">0</Current><DateUtc dt:dt="string">2015-08-18T07:54:39Z</DateUtc></FrequencyChange></FrequencyChanges></Clock>\n	1 ver1_main_procedure-32-1	99.923	1.0.0.880	2	mm	963477960	prawa	1	2.0.10.356	08-18-2015	2015-08-18 07:54:39	09:54:39	kobieta	2.0.10.92	3	1	1	1																							l	{SPACE}		no	BlockProc1		BlockList									60	Cued	d	color_orange.png		0	7	293298	310																								25	prime_right.png	0	292807	0	0	13	0	292807	0	292807	1	292807	20	0	-1	291308	292807	292806	0		TrialProc1	left	0		0	10	293117	-293117		0	0	TrialList1	target_left.png	1	d	0	3	292857	260	d	434	293291												3	1	60				incomp			300
1 ver1_main_procedure	32	1	22	<?xml version="1.0"?>\n<Clock xmlns:dt="urn:schemas-microsoft-com:datatypes"><Description dt:dt="string">E-Prime Primary Realtime Clock</Description><StartTime><Timestamp dt:dt="int">0</Timestamp><DateUtc dt:dt="string">2015-08-18T07:54:39Z</DateUtc></StartTime><FrequencyChanges><FrequencyChange><Frequency dt:dt="r8">2441386</Frequency><Timestamp dt:dt="r8">963012780</Timestamp><Current dt:dt="r8">0</Current><DateUtc dt:dt="string">2015-08-18T07:54:39Z</DateUtc></FrequencyChange></FrequencyChanges></Clock>\n	1 ver1_main_procedure-32-1	99.923	1.0.0.880	2	mm	963477960	prawa	1	2.0.10.356	08-18-2015	2015-08-18 07:54:39	09:54:39	kobieta	2.0.10.92	3	1	1	1																							l	{SPACE}		no	BlockProc1		BlockList									61	Free	dl	color_yellow.png		0	8	295949	311																			2					25	prime_right.png	0	295419	0	0	13	0	295419	0	295419	1	295419	20	0	-1	293920	295419	295418	0	prime_right.png	TrialProc1	right	0		0	10	295729	-295729		0	0	TrialList1	target_both.png	0	dl	0	3	295469	260	l	472	295941												11	1	61				neut			300
1 ver1_main_procedure	32	1	22	<?xml version="1.0"?>\n<Clock xmlns:dt="urn:schemas-microsoft-com:datatypes"><Description dt:dt="string">E-Prime Primary Realtime Clock</Description><StartTime><Timestamp dt:dt="int">0</Timestamp><DateUtc dt:dt="string">2015-08-18T07:54:39Z</DateUtc></StartTime><FrequencyChanges><FrequencyChange><Frequency dt:dt="r8">2441386</Frequency><Timestamp dt:dt="r8">963012780</Timestamp><Current dt:dt="r8">0</Current><DateUtc dt:dt="string">2015-08-18T07:54:39Z</DateUtc></FrequencyChange></FrequencyChanges></Clock>\n	1 ver1_main_procedure-32-1	99.923	1.0.0.880	2	mm	963477960	prawa	1	2.0.10.356	08-18-2015	2015-08-18 07:54:39	09:54:39	kobieta	2.0.10.92	3	1	1	1																							l	{SPACE}		no	BlockProc1		BlockList									62	Free	dl	color_red.png		0	8	298491	161																								25	prime_left.png	0	298071	0	0	13	0	298071	0	298071	1	298071	20	0	-1	296572	298071	298070	0		TrialProc1	right	0		0	10	298381	-298381		0	0	TrialList1	target_both.png	0	dl	0	3	298121	260	d	362	298483												12	1	62				incomp			150
1 ver1_main_procedure	32	1	22	<?xml version="1.0"?>\n<Clock xmlns:dt="urn:schemas-microsoft-com:datatypes"><Description dt:dt="string">E-Prime Primary Realtime Clock</Description><StartTime><Timestamp dt:dt="int">0</Timestamp><DateUtc dt:dt="string">2015-08-18T07:54:39Z</DateUtc></StartTime><FrequencyChanges><FrequencyChange><Frequency dt:dt="r8">2441386</Frequency><Timestamp dt:dt="r8">963012780</Timestamp><Current dt:dt="r8">0</Current><DateUtc dt:dt="string">2015-08-18T07:54:39Z</DateUtc></FrequencyChange></FrequencyChanges></Clock>\n	1 ver1_main_procedure-32-1	99.923	1.0.0.880	2	mm	963477960	prawa	1	2.0.10.356	08-18-2015	2015-08-18 07:54:39	09:54:39	kobieta	2.0.10.92	3	1	1	1																							l	{SPACE}		no	BlockProc1		BlockList									63	Cued	l	color_green.png		0	10	300913	461																								25	prime_right.png	0	300463	0	0	13	0	300463	0	300463	1	300463	20	0	-1	298964	300463	300462	0		TrialProc1	right	0		0	10	300773	-300773		0	0	TrialList1	target_right.png	1	l	0	3	300513	260	l	390	300903												4	1	63				comp			450
1 ver1_main_procedure	32	1	22	<?xml version="1.0"?>\n<Clock xmlns:dt="urn:schemas-microsoft-com:datatypes"><Description dt:dt="string">E-Prime Primary Realtime Clock</Description><StartTime><Timestamp dt:dt="int">0</Timestamp><DateUtc dt:dt="string">2015-08-18T07:54:39Z</DateUtc></StartTime><FrequencyChanges><FrequencyChange><Frequency dt:dt="r8">2441386</Frequency><Timestamp dt:dt="r8">963012780</Timestamp><Current dt:dt="r8">0</Current><DateUtc dt:dt="string">2015-08-18T07:54:39Z</DateUtc></FrequencyChange></FrequencyChanges></Clock>\n	1 ver1_main_procedure-32-1	99.923	1.0.0.880	2	mm	963477960	prawa	1	2.0.10.356	08-18-2015	2015-08-18 07:54:39	09:54:39	kobieta	2.0.10.92	3	1	1	1																							l	{SPACE}		no	BlockProc1		BlockList									64	Cued	l	color_yellow.png		0	11	303815	161																			1					75	prime_left.png	0	303185	0	0	13	0	303185	0	303185	1	303185	20	0	-1	301686	303185	303184	0	prime_left.png	TrialProc1	right	0		0	10	303495	-303495		0	0	TrialList1	target_right.png	1	l	0	3	303235	260	l	569	303804												5	1	64				neut			150
1 ver1_main_procedure	32	1	22	<?xml version="1.0"?>\n<Clock xmlns:dt="urn:schemas-microsoft-com:datatypes"><Description dt:dt="string">E-Prime Primary Realtime Clock</Description><StartTime><Timestamp dt:dt="int">0</Timestamp><DateUtc dt:dt="string">2015-08-18T07:54:39Z</DateUtc></StartTime><FrequencyChanges><FrequencyChange><Frequency dt:dt="r8">2441386</Frequency><Timestamp dt:dt="r8">963012780</Timestamp><Current dt:dt="r8">0</Current><DateUtc dt:dt="string">2015-08-18T07:54:39Z</DateUtc></FrequencyChange></FrequencyChanges></Clock>\n	1 ver1_main_procedure-32-1	99.923	1.0.0.880	2	mm	963477960	prawa	1	2.0.10.356	08-18-2015	2015-08-18 07:54:39	09:54:39	kobieta	2.0.10.92	3	1	1	1																							l	{SPACE}		no	BlockProc1		BlockList									65	Cued	d	color_red.png		0	11	306217	310																								75	prime_left.png	0	305787	0	0	13	0	305787	0	305787	1	305787	20	0	-1	304288	305787	305786	0		TrialProc1	left	0		0	10	306097	-306097		0	0	TrialList1	target_left.png	1	d	0	3	305837	260	d	369	306206												1	1	65				comp			300
1 ver1_main_procedure	32	1	22	<?xml version="1.0"?>\n<Clock xmlns:dt="urn:schemas-microsoft-com:datatypes"><Description dt:dt="string">E-Prime Primary Realtime Clock</Description><StartTime><Timestamp dt:dt="int">0</Timestamp><DateUtc dt:dt="string">2015-08-18T07:54:39Z</DateUtc></StartTime><FrequencyChanges><FrequencyChange><Frequency dt:dt="r8">2441386</Frequency><Timestamp dt:dt="r8">963012780</Timestamp><Current dt:dt="r8">0</Current><DateUtc dt:dt="string">2015-08-18T07:54:39Z</DateUtc></FrequencyChange></FrequencyChanges></Clock>\n	1 ver1_main_procedure-32-1	99.923	1.0.0.880	2	mm	963477960	prawa	1	2.0.10.356	08-18-2015	2015-08-18 07:54:39	09:54:39	kobieta	2.0.10.92	3	1	1	1																							l	{SPACE}		no	BlockProc1		BlockList									66	Cued	d	color_blue.png		0	9	308809	461																			2					75	prime_right.png	0	308339	0	0	13	0	308339	0	308339	1	308339	20	0	-1	306840	308339	308338	0	prime_right.png	TrialProc1	left	0		0	10	308649	-308649		0	0	TrialList1	target_left.png	1	d	0	3	308389	260	d	411	308800												2	1	66				neut			450
1 ver1_main_procedure	32	1	22	<?xml version="1.0"?>\n<Clock xmlns:dt="urn:schemas-microsoft-com:datatypes"><Description dt:dt="string">E-Prime Primary Realtime Clock</Description><StartTime><Timestamp dt:dt="int">0</Timestamp><DateUtc dt:dt="string">2015-08-18T07:54:39Z</DateUtc></StartTime><FrequencyChanges><FrequencyChange><Frequency dt:dt="r8">2441386</Frequency><Timestamp dt:dt="r8">963012780</Timestamp><Current dt:dt="r8">0</Current><DateUtc dt:dt="string">2015-08-18T07:54:39Z</DateUtc></FrequencyChange></FrequencyChanges></Clock>\n	1 ver1_main_procedure-32-1	99.923	1.0.0.880	2	mm	963477960	prawa	1	2.0.10.356	08-18-2015	2015-08-18 07:54:39	09:54:39	kobieta	2.0.10.92	3	1	1	1																							l	{SPACE}		no	BlockProc1		BlockList									67	Free	dl	color_green.png		0	13	311531	310																								25	prime_right.png	0	311081	0	0	13	0	311081	0	311081	1	311081	20	0	-1	309582	311081	311080	0		TrialProc1	right	0		0	10	311391	-311391		0	0	TrialList1	target_both.png	0	dl	0	3	311131	260	l	387	311518												10	1	67				comp			300
1 ver1_main_procedure	32	1	22	<?xml version="1.0"?>\n<Clock xmlns:dt="urn:schemas-microsoft-com:datatypes"><Description dt:dt="string">E-Prime Primary Realtime Clock</Description><StartTime><Timestamp dt:dt="int">0</Timestamp><DateUtc dt:dt="string">2015-08-18T07:54:39Z</DateUtc></StartTime><FrequencyChanges><FrequencyChange><Frequency dt:dt="r8">2441386</Frequency><Timestamp dt:dt="r8">963012780</Timestamp><Current dt:dt="r8">0</Current><DateUtc dt:dt="string">2015-08-18T07:54:39Z</DateUtc></FrequencyChange></FrequencyChanges></Clock>\n	1 ver1_main_procedure-32-1	99.923	1.0.0.880	2	mm	963477960	prawa	1	2.0.10.356	08-18-2015	2015-08-18 07:54:39	09:54:39	kobieta	2.0.10.92	3	1	1	1																							l	{SPACE}		no	BlockProc1		BlockList									68	Cued	d	color_blue.png		0	13	313983	460																			1					75	prime_left.png	0	313653	0	0	13	0	313653	0	313653	1	313653	20	0	-1	312154	313653	313652	0	prime_left.png	TrialProc1	left	0		0	10	313963	-313963		0	0	TrialList1	target_left.png	1	d	0	3	313703	260	d	267	313970												2	1	68				neut			450
1 ver1_main_procedure	32	1	22	<?xml version="1.0"?>\n<Clock xmlns:dt="urn:schemas-microsoft-com:datatypes"><Description dt:dt="string">E-Prime Primary Realtime Clock</Description><StartTime><Timestamp dt:dt="int">0</Timestamp><DateUtc dt:dt="string">2015-08-18T07:54:39Z</DateUtc></StartTime><FrequencyChanges><FrequencyChange><Frequency dt:dt="r8">2441386</Frequency><Timestamp dt:dt="r8">963012780</Timestamp><Current dt:dt="r8">0</Current><DateUtc dt:dt="string">2015-08-18T07:54:39Z</DateUtc></FrequencyChange></FrequencyChanges></Clock>\n	1 ver1_main_procedure-32-1	99.923	1.0.0.880	2	mm	963477960	prawa	1	2.0.10.356	08-18-2015	2015-08-18 07:54:39	09:54:39	kobieta	2.0.10.92	3	1	1	1																							l	{SPACE}		no	BlockProc1		BlockList									69	Free	dl	color_green.png		0	11	316775	461																								75	prime_right.png	0	316255	0	0	13	0	316255	0	316255	1	316255	20	0	-1	314756	316255	316254	0		TrialProc1	left	0		0	10	316565	-316565		0	0	TrialList1	target_both.png	0	dl	0	3	316305	260	l	459	316764												9	1	69				incomp			450
1 ver1_main_procedure	32	1	22	<?xml version="1.0"?>\n<Clock xmlns:dt="urn:schemas-microsoft-com:datatypes"><Description dt:dt="string">E-Prime Primary Realtime Clock</Description><StartTime><Timestamp dt:dt="int">0</Timestamp><DateUtc dt:dt="string">2015-08-18T07:54:39Z</DateUtc></StartTime><FrequencyChanges><FrequencyChange><Frequency dt:dt="r8">2441386</Frequency><Timestamp dt:dt="r8">963012780</Timestamp><Current dt:dt="r8">0</Current><DateUtc dt:dt="string">2015-08-18T07:54:39Z</DateUtc></FrequencyChange></FrequencyChanges></Clock>\n	1 ver1_main_procedure-32-1	99.923	1.0.0.880	2	mm	963477960	prawa	1	2.0.10.356	08-18-2015	2015-08-18 07:54:39	09:54:39	kobieta	2.0.10.92	3	1	1	1																							l	{SPACE}		no	BlockProc1		BlockList									70	Cued	l	color_purple.png		0	8	319557	461																								25	prime_left.png	0	319047	0	0	13	0	319047	0	319047	1	319047	20	0	-1	317548	319047	319046	0		TrialProc1	right	0		0	10	319357	-319357		0	0	TrialList1	target_right.png	1	l	0	3	319097	260	l	452	319549												6	1	70				incomp			450
1 ver1_main_procedure	32	1	22	<?xml version="1.0"?>\n<Clock xmlns:dt="urn:schemas-microsoft-com:datatypes"><Description dt:dt="string">E-Prime Primary Realtime Clock</Description><StartTime><Timestamp dt:dt="int">0</Timestamp><DateUtc dt:dt="string">2015-08-18T07:54:39Z</DateUtc></StartTime><FrequencyChanges><FrequencyChange><Frequency dt:dt="r8">2441386</Frequency><Timestamp dt:dt="r8">963012780</Timestamp><Current dt:dt="r8">0</Current><DateUtc dt:dt="string">2015-08-18T07:54:39Z</DateUtc></FrequencyChange></FrequencyChanges></Clock>\n	1 ver1_main_procedure-32-1	99.923	1.0.0.880	2	mm	963477960	prawa	1	2.0.10.356	08-18-2015	2015-08-18 07:54:39	09:54:39	kobieta	2.0.10.92	3	1	1	1																							l	{SPACE}		no	BlockProc1		BlockList									71	Free	dl	color_red.png		0	12	322349	311																								25	prime_left.png	0	321829	0	0	13	0	321829	0	321829	1	321829	20	0	-1	320330	321829	321828	0		TrialProc1	left	0		0	10	322139	-322139		0	0	TrialList1	target_both.png	0	dl	0	3	321879	260	d	458	322337												7	1	71				comp			300
1 ver1_main_procedure	32	1	22	<?xml version="1.0"?>\n<Clock xmlns:dt="urn:schemas-microsoft-com:datatypes"><Description dt:dt="string">E-Prime Primary Realtime Clock</Description><StartTime><Timestamp dt:dt="int">0</Timestamp><DateUtc dt:dt="string">2015-08-18T07:54:39Z</DateUtc></StartTime><FrequencyChanges><FrequencyChange><Frequency dt:dt="r8">2441386</Frequency><Timestamp dt:dt="r8">963012780</Timestamp><Current dt:dt="r8">0</Current><DateUtc dt:dt="string">2015-08-18T07:54:39Z</DateUtc></FrequencyChange></FrequencyChanges></Clock>\n	1 ver1_main_procedure-32-1	99.923	1.0.0.880	2	mm	963477960	prawa	1	2.0.10.356	08-18-2015	2015-08-18 07:54:39	09:54:39	kobieta	2.0.10.92	3	1	1	1																							l	{SPACE}		no	BlockProc1		BlockList									72	Cued	l	color_green.png		0	6	324831	311																								75	prime_right.png	0	324471	0	0	13	0	324471	0	324471	1	324471	20	0	-1	322972	324471	324470	0		TrialProc1	right	0		0	10	324781	-324781		0	0	TrialList1	target_right.png	1	l	0	3	324521	260	l	304	324825												4	1	72				comp			300
1 ver1_main_procedure	32	1	22	<?xml version="1.0"?>\n<Clock xmlns:dt="urn:schemas-microsoft-com:datatypes"><Description dt:dt="string">E-Prime Primary Realtime Clock</Description><StartTime><Timestamp dt:dt="int">0</Timestamp><DateUtc dt:dt="string">2015-08-18T07:54:39Z</DateUtc></StartTime><FrequencyChanges><FrequencyChange><Frequency dt:dt="r8">2441386</Frequency><Timestamp dt:dt="r8">963012780</Timestamp><Current dt:dt="r8">0</Current><DateUtc dt:dt="string">2015-08-18T07:54:39Z</DateUtc></FrequencyChange></FrequencyChanges></Clock>\n	1 ver1_main_procedure-32-1	99.923	1.0.0.880	2	mm	963477960	prawa	1	2.0.10.356	08-18-2015	2015-08-18 07:54:39	09:54:39	kobieta	2.0.10.92	3	1	1	1																							l	{SPACE}		no	BlockProc1		BlockList									73									2	1	4	6	5	3	color_blue.png	color_purple.png	color_yellow.png	color_green.png	color_orange.png	color_red.png	color_purple.png	color_blue.png	color_red.png	color_yellow.png	color_orange.png	color_green.png		1	1	1	38544																						DragProc											Ocena																															
1 ver1_main_procedure	32	1	22	<?xml version="1.0"?>\n<Clock xmlns:dt="urn:schemas-microsoft-com:datatypes"><Description dt:dt="string">E-Prime Primary Realtime Clock</Description><StartTime><Timestamp dt:dt="int">0</Timestamp><DateUtc dt:dt="string">2015-08-18T07:54:39Z</DateUtc></StartTime><FrequencyChanges><FrequencyChange><Frequency dt:dt="r8">2441386</Frequency><Timestamp dt:dt="r8">963012780</Timestamp><Current dt:dt="r8">0</Current><DateUtc dt:dt="string">2015-08-18T07:54:39Z</DateUtc></FrequencyChange></FrequencyChanges></Clock>\n	1 ver1_main_procedure-32-1	99.923	1.0.0.880	2	mm	963477960	prawa	1	2.0.10.356	08-18-2015	2015-08-18 07:54:39	09:54:39	kobieta	2.0.10.92	3	1	1	1																							l	{SPACE}		no	BlockProc1		BlockList									74															color_blue.png	color_purple.png	color_yellow.png	color_green.png	color_orange.png	color_red.png								2	1	2																							EnterProc											Ocena												1	2	3	4	5	6														
1 ver1_main_procedure	32	1	22	<?xml version="1.0"?>\n<Clock xmlns:dt="urn:schemas-microsoft-com:datatypes"><Description dt:dt="string">E-Prime Primary Realtime Clock</Description><StartTime><Timestamp dt:dt="int">0</Timestamp><DateUtc dt:dt="string">2015-08-18T07:54:39Z</DateUtc></StartTime><FrequencyChanges><FrequencyChange><Frequency dt:dt="r8">2441386</Frequency><Timestamp dt:dt="r8">963012780</Timestamp><Current dt:dt="r8">0</Current><DateUtc dt:dt="string">2015-08-18T07:54:39Z</DateUtc></FrequencyChange></FrequencyChanges></Clock>\n	1 ver1_main_procedure-32-1	99.923	1.0.0.880	2	mm	963477960	prawa	1	2.0.10.356	08-18-2015	2015-08-18 07:54:39	09:54:39	kobieta	2.0.10.92	4	3	1	2																							d	{SPACE}		no	BlockProc1		BlockList									1	Cued	d	color_blue.png		0	12	499283	460																								75	prime_left.png	1	498593	0	0	13	1	498593	1	498593	1	498592	20	0	-1	497094	498592	498591	0		TrialProc1	left	0		0	11	498903	-498903		0	0	TrialList1	target_left.png	1	d	0	3	498642	261	d	629	499271												1	2	73				comp			450
1 ver1_main_procedure	32	1	22	<?xml version="1.0"?>\n<Clock xmlns:dt="urn:schemas-microsoft-com:datatypes"><Description dt:dt="string">E-Prime Primary Realtime Clock</Description><StartTime><Timestamp dt:dt="int">0</Timestamp><DateUtc dt:dt="string">2015-08-18T07:54:39Z</DateUtc></StartTime><FrequencyChanges><FrequencyChange><Frequency dt:dt="r8">2441386</Frequency><Timestamp dt:dt="r8">963012780</Timestamp><Current dt:dt="r8">0</Current><DateUtc dt:dt="string">2015-08-18T07:54:39Z</DateUtc></FrequencyChange></FrequencyChanges></Clock>\n	1 ver1_main_procedure-32-1	99.923	1.0.0.880	2	mm	963477960	prawa	1	2.0.10.356	08-18-2015	2015-08-18 07:54:39	09:54:39	kobieta	2.0.10.92	4	3	1	2																							d	{SPACE}		no	BlockProc1		BlockList									2	Free	dl	color_purple.png		0	10	502195	310																								25	prime_right.png	0	501555	0	0	13	0	501555	0	501555	1	501555	20	0	-1	500056	501555	501554	0		TrialProc1	left	0		0	10	501865	-501865		0	0	TrialList1	target_both.png	0	dl	0	3	501605	260	l	580	502185												9	2	74				incomp			300
1 ver1_main_procedure	32	1	22	<?xml version="1.0"?>\n<Clock xmlns:dt="urn:schemas-microsoft-com:datatypes"><Description dt:dt="string">E-Prime Primary Realtime Clock</Description><StartTime><Timestamp dt:dt="int">0</Timestamp><DateUtc dt:dt="string">2015-08-18T07:54:39Z</DateUtc></StartTime><FrequencyChanges><FrequencyChange><Frequency dt:dt="r8">2441386</Frequency><Timestamp dt:dt="r8">963012780</Timestamp><Current dt:dt="r8">0</Current><DateUtc dt:dt="string">2015-08-18T07:54:39Z</DateUtc></FrequencyChange></FrequencyChanges></Clock>\n	1 ver1_main_procedure-32-1	99.923	1.0.0.880	2	mm	963477960	prawa	1	2.0.10.356	08-18-2015	2015-08-18 07:54:39	09:54:39	kobieta	2.0.10.92	4	3	1	2																							d	{SPACE}		no	BlockProc1		BlockList									3	Cued	d	color_blue.png		0	11	504777	460																								75	prime_left.png	0	504317	0	0	13	0	504317	0	504317	1	504317	20	0	-1	502818	504317	504316	0		TrialProc1	left	0		0	10	504627	-504627		0	0	TrialList1	target_left.png	1	d	0	3	504367	260	d	399	504766												1	2	75				comp			450
1 ver1_main_procedure	32	1	22	<?xml version="1.0"?>\n<Clock xmlns:dt="urn:schemas-microsoft-com:datatypes"><Description dt:dt="string">E-Prime Primary Realtime Clock</Description><StartTime><Timestamp dt:dt="int">0</Timestamp><DateUtc dt:dt="string">2015-08-18T07:54:39Z</DateUtc></StartTime><FrequencyChanges><FrequencyChange><Frequency dt:dt="r8">2441386</Frequency><Timestamp dt:dt="r8">963012780</Timestamp><Current dt:dt="r8">0</Current><DateUtc dt:dt="string">2015-08-18T07:54:39Z</DateUtc></FrequencyChange></FrequencyChanges></Clock>\n	1 ver1_main_procedure-32-1	99.923	1.0.0.880	2	mm	963477960	prawa	1	2.0.10.356	08-18-2015	2015-08-18 07:54:39	09:54:39	kobieta	2.0.10.92	4	3	1	2																							d	{SPACE}		no	BlockProc1		BlockList									4	Cued	l	color_orange.png		0	5	507529	461																			2					75	prime_right.png	0	507049	0	0	13	0	507049	0	507049	1	507049	20	0	-1	505550	507049	507048	0	prime_right.png	TrialProc1	right	0		0	10	507359	-507359		0	0	TrialList1	target_right.png	1	l	0	3	507099	260	l	425	507524												5	2	76				neut			450
1 ver1_main_procedure	32	1	22	<?xml version="1.0"?>\n<Clock xmlns:dt="urn:schemas-microsoft-com:datatypes"><Description dt:dt="string">E-Prime Primary Realtime Clock</Description><StartTime><Timestamp dt:dt="int">0</Timestamp><DateUtc dt:dt="string">2015-08-18T07:54:39Z</DateUtc></StartTime><FrequencyChanges><FrequencyChange><Frequency dt:dt="r8">2441386</Frequency><Timestamp dt:dt="r8">963012780</Timestamp><Current dt:dt="r8">0</Current><DateUtc dt:dt="string">2015-08-18T07:54:39Z</DateUtc></FrequencyChange></FrequencyChanges></Clock>\n	1 ver1_main_procedure-32-1	99.923	1.0.0.880	2	mm	963477960	prawa	1	2.0.10.356	08-18-2015	2015-08-18 07:54:39	09:54:39	kobieta	2.0.10.92	4	3	1	2																							d	{SPACE}		no	BlockProc1		BlockList									5	Cued	d	color_red.png		0	13	510201	461																								75	prime_right.png	0	509801	0	0	13	0	509801	0	509801	1	509801	20	0	-1	508302	509801	509800	0		TrialProc1	left	0		0	10	510111	-510111		0	0	TrialList1	target_left.png	1	d	0	3	509851	260	d	337	510188												3	2	77				incomp			450
1 ver1_main_procedure	32	1	22	<?xml version="1.0"?>\n<Clock xmlns:dt="urn:schemas-microsoft-com:datatypes"><Description dt:dt="string">E-Prime Primary Realtime Clock</Description><StartTime><Timestamp dt:dt="int">0</Timestamp><DateUtc dt:dt="string">2015-08-18T07:54:39Z</DateUtc></StartTime><FrequencyChanges><FrequencyChange><Frequency dt:dt="r8">2441386</Frequency><Timestamp dt:dt="r8">963012780</Timestamp><Current dt:dt="r8">0</Current><DateUtc dt:dt="string">2015-08-18T07:54:39Z</DateUtc></FrequencyChange></FrequencyChanges></Clock>\n	1 ver1_main_procedure-32-1	99.923	1.0.0.880	2	mm	963477960	prawa	1	2.0.10.356	08-18-2015	2015-08-18 07:54:39	09:54:39	kobieta	2.0.10.92	4	3	1	2																							d	{SPACE}		no	BlockProc1		BlockList									6	Cued	l	color_orange.png		0	9	512883	461																			1					75	prime_left.png	0	512473	0	0	13	0	512473	0	512473	1	512473	20	0	-1	510974	512473	512472	0	prime_left.png	TrialProc1	right	0		0	10	512783	-512783		0	0	TrialList1	target_right.png	1	l	0	3	512523	260	l	351	512874												5	2	78				neut			450
1 ver1_main_procedure	32	1	22	<?xml version="1.0"?>\n<Clock xmlns:dt="urn:schemas-microsoft-com:datatypes"><Description dt:dt="string">E-Prime Primary Realtime Clock</Description><StartTime><Timestamp dt:dt="int">0</Timestamp><DateUtc dt:dt="string">2015-08-18T07:54:39Z</DateUtc></StartTime><FrequencyChanges><FrequencyChange><Frequency dt:dt="r8">2441386</Frequency><Timestamp dt:dt="r8">963012780</Timestamp><Current dt:dt="r8">0</Current><DateUtc dt:dt="string">2015-08-18T07:54:39Z</DateUtc></FrequencyChange></FrequencyChanges></Clock>\n	1 ver1_main_procedure-32-1	99.923	1.0.0.880	2	mm	963477960	prawa	1	2.0.10.356	08-18-2015	2015-08-18 07:54:39	09:54:39	kobieta	2.0.10.92	4	3	1	2																							d	{SPACE}		no	BlockProc1		BlockList									7	Free	dl	color_green.png		0	13	515725	461																			2					25	prime_right.png	0	515155	0	0	13	0	515155	0	515155	1	515155	20	0	-1	513656	515155	515154	0	prime_right.png	TrialProc1	right	0		0	10	515465	-515465		0	0	TrialList1	target_both.png	0	dl	0	3	515205	260	d	506	515711												11	2	79				neut			450
1 ver1_main_procedure	32	1	22	<?xml version="1.0"?>\n<Clock xmlns:dt="urn:schemas-microsoft-com:datatypes"><Description dt:dt="string">E-Prime Primary Realtime Clock</Description><StartTime><Timestamp dt:dt="int">0</Timestamp><DateUtc dt:dt="string">2015-08-18T07:54:39Z</DateUtc></StartTime><FrequencyChanges><FrequencyChange><Frequency dt:dt="r8">2441386</Frequency><Timestamp dt:dt="r8">963012780</Timestamp><Current dt:dt="r8">0</Current><DateUtc dt:dt="string">2015-08-18T07:54:39Z</DateUtc></FrequencyChange></FrequencyChanges></Clock>\n	1 ver1_main_procedure-32-1	99.923	1.0.0.880	2	mm	963477960	prawa	1	2.0.10.356	08-18-2015	2015-08-18 07:54:39	09:54:39	kobieta	2.0.10.92	4	3	1	2																							d	{SPACE}		no	BlockProc1		BlockList									8	Cued	d	color_green.png		0	7	518417	461																			1					25	prime_left.png	0	517997	0	0	13	0	517997	0	517997	1	517997	20	0	-1	516498	517997	517996	0	prime_left.png	TrialProc1	left	0		0	10	518307	-518307		0	0	TrialList1	target_left.png	1	d	0	3	518047	260	d	362	518409												2	2	80				neut			450
1 ver1_main_procedure	32	1	22	<?xml version="1.0"?>\n<Clock xmlns:dt="urn:schemas-microsoft-com:datatypes"><Description dt:dt="string">E-Prime Primary Realtime Clock</Description><StartTime><Timestamp dt:dt="int">0</Timestamp><DateUtc dt:dt="string">2015-08-18T07:54:39Z</DateUtc></StartTime><FrequencyChanges><FrequencyChange><Frequency dt:dt="r8">2441386</Frequency><Timestamp dt:dt="r8">963012780</Timestamp><Current dt:dt="r8">0</Current><DateUtc dt:dt="string">2015-08-18T07:54:39Z</DateUtc></FrequencyChange></FrequencyChanges></Clock>\n	1 ver1_main_procedure-32-1	99.923	1.0.0.880	2	mm	963477960	prawa	1	2.0.10.356	08-18-2015	2015-08-18 07:54:39	09:54:39	kobieta	2.0.10.92	4	3	1	2																							d	{SPACE}		no	BlockProc1		BlockList									9	Free	dl	color_orange.png		0	9	521290	460																			2					75	prime_right.png	0	520689	0	0	13	0	520689	0	520689	1	520689	20	0	-1	519190	520689	520688	0	prime_right.png	TrialProc1	left	0		0	10	520999	-520999		0	0	TrialList1	target_both.png	0	dl	0	3	520739	260	l	542	521281												8	2	81				neut			450
1 ver1_main_procedure	32	1	22	<?xml version="1.0"?>\n<Clock xmlns:dt="urn:schemas-microsoft-com:datatypes"><Description dt:dt="string">E-Prime Primary Realtime Clock</Description><StartTime><Timestamp dt:dt="int">0</Timestamp><DateUtc dt:dt="string">2015-08-18T07:54:39Z</DateUtc></StartTime><FrequencyChanges><FrequencyChange><Frequency dt:dt="r8">2441386</Frequency><Timestamp dt:dt="r8">963012780</Timestamp><Current dt:dt="r8">0</Current><DateUtc dt:dt="string">2015-08-18T07:54:39Z</DateUtc></FrequencyChange></FrequencyChanges></Clock>\n	1 ver1_main_procedure-32-1	99.923	1.0.0.880	2	mm	963477960	prawa	1	2.0.10.356	08-18-2015	2015-08-18 07:54:39	09:54:39	kobieta	2.0.10.92	4	3	1	2																							d	{SPACE}		no	BlockProc1		BlockList									10	Cued	l	color_orange.png		0	11	524052	460																			1					75	prime_left.png	0	523561	0	0	13	0	523562	0	523561	1	523561	20	0	-1	522062	523561	523560	0	prime_left.png	TrialProc1	right	0		0	11	523872	-523872		0	0	TrialList1	target_right.png	1	l	0	3	523611	261	l	429	524040												5	2	82				neut			450
