ExperimentName	Subject	Session	Age	Clock.Information	DataFile.Basename	Display.RefreshRate	ExperimentVersion	Group	Name	RandomSeed	Recznosc	ResearcherID	RuntimeVersion	SessionDate	SessionStartDateTimeUtc	SessionTime	Sex	StudioVersion	Block	BlockList	BlockList.Cycle	BlockList.Sample	BlockNumber	GoodBye.RESP	GoodBye2.RESP	GoodByeList	GoodByeList.Cycle	GoodByeList.Sample	InstrList	InstrList.Cycle	InstrList.Sample	Instructions3.RESP	Instructions4.RESP	Instructions5.RESP	kobieta_S1	kobieta_S2	kobieta_S3	kobieta_S4	kobieta_S5	mezczyzna_S1	mezczyzna_S2	mezczyzna_S3	mezczyzna_S4	mezczyzna_S5	NextBlock.RESP	NextBlock0.RESP	planowanie	PracticeMode	Procedure[Block]	proszenie	Running[Block]	TrainingList	TrainingList.Cycle	TrainingList.Sample	WordList	WordList1	wykonanie	zauwazenie	zrozumienie	Trial	ChoiceType	CorrectRespon	Effect	ErrorText	Fixation2.DurationError	Fixation2.OnsetDelay	Fixation2.OnsetTime	Fixation2.OnsetToOnsetTime	GoalRespInd1	GoalRespInd2	GoalRespInd3	GoalRespInd4	GoalRespInd5	GoalRespInd6	GoalRespName1	GoalRespName2	GoalRespName3	GoalRespName4	GoalRespName5	GoalRespName6	kol1	kol2	kol3	kol4	kol5	kol6	NeutralPrimeList1	Ocena	Ocena.Cycle	Ocena.Sample	OverallRT	Posit	Prime	Prime.ActionDelay	Prime.ActionTime	Prime.CustomOffsetTime	Prime.CustomOnsetTime	Prime.Duration	Prime.DurationError	Prime.FinishTime	Prime.OffsetDelay	Prime.OffsetTime	Prime.OnsetDelay	Prime.OnsetTime	Prime.OnsetToOnsetTime	Prime.PendingInputMasks	Prime.PreRelease	Prime.StartTime	Prime.TargetOffsetTime	Prime.TargetOnsetTime	Prime.TimingMode	PrimeChoice	Procedure[Trial]	Resp	RespWin.ACC	RespWin.CRESP	RespWin.DurationError	RespWin.OnsetDelay	RespWin.OnsetTime	RespWin.OnsetToOnsetTime	RespWin.RESP	RespWin.RT	RespWin.RTTime	Running[Trial]	Target	TargetSlide.ACC	TargetSlide.CRESP	TargetSlide.DurationError	TargetSlide.OnsetDelay	TargetSlide.OnsetTime	TargetSlide.OnsetToOnsetTime	TargetSlide.RESP	TargetSlide.RT	TargetSlide.RTTime	TargetTraining	TBox1	TBox2	TBox3	TBox4	TBox5	TBox6	TrainingList1	TrainingList1.Cycle	TrainingList1.Sample	TrCorrectResp	TrialList1	TrialList1.Cycle	TrialList1.Sample	TrialList2	TrialList2.Cycle	TrialList2.Sample	TrialType	TrPosit	TrWaitTime	WaitTime
1 ver1_main_procedure	33	1	31	<?xml version="1.0"?>\n<Clock xmlns:dt="urn:schemas-microsoft-com:datatypes"><Description dt:dt="string">E-Prime Primary Realtime Clock</Description><StartTime><Timestamp dt:dt="int">0</Timestamp><DateUtc dt:dt="string">2015-08-15T13:23:14Z</DateUtc></StartTime><FrequencyChanges><FrequencyChange><Frequency dt:dt="r8">2612314</Frequency><Timestamp dt:dt="r8">972023828</Timestamp><Current dt:dt="r8">0</Current><DateUtc dt:dt="string">2015-08-15T13:23:14Z</DateUtc></FrequencyChange></FrequencyChanges></Clock>\n	1 ver1_main_procedure-33-1	99.935	1.0.0.880	1	MD	972547283	prawa	1	2.0.10.182	08-15-2015	2015-08-15 13:23:14	15:23:14	kobieta	2.0.10.92	1										1	1	1	{SPACE}	{SPACE}	l	poproszona	planowała	zrozumiałaś	wykonała		poproszony	planował	zrozumiałeś	wykonał				planowała		InstrProc	poproszona	InstrList				1		wykonała		zrozumiałaś																																																																																																
1 ver1_main_procedure	33	1	31	<?xml version="1.0"?>\n<Clock xmlns:dt="urn:schemas-microsoft-com:datatypes"><Description dt:dt="string">E-Prime Primary Realtime Clock</Description><StartTime><Timestamp dt:dt="int">0</Timestamp><DateUtc dt:dt="string">2015-08-15T13:23:14Z</DateUtc></StartTime><FrequencyChanges><FrequencyChange><Frequency dt:dt="r8">2612314</Frequency><Timestamp dt:dt="r8">972023828</Timestamp><Current dt:dt="r8">0</Current><DateUtc dt:dt="string">2015-08-15T13:23:14Z</DateUtc></FrequencyChange></FrequencyChanges></Clock>\n	1 ver1_main_procedure-33-1	99.935	1.0.0.880	1	MD	972547283	prawa	1	2.0.10.182	08-15-2015	2015-08-15 13:23:14	15:23:14	kobieta	2.0.10.92	2																														TrainingProc1		TrainingList	1	1	1						1																																																					TrainProc											TrainingList1											target_both.png							3	1	1	dl								75	450	
1 ver1_main_procedure	33	1	31	<?xml version="1.0"?>\n<Clock xmlns:dt="urn:schemas-microsoft-com:datatypes"><Description dt:dt="string">E-Prime Primary Realtime Clock</Description><StartTime><Timestamp dt:dt="int">0</Timestamp><DateUtc dt:dt="string">2015-08-15T13:23:14Z</DateUtc></StartTime><FrequencyChanges><FrequencyChange><Frequency dt:dt="r8">2612314</Frequency><Timestamp dt:dt="r8">972023828</Timestamp><Current dt:dt="r8">0</Current><DateUtc dt:dt="string">2015-08-15T13:23:14Z</DateUtc></FrequencyChange></FrequencyChanges></Clock>\n	1 ver1_main_procedure-33-1	99.935	1.0.0.880	1	MD	972547283	prawa	1	2.0.10.182	08-15-2015	2015-08-15 13:23:14	15:23:14	kobieta	2.0.10.92	2																														TrainingProc1		TrainingList	1	1	1						2																																																					TrainProc											TrainingList1											target_left.png							1	1	2	d								75	450	
1 ver1_main_procedure	33	1	31	<?xml version="1.0"?>\n<Clock xmlns:dt="urn:schemas-microsoft-com:datatypes"><Description dt:dt="string">E-Prime Primary Realtime Clock</Description><StartTime><Timestamp dt:dt="int">0</Timestamp><DateUtc dt:dt="string">2015-08-15T13:23:14Z</DateUtc></StartTime><FrequencyChanges><FrequencyChange><Frequency dt:dt="r8">2612314</Frequency><Timestamp dt:dt="r8">972023828</Timestamp><Current dt:dt="r8">0</Current><DateUtc dt:dt="string">2015-08-15T13:23:14Z</DateUtc></FrequencyChange></FrequencyChanges></Clock>\n	1 ver1_main_procedure-33-1	99.935	1.0.0.880	1	MD	972547283	prawa	1	2.0.10.182	08-15-2015	2015-08-15 13:23:14	15:23:14	kobieta	2.0.10.92	2																														TrainingProc1		TrainingList	1	1	1						3																																																					TrainProc											TrainingList1											target_right.png							2	1	3	l								75	300	
1 ver1_main_procedure	33	1	31	<?xml version="1.0"?>\n<Clock xmlns:dt="urn:schemas-microsoft-com:datatypes"><Description dt:dt="string">E-Prime Primary Realtime Clock</Description><StartTime><Timestamp dt:dt="int">0</Timestamp><DateUtc dt:dt="string">2015-08-15T13:23:14Z</DateUtc></StartTime><FrequencyChanges><FrequencyChange><Frequency dt:dt="r8">2612314</Frequency><Timestamp dt:dt="r8">972023828</Timestamp><Current dt:dt="r8">0</Current><DateUtc dt:dt="string">2015-08-15T13:23:14Z</DateUtc></FrequencyChange></FrequencyChanges></Clock>\n	1 ver1_main_procedure-33-1	99.935	1.0.0.880	1	MD	972547283	prawa	1	2.0.10.182	08-15-2015	2015-08-15 13:23:14	15:23:14	kobieta	2.0.10.92	2																														TrainingProc1		TrainingList	1	1	1						4																																																					TrainProc											TrainingList1											target_right.png							2	1	4	l								75	300	
1 ver1_main_procedure	33	1	31	<?xml version="1.0"?>\n<Clock xmlns:dt="urn:schemas-microsoft-com:datatypes"><Description dt:dt="string">E-Prime Primary Realtime Clock</Description><StartTime><Timestamp dt:dt="int">0</Timestamp><DateUtc dt:dt="string">2015-08-15T13:23:14Z</DateUtc></StartTime><FrequencyChanges><FrequencyChange><Frequency dt:dt="r8">2612314</Frequency><Timestamp dt:dt="r8">972023828</Timestamp><Current dt:dt="r8">0</Current><DateUtc dt:dt="string">2015-08-15T13:23:14Z</DateUtc></FrequencyChange></FrequencyChanges></Clock>\n	1 ver1_main_procedure-33-1	99.935	1.0.0.880	1	MD	972547283	prawa	1	2.0.10.182	08-15-2015	2015-08-15 13:23:14	15:23:14	kobieta	2.0.10.92	2																														TrainingProc1		TrainingList	1	1	1						5																																																					TrainProc											TrainingList1											target_left.png							1	1	5	d								25	450	
1 ver1_main_procedure	33	1	31	<?xml version="1.0"?>\n<Clock xmlns:dt="urn:schemas-microsoft-com:datatypes"><Description dt:dt="string">E-Prime Primary Realtime Clock</Description><StartTime><Timestamp dt:dt="int">0</Timestamp><DateUtc dt:dt="string">2015-08-15T13:23:14Z</DateUtc></StartTime><FrequencyChanges><FrequencyChange><Frequency dt:dt="r8">2612314</Frequency><Timestamp dt:dt="r8">972023828</Timestamp><Current dt:dt="r8">0</Current><DateUtc dt:dt="string">2015-08-15T13:23:14Z</DateUtc></FrequencyChange></FrequencyChanges></Clock>\n	1 ver1_main_procedure-33-1	99.935	1.0.0.880	1	MD	972547283	prawa	1	2.0.10.182	08-15-2015	2015-08-15 13:23:14	15:23:14	kobieta	2.0.10.92	2																														TrainingProc1		TrainingList	1	1	1						6																																																					TrainProc											TrainingList1											target_both.png							3	1	6	dl								75	150	
1 ver1_main_procedure	33	1	31	<?xml version="1.0"?>\n<Clock xmlns:dt="urn:schemas-microsoft-com:datatypes"><Description dt:dt="string">E-Prime Primary Realtime Clock</Description><StartTime><Timestamp dt:dt="int">0</Timestamp><DateUtc dt:dt="string">2015-08-15T13:23:14Z</DateUtc></StartTime><FrequencyChanges><FrequencyChange><Frequency dt:dt="r8">2612314</Frequency><Timestamp dt:dt="r8">972023828</Timestamp><Current dt:dt="r8">0</Current><DateUtc dt:dt="string">2015-08-15T13:23:14Z</DateUtc></FrequencyChange></FrequencyChanges></Clock>\n	1 ver1_main_procedure-33-1	99.935	1.0.0.880	1	MD	972547283	prawa	1	2.0.10.182	08-15-2015	2015-08-15 13:23:14	15:23:14	kobieta	2.0.10.92	2																														TrainingProc1		TrainingList	1	1	1						7																																																					TrainProc											TrainingList1											target_left.png							1	1	7	d								25	300	
1 ver1_main_procedure	33	1	31	<?xml version="1.0"?>\n<Clock xmlns:dt="urn:schemas-microsoft-com:datatypes"><Description dt:dt="string">E-Prime Primary Realtime Clock</Description><StartTime><Timestamp dt:dt="int">0</Timestamp><DateUtc dt:dt="string">2015-08-15T13:23:14Z</DateUtc></StartTime><FrequencyChanges><FrequencyChange><Frequency dt:dt="r8">2612314</Frequency><Timestamp dt:dt="r8">972023828</Timestamp><Current dt:dt="r8">0</Current><DateUtc dt:dt="string">2015-08-15T13:23:14Z</DateUtc></FrequencyChange></FrequencyChanges></Clock>\n	1 ver1_main_procedure-33-1	99.935	1.0.0.880	1	MD	972547283	prawa	1	2.0.10.182	08-15-2015	2015-08-15 13:23:14	15:23:14	kobieta	2.0.10.92	2																														TrainingProc1		TrainingList	1	1	1						8																																																					TrainProc											TrainingList1											target_both.png							3	1	8	dl								25	450	
1 ver1_main_procedure	33	1	31	<?xml version="1.0"?>\n<Clock xmlns:dt="urn:schemas-microsoft-com:datatypes"><Description dt:dt="string">E-Prime Primary Realtime Clock</Description><StartTime><Timestamp dt:dt="int">0</Timestamp><DateUtc dt:dt="string">2015-08-15T13:23:14Z</DateUtc></StartTime><FrequencyChanges><FrequencyChange><Frequency dt:dt="r8">2612314</Frequency><Timestamp dt:dt="r8">972023828</Timestamp><Current dt:dt="r8">0</Current><DateUtc dt:dt="string">2015-08-15T13:23:14Z</DateUtc></FrequencyChange></FrequencyChanges></Clock>\n	1 ver1_main_procedure-33-1	99.935	1.0.0.880	1	MD	972547283	prawa	1	2.0.10.182	08-15-2015	2015-08-15 13:23:14	15:23:14	kobieta	2.0.10.92	2																														TrainingProc1		TrainingList	1	1	1						9																																																					TrainProc											TrainingList1											target_right.png							2	1	9	l								75	150	
1 ver1_main_procedure	33	1	31	<?xml version="1.0"?>\n<Clock xmlns:dt="urn:schemas-microsoft-com:datatypes"><Description dt:dt="string">E-Prime Primary Realtime Clock</Description><StartTime><Timestamp dt:dt="int">0</Timestamp><DateUtc dt:dt="string">2015-08-15T13:23:14Z</DateUtc></StartTime><FrequencyChanges><FrequencyChange><Frequency dt:dt="r8">2612314</Frequency><Timestamp dt:dt="r8">972023828</Timestamp><Current dt:dt="r8">0</Current><DateUtc dt:dt="string">2015-08-15T13:23:14Z</DateUtc></FrequencyChange></FrequencyChanges></Clock>\n	1 ver1_main_procedure-33-1	99.935	1.0.0.880	1	MD	972547283	prawa	1	2.0.10.182	08-15-2015	2015-08-15 13:23:14	15:23:14	kobieta	2.0.10.92	3	5	1	1																							d	{SPACE}		no	BlockProc2		BlockList									1	Free	dl	color_purple.png		-1	8	273529	310																			1					25	prime_left.png	0	272648	0	0	13	0	272648	0	272648	1	272648	20	0	-1	271149	272648	272647	0	prime_left.png	TrialProc1	left	0		0	20	272968	-272968		0	0	TrialList2	target_both.png	0	dl	-1	3	272698	270	l	822	273520															8	1	1	neut			300
1 ver1_main_procedure	33	1	31	<?xml version="1.0"?>\n<Clock xmlns:dt="urn:schemas-microsoft-com:datatypes"><Description dt:dt="string">E-Prime Primary Realtime Clock</Description><StartTime><Timestamp dt:dt="int">0</Timestamp><DateUtc dt:dt="string">2015-08-15T13:23:14Z</DateUtc></StartTime><FrequencyChanges><FrequencyChange><Frequency dt:dt="r8">2612314</Frequency><Timestamp dt:dt="r8">972023828</Timestamp><Current dt:dt="r8">0</Current><DateUtc dt:dt="string">2015-08-15T13:23:14Z</DateUtc></FrequencyChange></FrequencyChanges></Clock>\n	1 ver1_main_procedure-33-1	99.935	1.0.0.880	1	MD	972547283	prawa	1	2.0.10.182	08-15-2015	2015-08-15 13:23:14	15:23:14	kobieta	2.0.10.92	3	5	1	1																							d	{SPACE}		no	BlockProc2		BlockList									2	Free	dl	color_blue.png		-1	6	276390	160																								75	prime_left.png	0	275650	0	0	13	0	275650	0	275650	1	275650	20	0	-1	274151	275650	275649	0		TrialProc1	right	0		0	10	275960	-275960		0	0	TrialList2	target_both.png	0	dl	-1	3	275700	260	l	684	276384															12	1	2	incomp			150
1 ver1_main_procedure	33	1	31	<?xml version="1.0"?>\n<Clock xmlns:dt="urn:schemas-microsoft-com:datatypes"><Description dt:dt="string">E-Prime Primary Realtime Clock</Description><StartTime><Timestamp dt:dt="int">0</Timestamp><DateUtc dt:dt="string">2015-08-15T13:23:14Z</DateUtc></StartTime><FrequencyChanges><FrequencyChange><Frequency dt:dt="r8">2612314</Frequency><Timestamp dt:dt="r8">972023828</Timestamp><Current dt:dt="r8">0</Current><DateUtc dt:dt="string">2015-08-15T13:23:14Z</DateUtc></FrequencyChange></FrequencyChanges></Clock>\n	1 ver1_main_procedure-33-1	99.935	1.0.0.880	1	MD	972547283	prawa	1	2.0.10.182	08-15-2015	2015-08-15 13:23:14	15:23:14	kobieta	2.0.10.92	3	5	1	1																							d	{SPACE}		no	BlockProc2		BlockList									3	Free	dl	color_blue.png		-1	13	279102	460																								25	prime_left.png	1	278362	0	0	13	1	278362	1	278362	0	278361	20	0	-1	276862	278361	278361	0		TrialProc1	right	0		0	11	278672	-278672		0	0	TrialList2	target_both.png	0	dl	-1	3	278411	261	l	677	279088															12	1	3	incomp			450
1 ver1_main_procedure	33	1	31	<?xml version="1.0"?>\n<Clock xmlns:dt="urn:schemas-microsoft-com:datatypes"><Description dt:dt="string">E-Prime Primary Realtime Clock</Description><StartTime><Timestamp dt:dt="int">0</Timestamp><DateUtc dt:dt="string">2015-08-15T13:23:14Z</DateUtc></StartTime><FrequencyChanges><FrequencyChange><Frequency dt:dt="r8">2612314</Frequency><Timestamp dt:dt="r8">972023828</Timestamp><Current dt:dt="r8">0</Current><DateUtc dt:dt="string">2015-08-15T13:23:14Z</DateUtc></FrequencyChange></FrequencyChanges></Clock>\n	1 ver1_main_procedure-33-1	99.935	1.0.0.880	1	MD	972547283	prawa	1	2.0.10.182	08-15-2015	2015-08-15 13:23:14	15:23:14	kobieta	2.0.10.92	3	5	1	1																							d	{SPACE}		no	BlockProc2		BlockList									4	Free	dl	color_orange.png		-1	6	281863	461																								25	prime_right.png	0	281373	0	0	13	0	281373	0	281373	1	281373	20	0	-1	279874	281373	281372	0		TrialProc1	right	0		1	10	281683	-281683		0	0	TrialList2	target_both.png	0	dl	-1	3	281423	260	l	433	281856															10	1	4	comp			450
1 ver1_main_procedure	33	1	31	<?xml version="1.0"?>\n<Clock xmlns:dt="urn:schemas-microsoft-com:datatypes"><Description dt:dt="string">E-Prime Primary Realtime Clock</Description><StartTime><Timestamp dt:dt="int">0</Timestamp><DateUtc dt:dt="string">2015-08-15T13:23:14Z</DateUtc></StartTime><FrequencyChanges><FrequencyChange><Frequency dt:dt="r8">2612314</Frequency><Timestamp dt:dt="r8">972023828</Timestamp><Current dt:dt="r8">0</Current><DateUtc dt:dt="string">2015-08-15T13:23:14Z</DateUtc></FrequencyChange></FrequencyChanges></Clock>\n	1 ver1_main_procedure-33-1	99.935	1.0.0.880	1	MD	972547283	prawa	1	2.0.10.182	08-15-2015	2015-08-15 13:23:14	15:23:14	kobieta	2.0.10.92	3	5	1	1																							d	{SPACE}		no	BlockProc2		BlockList									5	Free	dl	color_purple.png		-1	12	285085	311																			2					75	prime_right.png	0	284135	0	0	13	0	284135	0	284135	1	284135	20	0	-1	282636	284135	284134	0	prime_right.png	TrialProc1	left	0		0	10	284445	-284445		0	0	TrialList2	target_both.png	0	dl	-1	3	284185	260	l	887	285072															8	1	5	neut			300
1 ver1_main_procedure	33	1	31	<?xml version="1.0"?>\n<Clock xmlns:dt="urn:schemas-microsoft-com:datatypes"><Description dt:dt="string">E-Prime Primary Realtime Clock</Description><StartTime><Timestamp dt:dt="int">0</Timestamp><DateUtc dt:dt="string">2015-08-15T13:23:14Z</DateUtc></StartTime><FrequencyChanges><FrequencyChange><Frequency dt:dt="r8">2612314</Frequency><Timestamp dt:dt="r8">972023828</Timestamp><Current dt:dt="r8">0</Current><DateUtc dt:dt="string">2015-08-15T13:23:14Z</DateUtc></FrequencyChange></FrequencyChanges></Clock>\n	1 ver1_main_procedure-33-1	99.935	1.0.0.880	1	MD	972547283	prawa	1	2.0.10.182	08-15-2015	2015-08-15 13:23:14	15:23:14	kobieta	2.0.10.92	3	5	1	1																							d	{SPACE}		no	BlockProc2		BlockList									6	Free	dl	color_orange.png		-1	6	287727	460																								25	prime_right.png	0	287207	0	0	13	0	287207	0	287207	1	287207	20	0	-1	285708	287207	287206	0		TrialProc1	right	0		0	10	287517	-287517		0	0	TrialList2	target_both.png	0	dl	-1	3	287257	260	l	463	287720															10	1	6	comp			450
1 ver1_main_procedure	33	1	31	<?xml version="1.0"?>\n<Clock xmlns:dt="urn:schemas-microsoft-com:datatypes"><Description dt:dt="string">E-Prime Primary Realtime Clock</Description><StartTime><Timestamp dt:dt="int">0</Timestamp><DateUtc dt:dt="string">2015-08-15T13:23:14Z</DateUtc></StartTime><FrequencyChanges><FrequencyChange><Frequency dt:dt="r8">2612314</Frequency><Timestamp dt:dt="r8">972023828</Timestamp><Current dt:dt="r8">0</Current><DateUtc dt:dt="string">2015-08-15T13:23:14Z</DateUtc></FrequencyChange></FrequencyChanges></Clock>\n	1 ver1_main_procedure-33-1	99.935	1.0.0.880	1	MD	972547283	prawa	1	2.0.10.182	08-15-2015	2015-08-15 13:23:14	15:23:14	kobieta	2.0.10.92	3	5	1	1																							d	{SPACE}		no	BlockProc2		BlockList									7	Free	dl	color_purple.png		-1	14	290479	460																			1					25	prime_left.png	0	289998	0	0	13	0	289998	0	289998	1	289998	20	0	-1	288499	289998	289997	0	prime_left.png	TrialProc1	left	0		1	10	290308	-290308		0	0	TrialList2	target_both.png	0	dl	-1	3	290048	260	l	416	290464															8	1	7	neut			450
1 ver1_main_procedure	33	1	31	<?xml version="1.0"?>\n<Clock xmlns:dt="urn:schemas-microsoft-com:datatypes"><Description dt:dt="string">E-Prime Primary Realtime Clock</Description><StartTime><Timestamp dt:dt="int">0</Timestamp><DateUtc dt:dt="string">2015-08-15T13:23:14Z</DateUtc></StartTime><FrequencyChanges><FrequencyChange><Frequency dt:dt="r8">2612314</Frequency><Timestamp dt:dt="r8">972023828</Timestamp><Current dt:dt="r8">0</Current><DateUtc dt:dt="string">2015-08-15T13:23:14Z</DateUtc></FrequencyChange></FrequencyChanges></Clock>\n	1 ver1_main_procedure-33-1	99.935	1.0.0.880	1	MD	972547283	prawa	1	2.0.10.182	08-15-2015	2015-08-15 13:23:14	15:23:14	kobieta	2.0.10.92	3	5	1	1																							d	{SPACE}		no	BlockProc2		BlockList									8	Free	dl	color_orange.png		-1	11	293260	160																								75	prime_right.png	0	292750	0	0	13	0	292750	0	292750	1	292750	20	0	-1	291251	292750	292749	0		TrialProc1	right	0		0	10	293060	-293060		0	0	TrialList2	target_both.png	0	dl	-1	3	292800	260	l	448	293248															10	1	8	comp			150
1 ver1_main_procedure	33	1	31	<?xml version="1.0"?>\n<Clock xmlns:dt="urn:schemas-microsoft-com:datatypes"><Description dt:dt="string">E-Prime Primary Realtime Clock</Description><StartTime><Timestamp dt:dt="int">0</Timestamp><DateUtc dt:dt="string">2015-08-15T13:23:14Z</DateUtc></StartTime><FrequencyChanges><FrequencyChange><Frequency dt:dt="r8">2612314</Frequency><Timestamp dt:dt="r8">972023828</Timestamp><Current dt:dt="r8">0</Current><DateUtc dt:dt="string">2015-08-15T13:23:14Z</DateUtc></FrequencyChange></FrequencyChanges></Clock>\n	1 ver1_main_procedure-33-1	99.935	1.0.0.880	1	MD	972547283	prawa	1	2.0.10.182	08-15-2015	2015-08-15 13:23:14	15:23:14	kobieta	2.0.10.92	3	5	1	1																							d	{SPACE}		no	BlockProc2		BlockList									9	Free	dl	color_purple.png		-1	7	295672	310																			2					25	prime_right.png	0	295231	0	0	13	1	295232	1	295232	1	295231	20	0	-1	293732	295231	295230	0	prime_right.png	TrialProc1	left	0		0	11	295542	-295542		0	0	TrialList2	target_both.png	0	dl	-1	3	295281	261	l	383	295664															8	1	9	neut			300
1 ver1_main_procedure	33	1	31	<?xml version="1.0"?>\n<Clock xmlns:dt="urn:schemas-microsoft-com:datatypes"><Description dt:dt="string">E-Prime Primary Realtime Clock</Description><StartTime><Timestamp dt:dt="int">0</Timestamp><DateUtc dt:dt="string">2015-08-15T13:23:14Z</DateUtc></StartTime><FrequencyChanges><FrequencyChange><Frequency dt:dt="r8">2612314</Frequency><Timestamp dt:dt="r8">972023828</Timestamp><Current dt:dt="r8">0</Current><DateUtc dt:dt="string">2015-08-15T13:23:14Z</DateUtc></FrequencyChange></FrequencyChanges></Clock>\n	1 ver1_main_procedure-33-1	99.935	1.0.0.880	1	MD	972547283	prawa	1	2.0.10.182	08-15-2015	2015-08-15 13:23:14	15:23:14	kobieta	2.0.10.92	3	5	1	1																							d	{SPACE}		no	BlockProc2		BlockList									10	Free	dl	color_orange.png		-1	6	298503	461																								25	prime_right.png	0	297793	0	0	13	0	297793	0	297793	1	297793	20	0	-1	296294	297793	297792	0		TrialProc1	left	0		0	10	298103	-298103		0	0	TrialList2	target_both.png	0	dl	-1	3	297843	260	l	653	298496															9	1	10	incomp			450
1 ver1_main_procedure	33	1	31	<?xml version="1.0"?>\n<Clock xmlns:dt="urn:schemas-microsoft-com:datatypes"><Description dt:dt="string">E-Prime Primary Realtime Clock</Description><StartTime><Timestamp dt:dt="int">0</Timestamp><DateUtc dt:dt="string">2015-08-15T13:23:14Z</DateUtc></StartTime><FrequencyChanges><FrequencyChange><Frequency dt:dt="r8">2612314</Frequency><Timestamp dt:dt="r8">972023828</Timestamp><Current dt:dt="r8">0</Current><DateUtc dt:dt="string">2015-08-15T13:23:14Z</DateUtc></FrequencyChange></FrequencyChanges></Clock>\n	1 ver1_main_procedure-33-1	99.935	1.0.0.880	1	MD	972547283	prawa	1	2.0.10.182	08-15-2015	2015-08-15 13:23:14	15:23:14	kobieta	2.0.10.92	3	5	1	1																							d	{SPACE}		no	BlockProc2		BlockList									11	Free	dl	color_blue.png		-1	8	301185	310																								25	prime_left.png	0	300775	0	0	13	0	300775	0	300775	1	300775	20	0	-1	299276	300775	300774	0		TrialProc1	left	0		0	10	301085	-301085		0	0	TrialList2	target_both.png	0	dl	-1	3	300825	260	l	351	301176															7	1	11	comp			300
1 ver1_main_procedure	33	1	31	<?xml version="1.0"?>\n<Clock xmlns:dt="urn:schemas-microsoft-com:datatypes"><Description dt:dt="string">E-Prime Primary Realtime Clock</Description><StartTime><Timestamp dt:dt="int">0</Timestamp><DateUtc dt:dt="string">2015-08-15T13:23:14Z</DateUtc></StartTime><FrequencyChanges><FrequencyChange><Frequency dt:dt="r8">2612314</Frequency><Timestamp dt:dt="r8">972023828</Timestamp><Current dt:dt="r8">0</Current><DateUtc dt:dt="string">2015-08-15T13:23:14Z</DateUtc></FrequencyChange></FrequencyChanges></Clock>\n	1 ver1_main_procedure-33-1	99.935	1.0.0.880	1	MD	972547283	prawa	1	2.0.10.182	08-15-2015	2015-08-15 13:23:14	15:23:14	kobieta	2.0.10.92	3	5	1	1																							d	{SPACE}		no	BlockProc2		BlockList									12	Free	dl	color_purple.png		-1	9	303706	311																			1					25	prime_left.png	0	303306	0	0	13	0	303306	0	303306	1	303306	20	0	-1	301807	303306	303305	0	prime_left.png	TrialProc1	left	0		1	10	303616	-303616		0	0	TrialList2	target_both.png	0	dl	-1	3	303356	260	l	340	303696															8	1	12	neut			300
1 ver1_main_procedure	33	1	31	<?xml version="1.0"?>\n<Clock xmlns:dt="urn:schemas-microsoft-com:datatypes"><Description dt:dt="string">E-Prime Primary Realtime Clock</Description><StartTime><Timestamp dt:dt="int">0</Timestamp><DateUtc dt:dt="string">2015-08-15T13:23:14Z</DateUtc></StartTime><FrequencyChanges><FrequencyChange><Frequency dt:dt="r8">2612314</Frequency><Timestamp dt:dt="r8">972023828</Timestamp><Current dt:dt="r8">0</Current><DateUtc dt:dt="string">2015-08-15T13:23:14Z</DateUtc></FrequencyChange></FrequencyChanges></Clock>\n	1 ver1_main_procedure-33-1	99.935	1.0.0.880	1	MD	972547283	prawa	1	2.0.10.182	08-15-2015	2015-08-15 13:23:14	15:23:14	kobieta	2.0.10.92	3	5	1	1																							d	{SPACE}		no	BlockProc2		BlockList									13	Cued	d	color_red.png		-1	13	306478	460																			2					75	prime_right.png	0	305828	0	0	13	0	305828	0	305828	1	305828	20	0	-1	304329	305828	305827	0	prime_right.png	TrialProc1	left	0		0	10	306138	-306138		0	0	TrialList2	target_left.png	1	d	-1	3	305878	260	d	586	306464															2	1	13	neut			450
1 ver1_main_procedure	33	1	31	<?xml version="1.0"?>\n<Clock xmlns:dt="urn:schemas-microsoft-com:datatypes"><Description dt:dt="string">E-Prime Primary Realtime Clock</Description><StartTime><Timestamp dt:dt="int">0</Timestamp><DateUtc dt:dt="string">2015-08-15T13:23:14Z</DateUtc></StartTime><FrequencyChanges><FrequencyChange><Frequency dt:dt="r8">2612314</Frequency><Timestamp dt:dt="r8">972023828</Timestamp><Current dt:dt="r8">0</Current><DateUtc dt:dt="string">2015-08-15T13:23:14Z</DateUtc></FrequencyChange></FrequencyChanges></Clock>\n	1 ver1_main_procedure-33-1	99.935	1.0.0.880	1	MD	972547283	prawa	1	2.0.10.182	08-15-2015	2015-08-15 13:23:14	15:23:14	kobieta	2.0.10.92	3	5	1	1																							d	{SPACE}		no	BlockProc2		BlockList									14	Free	dl	color_blue.png		-1	13	309510	310																								75	prime_left.png	0	308749	0	0	13	1	308750	1	308750	0	308749	20	0	-1	307251	308749	308749	0		TrialProc1	left	0		0	11	309060	-309060		0	0	TrialList2	target_both.png	0	dl	-1	3	308799	261	l	697	309496															7	1	14	comp			300
1 ver1_main_procedure	33	1	31	<?xml version="1.0"?>\n<Clock xmlns:dt="urn:schemas-microsoft-com:datatypes"><Description dt:dt="string">E-Prime Primary Realtime Clock</Description><StartTime><Timestamp dt:dt="int">0</Timestamp><DateUtc dt:dt="string">2015-08-15T13:23:14Z</DateUtc></StartTime><FrequencyChanges><FrequencyChange><Frequency dt:dt="r8">2612314</Frequency><Timestamp dt:dt="r8">972023828</Timestamp><Current dt:dt="r8">0</Current><DateUtc dt:dt="string">2015-08-15T13:23:14Z</DateUtc></FrequencyChange></FrequencyChanges></Clock>\n	1 ver1_main_procedure-33-1	99.935	1.0.0.880	1	MD	972547283	prawa	1	2.0.10.182	08-15-2015	2015-08-15 13:23:14	15:23:14	kobieta	2.0.10.92	3	5	1	1																							d	{SPACE}		no	BlockProc2		BlockList									15	Free	dl	color_purple.png		-1	12	312261	461																			1					25	prime_left.png	0	311631	0	0	13	0	311631	0	311631	1	311631	20	0	-1	310132	311631	311630	0	prime_left.png	TrialProc1	left	0		0	10	311941	-311941		0	0	TrialList2	target_both.png	0	dl	-1	3	311681	260	l	567	312248															8	1	15	neut			450
1 ver1_main_procedure	33	1	31	<?xml version="1.0"?>\n<Clock xmlns:dt="urn:schemas-microsoft-com:datatypes"><Description dt:dt="string">E-Prime Primary Realtime Clock</Description><StartTime><Timestamp dt:dt="int">0</Timestamp><DateUtc dt:dt="string">2015-08-15T13:23:14Z</DateUtc></StartTime><FrequencyChanges><FrequencyChange><Frequency dt:dt="r8">2612314</Frequency><Timestamp dt:dt="r8">972023828</Timestamp><Current dt:dt="r8">0</Current><DateUtc dt:dt="string">2015-08-15T13:23:14Z</DateUtc></FrequencyChange></FrequencyChanges></Clock>\n	1 ver1_main_procedure-33-1	99.935	1.0.0.880	1	MD	972547283	prawa	1	2.0.10.182	08-15-2015	2015-08-15 13:23:14	15:23:14	kobieta	2.0.10.92	3	5	1	1																							d	{SPACE}		no	BlockProc2		BlockList									16	Free	dl	color_blue.png		-1	6	315023	160																								25	prime_left.png	0	314533	0	0	13	0	314533	0	314533	1	314533	20	0	-1	313034	314533	314532	0		TrialProc1	left	0		0	10	314843	-314843		0	0	TrialList2	target_both.png	0	dl	-1	3	314583	260	l	433	315016															7	1	16	comp			150
1 ver1_main_procedure	33	1	31	<?xml version="1.0"?>\n<Clock xmlns:dt="urn:schemas-microsoft-com:datatypes"><Description dt:dt="string">E-Prime Primary Realtime Clock</Description><StartTime><Timestamp dt:dt="int">0</Timestamp><DateUtc dt:dt="string">2015-08-15T13:23:14Z</DateUtc></StartTime><FrequencyChanges><FrequencyChange><Frequency dt:dt="r8">2612314</Frequency><Timestamp dt:dt="r8">972023828</Timestamp><Current dt:dt="r8">0</Current><DateUtc dt:dt="string">2015-08-15T13:23:14Z</DateUtc></FrequencyChange></FrequencyChanges></Clock>\n	1 ver1_main_procedure-33-1	99.935	1.0.0.880	1	MD	972547283	prawa	1	2.0.10.182	08-15-2015	2015-08-15 13:23:14	15:23:14	kobieta	2.0.10.92	3	5	1	1																							d	{SPACE}		no	BlockProc2		BlockList									17	Cued	d	color_red.png		-1	14	317615	310																			2					25	prime_right.png	0	316994	0	0	13	0	316994	0	316994	1	316994	20	0	-1	315495	316994	316993	0	prime_right.png	TrialProc1	left	0		0	11	317305	-317305		0	0	TrialList2	target_left.png	1	d	-1	3	317044	261	d	556	317600															2	1	17	neut			300
1 ver1_main_procedure	33	1	31	<?xml version="1.0"?>\n<Clock xmlns:dt="urn:schemas-microsoft-com:datatypes"><Description dt:dt="string">E-Prime Primary Realtime Clock</Description><StartTime><Timestamp dt:dt="int">0</Timestamp><DateUtc dt:dt="string">2015-08-15T13:23:14Z</DateUtc></StartTime><FrequencyChanges><FrequencyChange><Frequency dt:dt="r8">2612314</Frequency><Timestamp dt:dt="r8">972023828</Timestamp><Current dt:dt="r8">0</Current><DateUtc dt:dt="string">2015-08-15T13:23:14Z</DateUtc></FrequencyChange></FrequencyChanges></Clock>\n	1 ver1_main_procedure-33-1	99.935	1.0.0.880	1	MD	972547283	prawa	1	2.0.10.182	08-15-2015	2015-08-15 13:23:14	15:23:14	kobieta	2.0.10.92	3	5	1	1																							d	{SPACE}		no	BlockProc2		BlockList									18	Free	dl	color_orange.png		-1	11	320396	461																								25	prime_right.png	0	319736	0	0	13	0	319736	0	319736	1	319736	20	0	-1	318237	319736	319735	0		TrialProc1	left	0		0	10	320046	-320046		0	0	TrialList2	target_both.png	0	dl	-1	3	319786	260	l	599	320385															9	1	18	incomp			450
1 ver1_main_procedure	33	1	31	<?xml version="1.0"?>\n<Clock xmlns:dt="urn:schemas-microsoft-com:datatypes"><Description dt:dt="string">E-Prime Primary Realtime Clock</Description><StartTime><Timestamp dt:dt="int">0</Timestamp><DateUtc dt:dt="string">2015-08-15T13:23:14Z</DateUtc></StartTime><FrequencyChanges><FrequencyChange><Frequency dt:dt="r8">2612314</Frequency><Timestamp dt:dt="r8">972023828</Timestamp><Current dt:dt="r8">0</Current><DateUtc dt:dt="string">2015-08-15T13:23:14Z</DateUtc></FrequencyChange></FrequencyChanges></Clock>\n	1 ver1_main_procedure-33-1	99.935	1.0.0.880	1	MD	972547283	prawa	1	2.0.10.182	08-15-2015	2015-08-15 13:23:14	15:23:14	kobieta	2.0.10.92	3	5	1	1																							d	{SPACE}		no	BlockProc2		BlockList									19	Free	dl	color_purple.png		-1	11	323228	460																			1					75	prime_left.png	0	322668	0	0	13	0	322668	0	322668	1	322668	20	0	-1	321169	322668	322667	0	prime_left.png	TrialProc1	left	0		0	10	322978	-322978		0	0	TrialList2	target_both.png	0	dl	-1	3	322718	260	l	499	323217															8	1	19	neut			450
1 ver1_main_procedure	33	1	31	<?xml version="1.0"?>\n<Clock xmlns:dt="urn:schemas-microsoft-com:datatypes"><Description dt:dt="string">E-Prime Primary Realtime Clock</Description><StartTime><Timestamp dt:dt="int">0</Timestamp><DateUtc dt:dt="string">2015-08-15T13:23:14Z</DateUtc></StartTime><FrequencyChanges><FrequencyChange><Frequency dt:dt="r8">2612314</Frequency><Timestamp dt:dt="r8">972023828</Timestamp><Current dt:dt="r8">0</Current><DateUtc dt:dt="string">2015-08-15T13:23:14Z</DateUtc></FrequencyChange></FrequencyChanges></Clock>\n	1 ver1_main_procedure-33-1	99.935	1.0.0.880	1	MD	972547283	prawa	1	2.0.10.182	08-15-2015	2015-08-15 13:23:14	15:23:14	kobieta	2.0.10.92	3	5	1	1																							d	{SPACE}		no	BlockProc2		BlockList									20	Free	dl	color_purple.png		-1	11	326060	460																			2					25	prime_right.png	0	325499	0	0	13	0	325499	0	325499	1	325499	20	0	-1	324000	325499	325498	0	prime_right.png	TrialProc1	right	0		0	11	325810	-325810		0	0	TrialList2	target_both.png	0	dl	-1	3	325549	261	l	500	326049															11	1	20	neut			450
1 ver1_main_procedure	33	1	31	<?xml version="1.0"?>\n<Clock xmlns:dt="urn:schemas-microsoft-com:datatypes"><Description dt:dt="string">E-Prime Primary Realtime Clock</Description><StartTime><Timestamp dt:dt="int">0</Timestamp><DateUtc dt:dt="string">2015-08-15T13:23:14Z</DateUtc></StartTime><FrequencyChanges><FrequencyChange><Frequency dt:dt="r8">2612314</Frequency><Timestamp dt:dt="r8">972023828</Timestamp><Current dt:dt="r8">0</Current><DateUtc dt:dt="string">2015-08-15T13:23:14Z</DateUtc></FrequencyChange></FrequencyChanges></Clock>\n	1 ver1_main_procedure-33-1	99.935	1.0.0.880	1	MD	972547283	prawa	1	2.0.10.182	08-15-2015	2015-08-15 13:23:14	15:23:14	kobieta	2.0.10.92	3	5	1	1																							d	{SPACE}		no	BlockProc2		BlockList									21	Free	dl	color_blue.png		-1	14	328951	461																								25	prime_left.png	0	328331	0	0	13	0	328331	0	328331	1	328331	20	0	-1	326832	328331	328330	0		TrialProc1	right	0		0	10	328641	-328641		0	0	TrialList2	target_both.png	0	dl	-1	3	328381	260	l	556	328937															12	1	21	incomp			450
1 ver1_main_procedure	33	1	31	<?xml version="1.0"?>\n<Clock xmlns:dt="urn:schemas-microsoft-com:datatypes"><Description dt:dt="string">E-Prime Primary Realtime Clock</Description><StartTime><Timestamp dt:dt="int">0</Timestamp><DateUtc dt:dt="string">2015-08-15T13:23:14Z</DateUtc></StartTime><FrequencyChanges><FrequencyChange><Frequency dt:dt="r8">2612314</Frequency><Timestamp dt:dt="r8">972023828</Timestamp><Current dt:dt="r8">0</Current><DateUtc dt:dt="string">2015-08-15T13:23:14Z</DateUtc></FrequencyChange></FrequencyChanges></Clock>\n	1 ver1_main_procedure-33-1	99.935	1.0.0.880	1	MD	972547283	prawa	1	2.0.10.182	08-15-2015	2015-08-15 13:23:14	15:23:14	kobieta	2.0.10.92	3	5	1	1																							d	{SPACE}		no	BlockProc2		BlockList									22	Cued	l	color_purple.png		-1	8	332153	310																			1					25	prime_left.png	0	331223	0	0	13	0	331223	0	331223	1	331223	20	0	-1	329724	331223	331222	0	prime_left.png	TrialProc1	right	0		0	10	331533	-331533		0	0	TrialList2	target_right.png	1	l	-1	3	331273	260	l	872	332145															5	1	22	neut			300
1 ver1_main_procedure	33	1	31	<?xml version="1.0"?>\n<Clock xmlns:dt="urn:schemas-microsoft-com:datatypes"><Description dt:dt="string">E-Prime Primary Realtime Clock</Description><StartTime><Timestamp dt:dt="int">0</Timestamp><DateUtc dt:dt="string">2015-08-15T13:23:14Z</DateUtc></StartTime><FrequencyChanges><FrequencyChange><Frequency dt:dt="r8">2612314</Frequency><Timestamp dt:dt="r8">972023828</Timestamp><Current dt:dt="r8">0</Current><DateUtc dt:dt="string">2015-08-15T13:23:14Z</DateUtc></FrequencyChange></FrequencyChanges></Clock>\n	1 ver1_main_procedure-33-1	99.935	1.0.0.880	1	MD	972547283	prawa	1	2.0.10.182	08-15-2015	2015-08-15 13:23:14	15:23:14	kobieta	2.0.10.92	3	5	1	1																							d	{SPACE}		no	BlockProc2		BlockList									23	Free	dl	color_blue.png		-1	13	334975	460																								75	prime_left.png	1	334275	0	0	13	1	334275	1	334275	0	334274	20	0	-1	332775	334274	334274	0		TrialProc1	left	0		0	10	334585	-334585		0	0	TrialList2	target_both.png	0	dl	-1	4	334325	260	l	636	334961															7	1	23	comp			450
1 ver1_main_procedure	33	1	31	<?xml version="1.0"?>\n<Clock xmlns:dt="urn:schemas-microsoft-com:datatypes"><Description dt:dt="string">E-Prime Primary Realtime Clock</Description><StartTime><Timestamp dt:dt="int">0</Timestamp><DateUtc dt:dt="string">2015-08-15T13:23:14Z</DateUtc></StartTime><FrequencyChanges><FrequencyChange><Frequency dt:dt="r8">2612314</Frequency><Timestamp dt:dt="r8">972023828</Timestamp><Current dt:dt="r8">0</Current><DateUtc dt:dt="string">2015-08-15T13:23:14Z</DateUtc></FrequencyChange></FrequencyChanges></Clock>\n	1 ver1_main_procedure-33-1	99.935	1.0.0.880	1	MD	972547283	prawa	1	2.0.10.182	08-15-2015	2015-08-15 13:23:14	15:23:14	kobieta	2.0.10.92	3	5	1	1																							d	{SPACE}		no	BlockProc2		BlockList									24	Free	dl	color_orange.png		-1	13	337727	460																								75	prime_right.png	0	337246	0	0	13	0	337246	0	337246	1	337246	20	0	-1	335747	337246	337245	0		TrialProc1	left	0		1	10	337556	-337556		0	0	TrialList2	target_both.png	0	dl	-1	3	337296	260	l	417	337713															9	1	24	incomp			450
1 ver1_main_procedure	33	1	31	<?xml version="1.0"?>\n<Clock xmlns:dt="urn:schemas-microsoft-com:datatypes"><Description dt:dt="string">E-Prime Primary Realtime Clock</Description><StartTime><Timestamp dt:dt="int">0</Timestamp><DateUtc dt:dt="string">2015-08-15T13:23:14Z</DateUtc></StartTime><FrequencyChanges><FrequencyChange><Frequency dt:dt="r8">2612314</Frequency><Timestamp dt:dt="r8">972023828</Timestamp><Current dt:dt="r8">0</Current><DateUtc dt:dt="string">2015-08-15T13:23:14Z</DateUtc></FrequencyChange></FrequencyChanges></Clock>\n	1 ver1_main_procedure-33-1	99.935	1.0.0.880	1	MD	972547283	prawa	1	2.0.10.182	08-15-2015	2015-08-15 13:23:14	15:23:14	kobieta	2.0.10.92	3	5	1	1																							d	{SPACE}		no	BlockProc2		BlockList									25	Free	dl	color_purple.png		-1	8	340498	460																			2					25	prime_right.png	0	339998	0	0	13	0	339998	0	339998	1	339998	20	0	-1	338499	339998	339997	0	prime_right.png	TrialProc1	right	0		0	10	340308	-340308		0	0	TrialList2	target_both.png	0	dl	-1	3	340048	260	l	441	340489															11	1	25	neut			450
1 ver1_main_procedure	33	1	31	<?xml version="1.0"?>\n<Clock xmlns:dt="urn:schemas-microsoft-com:datatypes"><Description dt:dt="string">E-Prime Primary Realtime Clock</Description><StartTime><Timestamp dt:dt="int">0</Timestamp><DateUtc dt:dt="string">2015-08-15T13:23:14Z</DateUtc></StartTime><FrequencyChanges><FrequencyChange><Frequency dt:dt="r8">2612314</Frequency><Timestamp dt:dt="r8">972023828</Timestamp><Current dt:dt="r8">0</Current><DateUtc dt:dt="string">2015-08-15T13:23:14Z</DateUtc></FrequencyChange></FrequencyChanges></Clock>\n	1 ver1_main_procedure-33-1	99.935	1.0.0.880	1	MD	972547283	prawa	1	2.0.10.182	08-15-2015	2015-08-15 13:23:14	15:23:14	kobieta	2.0.10.92	3	5	1	1																							d	{SPACE}		no	BlockProc2		BlockList									26	Free	dl	color_orange.png		-1	8	343450	310																								25	prime_right.png	0	342770	0	0	13	0	342770	0	342770	1	342770	20	0	-1	341270	342770	342769	0		TrialProc1	left	0		0	10	343080	-343080		0	0	TrialList2	target_both.png	0	dl	-1	3	342820	260	l	621	343441															9	1	26	incomp			300
1 ver1_main_procedure	33	1	31	<?xml version="1.0"?>\n<Clock xmlns:dt="urn:schemas-microsoft-com:datatypes"><Description dt:dt="string">E-Prime Primary Realtime Clock</Description><StartTime><Timestamp dt:dt="int">0</Timestamp><DateUtc dt:dt="string">2015-08-15T13:23:14Z</DateUtc></StartTime><FrequencyChanges><FrequencyChange><Frequency dt:dt="r8">2612314</Frequency><Timestamp dt:dt="r8">972023828</Timestamp><Current dt:dt="r8">0</Current><DateUtc dt:dt="string">2015-08-15T13:23:14Z</DateUtc></FrequencyChange></FrequencyChanges></Clock>\n	1 ver1_main_procedure-33-1	99.935	1.0.0.880	1	MD	972547283	prawa	1	2.0.10.182	08-15-2015	2015-08-15 13:23:14	15:23:14	kobieta	2.0.10.92	3	5	1	1																							d	{SPACE}		no	BlockProc2		BlockList									27	Free	dl	color_orange.png		-1	14	346192	460																								25	prime_right.png	0	345571	0	0	13	0	345571	0	345571	1	345571	20	0	-1	344072	345571	345570	0		TrialProc1	right	0		1	10	345881	-345881		0	0	TrialList2	target_both.png	0	dl	-1	3	345621	260	l	556	346177															10	1	27	comp			450
1 ver1_main_procedure	33	1	31	<?xml version="1.0"?>\n<Clock xmlns:dt="urn:schemas-microsoft-com:datatypes"><Description dt:dt="string">E-Prime Primary Realtime Clock</Description><StartTime><Timestamp dt:dt="int">0</Timestamp><DateUtc dt:dt="string">2015-08-15T13:23:14Z</DateUtc></StartTime><FrequencyChanges><FrequencyChange><Frequency dt:dt="r8">2612314</Frequency><Timestamp dt:dt="r8">972023828</Timestamp><Current dt:dt="r8">0</Current><DateUtc dt:dt="string">2015-08-15T13:23:14Z</DateUtc></FrequencyChange></FrequencyChanges></Clock>\n	1 ver1_main_procedure-33-1	99.935	1.0.0.880	1	MD	972547283	prawa	1	2.0.10.182	08-15-2015	2015-08-15 13:23:14	15:23:14	kobieta	2.0.10.92	3	5	1	1																							d	{SPACE}		no	BlockProc2		BlockList									28	Free	dl	color_orange.png		-1	13	349223	310																								75	prime_right.png	0	348463	0	0	13	0	348463	0	348463	1	348463	20	0	-1	346964	348463	348462	0		TrialProc1	left	0		0	10	348773	-348773		0	0	TrialList2	target_both.png	0	dl	-1	3	348513	260	l	696	349209															9	1	28	incomp			300
1 ver1_main_procedure	33	1	31	<?xml version="1.0"?>\n<Clock xmlns:dt="urn:schemas-microsoft-com:datatypes"><Description dt:dt="string">E-Prime Primary Realtime Clock</Description><StartTime><Timestamp dt:dt="int">0</Timestamp><DateUtc dt:dt="string">2015-08-15T13:23:14Z</DateUtc></StartTime><FrequencyChanges><FrequencyChange><Frequency dt:dt="r8">2612314</Frequency><Timestamp dt:dt="r8">972023828</Timestamp><Current dt:dt="r8">0</Current><DateUtc dt:dt="string">2015-08-15T13:23:14Z</DateUtc></FrequencyChange></FrequencyChanges></Clock>\n	1 ver1_main_procedure-33-1	99.935	1.0.0.880	1	MD	972547283	prawa	1	2.0.10.182	08-15-2015	2015-08-15 13:23:14	15:23:14	kobieta	2.0.10.92	3	5	1	1																							d	{SPACE}		no	BlockProc2		BlockList									29	Cued	d	color_yellow.png		-1	11	352005	460																								25	prime_right.png	0	351345	0	0	13	0	351345	0	351345	1	351345	20	0	-1	349845	351345	351344	0		TrialProc1	left	0		0	10	351655	-351655		0	0	TrialList2	target_left.png	1	d	-1	3	351395	260	d	598	351993															3	1	29	incomp			450
1 ver1_main_procedure	33	1	31	<?xml version="1.0"?>\n<Clock xmlns:dt="urn:schemas-microsoft-com:datatypes"><Description dt:dt="string">E-Prime Primary Realtime Clock</Description><StartTime><Timestamp dt:dt="int">0</Timestamp><DateUtc dt:dt="string">2015-08-15T13:23:14Z</DateUtc></StartTime><FrequencyChanges><FrequencyChange><Frequency dt:dt="r8">2612314</Frequency><Timestamp dt:dt="r8">972023828</Timestamp><Current dt:dt="r8">0</Current><DateUtc dt:dt="string">2015-08-15T13:23:14Z</DateUtc></FrequencyChange></FrequencyChanges></Clock>\n	1 ver1_main_procedure-33-1	99.935	1.0.0.880	1	MD	972547283	prawa	1	2.0.10.182	08-15-2015	2015-08-15 13:23:14	15:23:14	kobieta	2.0.10.92	3	5	1	1																							d	{SPACE}		no	BlockProc2		BlockList									30	Free	dl	color_purple.png		-1	7	354937	460																			1					75	prime_left.png	0	354276	0	0	13	0	354277	0	354276	1	354276	20	0	-1	352777	354276	354275	0	prime_left.png	TrialProc1	right	0		1	10	354586	-354586		0	0	TrialList2	target_both.png	0	dl	-1	3	354326	260	l	603	354929															11	1	30	neut			450
1 ver1_main_procedure	33	1	31	<?xml version="1.0"?>\n<Clock xmlns:dt="urn:schemas-microsoft-com:datatypes"><Description dt:dt="string">E-Prime Primary Realtime Clock</Description><StartTime><Timestamp dt:dt="int">0</Timestamp><DateUtc dt:dt="string">2015-08-15T13:23:14Z</DateUtc></StartTime><FrequencyChanges><FrequencyChange><Frequency dt:dt="r8">2612314</Frequency><Timestamp dt:dt="r8">972023828</Timestamp><Current dt:dt="r8">0</Current><DateUtc dt:dt="string">2015-08-15T13:23:14Z</DateUtc></FrequencyChange></FrequencyChanges></Clock>\n	1 ver1_main_procedure-33-1	99.935	1.0.0.880	1	MD	972547283	prawa	1	2.0.10.182	08-15-2015	2015-08-15 13:23:14	15:23:14	kobieta	2.0.10.92	3	5	1	1																							d	{SPACE}		no	BlockProc2		BlockList									31	Free	dl	color_purple.png		-1	10	357908	161																			2					25	prime_right.png	0	357208	0	0	13	0	357208	0	357208	1	357208	20	0	-1	355709	357208	357207	0	prime_right.png	TrialProc1	right	0		1	10	357518	-357518		0	0	TrialList2	target_both.png	0	dl	-1	3	357258	260	l	639	357897															11	1	31	neut			150
1 ver1_main_procedure	33	1	31	<?xml version="1.0"?>\n<Clock xmlns:dt="urn:schemas-microsoft-com:datatypes"><Description dt:dt="string">E-Prime Primary Realtime Clock</Description><StartTime><Timestamp dt:dt="int">0</Timestamp><DateUtc dt:dt="string">2015-08-15T13:23:14Z</DateUtc></StartTime><FrequencyChanges><FrequencyChange><Frequency dt:dt="r8">2612314</Frequency><Timestamp dt:dt="r8">972023828</Timestamp><Current dt:dt="r8">0</Current><DateUtc dt:dt="string">2015-08-15T13:23:14Z</DateUtc></FrequencyChange></FrequencyChanges></Clock>\n	1 ver1_main_procedure-33-1	99.935	1.0.0.880	1	MD	972547283	prawa	1	2.0.10.182	08-15-2015	2015-08-15 13:23:14	15:23:14	kobieta	2.0.10.92	3	5	1	1																							d	{SPACE}		no	BlockProc2		BlockList									32	Free	dl	color_purple.png		-1	10	360420	460																			1					25	prime_left.png	0	359880	0	0	13	0	359880	0	359880	1	359880	20	0	-1	358381	359880	359879	0	prime_left.png	TrialProc1	left	0		0	10	360190	-360190		0	0	TrialList2	target_both.png	0	dl	-1	3	359930	260	l	479	360409															8	1	32	neut			450
1 ver1_main_procedure	33	1	31	<?xml version="1.0"?>\n<Clock xmlns:dt="urn:schemas-microsoft-com:datatypes"><Description dt:dt="string">E-Prime Primary Realtime Clock</Description><StartTime><Timestamp dt:dt="int">0</Timestamp><DateUtc dt:dt="string">2015-08-15T13:23:14Z</DateUtc></StartTime><FrequencyChanges><FrequencyChange><Frequency dt:dt="r8">2612314</Frequency><Timestamp dt:dt="r8">972023828</Timestamp><Current dt:dt="r8">0</Current><DateUtc dt:dt="string">2015-08-15T13:23:14Z</DateUtc></FrequencyChange></FrequencyChanges></Clock>\n	1 ver1_main_procedure-33-1	99.935	1.0.0.880	1	MD	972547283	prawa	1	2.0.10.182	08-15-2015	2015-08-15 13:23:14	15:23:14	kobieta	2.0.10.92	3	5	1	1																							d	{SPACE}		no	BlockProc2		BlockList									33	Free	dl	color_purple.png		-1	14	363232	460																			2					75	prime_right.png	0	362691	0	0	13	0	362691	0	362691	1	362691	20	0	-1	361192	362691	362690	0	prime_right.png	TrialProc1	left	0		1	10	363001	-363001		0	0	TrialList2	target_both.png	0	dl	-1	3	362741	260	l	476	363217															8	1	33	neut			450
1 ver1_main_procedure	33	1	31	<?xml version="1.0"?>\n<Clock xmlns:dt="urn:schemas-microsoft-com:datatypes"><Description dt:dt="string">E-Prime Primary Realtime Clock</Description><StartTime><Timestamp dt:dt="int">0</Timestamp><DateUtc dt:dt="string">2015-08-15T13:23:14Z</DateUtc></StartTime><FrequencyChanges><FrequencyChange><Frequency dt:dt="r8">2612314</Frequency><Timestamp dt:dt="r8">972023828</Timestamp><Current dt:dt="r8">0</Current><DateUtc dt:dt="string">2015-08-15T13:23:14Z</DateUtc></FrequencyChange></FrequencyChanges></Clock>\n	1 ver1_main_procedure-33-1	99.935	1.0.0.880	1	MD	972547283	prawa	1	2.0.10.182	08-15-2015	2015-08-15 13:23:14	15:23:14	kobieta	2.0.10.92	3	5	1	1																							d	{SPACE}		no	BlockProc2		BlockList									34	Cued	d	color_yellow.png		-1	13	366103	160																								25	prime_right.png	0	365503	0	0	13	0	365503	0	365503	1	365503	20	0	-1	364004	365503	365502	0		TrialProc1	left	0		0	10	365813	-365813		0	0	TrialList2	target_left.png	1	d	-1	3	365553	260	d	536	366089															3	1	34	incomp			150
1 ver1_main_procedure	33	1	31	<?xml version="1.0"?>\n<Clock xmlns:dt="urn:schemas-microsoft-com:datatypes"><Description dt:dt="string">E-Prime Primary Realtime Clock</Description><StartTime><Timestamp dt:dt="int">0</Timestamp><DateUtc dt:dt="string">2015-08-15T13:23:14Z</DateUtc></StartTime><FrequencyChanges><FrequencyChange><Frequency dt:dt="r8">2612314</Frequency><Timestamp dt:dt="r8">972023828</Timestamp><Current dt:dt="r8">0</Current><DateUtc dt:dt="string">2015-08-15T13:23:14Z</DateUtc></FrequencyChange></FrequencyChanges></Clock>\n	1 ver1_main_procedure-33-1	99.935	1.0.0.880	1	MD	972547283	prawa	1	2.0.10.182	08-15-2015	2015-08-15 13:23:14	15:23:14	kobieta	2.0.10.92	3	5	1	1																							d	{SPACE}		no	BlockProc2		BlockList									35	Cued	l	color_orange.png		-1	13	368695	160																								75	prime_right.png	0	368075	0	0	13	0	368075	0	368075	1	368075	20	0	-1	366575	368075	368074	0		TrialProc1	right	0		0	10	368385	-368385		0	0	TrialList2	target_right.png	1	l	-1	3	368125	260	l	556	368681															4	1	35	comp			150
1 ver1_main_procedure	33	1	31	<?xml version="1.0"?>\n<Clock xmlns:dt="urn:schemas-microsoft-com:datatypes"><Description dt:dt="string">E-Prime Primary Realtime Clock</Description><StartTime><Timestamp dt:dt="int">0</Timestamp><DateUtc dt:dt="string">2015-08-15T13:23:14Z</DateUtc></StartTime><FrequencyChanges><FrequencyChange><Frequency dt:dt="r8">2612314</Frequency><Timestamp dt:dt="r8">972023828</Timestamp><Current dt:dt="r8">0</Current><DateUtc dt:dt="string">2015-08-15T13:23:14Z</DateUtc></FrequencyChange></FrequencyChanges></Clock>\n	1 ver1_main_procedure-33-1	99.935	1.0.0.880	1	MD	972547283	prawa	1	2.0.10.182	08-15-2015	2015-08-15 13:23:14	15:23:14	kobieta	2.0.10.92	3	5	1	1																							d	{SPACE}		no	BlockProc2		BlockList									36	Cued	l	color_purple.png		-1	8	371186	461																			1					25	prime_left.png	0	370666	0	0	13	0	370666	0	370666	1	370666	20	0	-1	369167	370666	370665	0	prime_left.png	TrialProc1	right	0		0	10	370976	-370976		0	0	TrialList2	target_right.png	1	l	-1	3	370716	260	l	461	371177															5	1	36	neut			450
1 ver1_main_procedure	33	1	31	<?xml version="1.0"?>\n<Clock xmlns:dt="urn:schemas-microsoft-com:datatypes"><Description dt:dt="string">E-Prime Primary Realtime Clock</Description><StartTime><Timestamp dt:dt="int">0</Timestamp><DateUtc dt:dt="string">2015-08-15T13:23:14Z</DateUtc></StartTime><FrequencyChanges><FrequencyChange><Frequency dt:dt="r8">2612314</Frequency><Timestamp dt:dt="r8">972023828</Timestamp><Current dt:dt="r8">0</Current><DateUtc dt:dt="string">2015-08-15T13:23:14Z</DateUtc></FrequencyChange></FrequencyChanges></Clock>\n	1 ver1_main_procedure-33-1	99.935	1.0.0.880	1	MD	972547283	prawa	1	2.0.10.182	08-15-2015	2015-08-15 13:23:14	15:23:14	kobieta	2.0.10.92	3	5	1	1																							d	{SPACE}		no	BlockProc2		BlockList									37	Free	dl	color_orange.png		-1	12	373998	160																								75	prime_right.png	0	373458	0	0	13	0	373458	0	373458	1	373458	20	0	-1	371959	373458	373457	0		TrialProc1	right	0		0	10	373768	-373768		0	0	TrialList2	target_both.png	0	dl	-1	3	373508	260	l	477	373985															10	1	37	comp			150
1 ver1_main_procedure	33	1	31	<?xml version="1.0"?>\n<Clock xmlns:dt="urn:schemas-microsoft-com:datatypes"><Description dt:dt="string">E-Prime Primary Realtime Clock</Description><StartTime><Timestamp dt:dt="int">0</Timestamp><DateUtc dt:dt="string">2015-08-15T13:23:14Z</DateUtc></StartTime><FrequencyChanges><FrequencyChange><Frequency dt:dt="r8">2612314</Frequency><Timestamp dt:dt="r8">972023828</Timestamp><Current dt:dt="r8">0</Current><DateUtc dt:dt="string">2015-08-15T13:23:14Z</DateUtc></FrequencyChange></FrequencyChanges></Clock>\n	1 ver1_main_procedure-33-1	99.935	1.0.0.880	1	MD	972547283	prawa	1	2.0.10.182	08-15-2015	2015-08-15 13:23:14	15:23:14	kobieta	2.0.10.92	3	5	1	1																							d	{SPACE}		no	BlockProc2		BlockList									38	Cued	l	color_blue.png		-1	11	376509	311																								25	prime_left.png	0	375969	0	0	13	0	375969	0	375969	1	375969	20	0	-1	374470	375969	375968	0		TrialProc1	right	0		0	10	376279	-376279		0	0	TrialList2	target_right.png	1	l	-1	3	376019	260	l	478	376497															6	1	38	incomp			300
1 ver1_main_procedure	33	1	31	<?xml version="1.0"?>\n<Clock xmlns:dt="urn:schemas-microsoft-com:datatypes"><Description dt:dt="string">E-Prime Primary Realtime Clock</Description><StartTime><Timestamp dt:dt="int">0</Timestamp><DateUtc dt:dt="string">2015-08-15T13:23:14Z</DateUtc></StartTime><FrequencyChanges><FrequencyChange><Frequency dt:dt="r8">2612314</Frequency><Timestamp dt:dt="r8">972023828</Timestamp><Current dt:dt="r8">0</Current><DateUtc dt:dt="string">2015-08-15T13:23:14Z</DateUtc></FrequencyChange></FrequencyChanges></Clock>\n	1 ver1_main_procedure-33-1	99.935	1.0.0.880	1	MD	972547283	prawa	1	2.0.10.182	08-15-2015	2015-08-15 13:23:14	15:23:14	kobieta	2.0.10.92	3	5	1	1																							d	{SPACE}		no	BlockProc2		BlockList									39	Cued	d	color_red.png		-1	7	379281	310																			2					75	prime_right.png	0	378631	0	0	13	0	378631	0	378631	1	378631	20	0	-1	377132	378631	378630	0	prime_right.png	TrialProc1	left	0		0	10	378941	-378941		0	0	TrialList2	target_left.png	1	d	-1	3	378681	260	d	593	379274															2	1	39	neut			300
1 ver1_main_procedure	33	1	31	<?xml version="1.0"?>\n<Clock xmlns:dt="urn:schemas-microsoft-com:datatypes"><Description dt:dt="string">E-Prime Primary Realtime Clock</Description><StartTime><Timestamp dt:dt="int">0</Timestamp><DateUtc dt:dt="string">2015-08-15T13:23:14Z</DateUtc></StartTime><FrequencyChanges><FrequencyChange><Frequency dt:dt="r8">2612314</Frequency><Timestamp dt:dt="r8">972023828</Timestamp><Current dt:dt="r8">0</Current><DateUtc dt:dt="string">2015-08-15T13:23:14Z</DateUtc></FrequencyChange></FrequencyChanges></Clock>\n	1 ver1_main_procedure-33-1	99.935	1.0.0.880	1	MD	972547283	prawa	1	2.0.10.182	08-15-2015	2015-08-15 13:23:14	15:23:14	kobieta	2.0.10.92	3	5	1	1																							d	{SPACE}		no	BlockProc2		BlockList									40	Free	dl	color_purple.png		-1	15	382273	460																			1					75	prime_left.png	0	381402	0	0	13	1	381403	1	381403	1	381402	20	0	-1	379903	381402	381401	0	prime_left.png	TrialProc1	right	0		0	11	381713	-381713		0	0	TrialList2	target_both.png	0	dl	-1	3	381452	261	l	806	382258															11	1	40	neut			450
1 ver1_main_procedure	33	1	31	<?xml version="1.0"?>\n<Clock xmlns:dt="urn:schemas-microsoft-com:datatypes"><Description dt:dt="string">E-Prime Primary Realtime Clock</Description><StartTime><Timestamp dt:dt="int">0</Timestamp><DateUtc dt:dt="string">2015-08-15T13:23:14Z</DateUtc></StartTime><FrequencyChanges><FrequencyChange><Frequency dt:dt="r8">2612314</Frequency><Timestamp dt:dt="r8">972023828</Timestamp><Current dt:dt="r8">0</Current><DateUtc dt:dt="string">2015-08-15T13:23:14Z</DateUtc></FrequencyChange></FrequencyChanges></Clock>\n	1 ver1_main_procedure-33-1	99.935	1.0.0.880	1	MD	972547283	prawa	1	2.0.10.182	08-15-2015	2015-08-15 13:23:14	15:23:14	kobieta	2.0.10.92	3	5	1	1																							d	{SPACE}		no	BlockProc2		BlockList									41	Free	dl	color_orange.png		-1	15	385105	460																								25	prime_right.png	0	384544	0	0	13	0	384544	0	384544	1	384544	20	0	-1	383045	384544	384543	0		TrialProc1	left	0		1	10	384854	-384854		0	0	TrialList2	target_both.png	0	dl	-1	3	384594	260	l	496	385090															9	1	41	incomp			450
1 ver1_main_procedure	33	1	31	<?xml version="1.0"?>\n<Clock xmlns:dt="urn:schemas-microsoft-com:datatypes"><Description dt:dt="string">E-Prime Primary Realtime Clock</Description><StartTime><Timestamp dt:dt="int">0</Timestamp><DateUtc dt:dt="string">2015-08-15T13:23:14Z</DateUtc></StartTime><FrequencyChanges><FrequencyChange><Frequency dt:dt="r8">2612314</Frequency><Timestamp dt:dt="r8">972023828</Timestamp><Current dt:dt="r8">0</Current><DateUtc dt:dt="string">2015-08-15T13:23:14Z</DateUtc></FrequencyChange></FrequencyChanges></Clock>\n	1 ver1_main_procedure-33-1	99.935	1.0.0.880	1	MD	972547283	prawa	1	2.0.10.182	08-15-2015	2015-08-15 13:23:14	15:23:14	kobieta	2.0.10.92	3	5	1	1																							d	{SPACE}		no	BlockProc2		BlockList									42	Free	dl	color_orange.png		-1	6	387816	310																								25	prime_right.png	0	387376	0	0	13	0	387376	0	387376	1	387376	20	0	-1	385877	387376	387375	0		TrialProc1	left	0		0	10	387686	-387686		0	0	TrialList2	target_both.png	0	dl	-1	3	387426	260	l	384	387810															9	1	42	incomp			300
1 ver1_main_procedure	33	1	31	<?xml version="1.0"?>\n<Clock xmlns:dt="urn:schemas-microsoft-com:datatypes"><Description dt:dt="string">E-Prime Primary Realtime Clock</Description><StartTime><Timestamp dt:dt="int">0</Timestamp><DateUtc dt:dt="string">2015-08-15T13:23:14Z</DateUtc></StartTime><FrequencyChanges><FrequencyChange><Frequency dt:dt="r8">2612314</Frequency><Timestamp dt:dt="r8">972023828</Timestamp><Current dt:dt="r8">0</Current><DateUtc dt:dt="string">2015-08-15T13:23:14Z</DateUtc></FrequencyChange></FrequencyChanges></Clock>\n	1 ver1_main_procedure-33-1	99.935	1.0.0.880	1	MD	972547283	prawa	1	2.0.10.182	08-15-2015	2015-08-15 13:23:14	15:23:14	kobieta	2.0.10.92	3	5	1	1																							d	{SPACE}		no	BlockProc2		BlockList									43	Cued	d	color_yellow.png		-1	8	390658	160																								25	prime_right.png	0	389937	0	0	13	1	389938	1	389938	0	389937	20	0	-1	388438	389937	389937	0		TrialProc1	left	0		0	11	390248	-390248		0	0	TrialList2	target_left.png	1	d	-1	3	389987	261	d	663	390650															3	1	43	incomp			150
1 ver1_main_procedure	33	1	31	<?xml version="1.0"?>\n<Clock xmlns:dt="urn:schemas-microsoft-com:datatypes"><Description dt:dt="string">E-Prime Primary Realtime Clock</Description><StartTime><Timestamp dt:dt="int">0</Timestamp><DateUtc dt:dt="string">2015-08-15T13:23:14Z</DateUtc></StartTime><FrequencyChanges><FrequencyChange><Frequency dt:dt="r8">2612314</Frequency><Timestamp dt:dt="r8">972023828</Timestamp><Current dt:dt="r8">0</Current><DateUtc dt:dt="string">2015-08-15T13:23:14Z</DateUtc></FrequencyChange></FrequencyChanges></Clock>\n	1 ver1_main_procedure-33-1	99.935	1.0.0.880	1	MD	972547283	prawa	1	2.0.10.182	08-15-2015	2015-08-15 13:23:14	15:23:14	kobieta	2.0.10.92	3	5	1	1																							d	{SPACE}		no	BlockProc2		BlockList									44	Cued	d	color_green.png		-1	14	393289	461																								25	prime_left.png	0	392629	0	0	13	0	392629	0	392629	1	392629	20	0	-1	391130	392629	392628	0		TrialProc1	left	0		0	10	392939	-392939		0	0	TrialList2	target_left.png	1	d	-1	3	392679	260	d	595	393274															1	1	44	comp			450
1 ver1_main_procedure	33	1	31	<?xml version="1.0"?>\n<Clock xmlns:dt="urn:schemas-microsoft-com:datatypes"><Description dt:dt="string">E-Prime Primary Realtime Clock</Description><StartTime><Timestamp dt:dt="int">0</Timestamp><DateUtc dt:dt="string">2015-08-15T13:23:14Z</DateUtc></StartTime><FrequencyChanges><FrequencyChange><Frequency dt:dt="r8">2612314</Frequency><Timestamp dt:dt="r8">972023828</Timestamp><Current dt:dt="r8">0</Current><DateUtc dt:dt="string">2015-08-15T13:23:14Z</DateUtc></FrequencyChange></FrequencyChanges></Clock>\n	1 ver1_main_procedure-33-1	99.935	1.0.0.880	1	MD	972547283	prawa	1	2.0.10.182	08-15-2015	2015-08-15 13:23:14	15:23:14	kobieta	2.0.10.92	3	5	1	1																							d	{SPACE}		no	BlockProc2		BlockList									45	Free	dl	color_yellow.png		-1	15	396121	310																								25	prime_right.png	0	395561	0	0	13	0	395561	0	395561	1	395561	20	0	-1	394062	395561	395560	0		TrialProc1	right	0		0	10	395871	-395871		0	0	TrialList2	target_both.png	0	dl	-1	3	395611	260	d	495	396106															10	1	45	comp			300
1 ver1_main_procedure	33	1	31	<?xml version="1.0"?>\n<Clock xmlns:dt="urn:schemas-microsoft-com:datatypes"><Description dt:dt="string">E-Prime Primary Realtime Clock</Description><StartTime><Timestamp dt:dt="int">0</Timestamp><DateUtc dt:dt="string">2015-08-15T13:23:14Z</DateUtc></StartTime><FrequencyChanges><FrequencyChange><Frequency dt:dt="r8">2612314</Frequency><Timestamp dt:dt="r8">972023828</Timestamp><Current dt:dt="r8">0</Current><DateUtc dt:dt="string">2015-08-15T13:23:14Z</DateUtc></FrequencyChange></FrequencyChanges></Clock>\n	1 ver1_main_procedure-33-1	99.935	1.0.0.880	1	MD	972547283	prawa	1	2.0.10.182	08-15-2015	2015-08-15 13:23:14	15:23:14	kobieta	2.0.10.92	3	5	1	1																							d	{SPACE}		no	BlockProc2		BlockList									46	Free	dl	color_orange.png		-1	8	398683	160																								25	prime_right.png	0	398242	0	0	13	0	398243	0	398242	1	398242	20	0	-1	396743	398242	398241	0		TrialProc1	right	0		0	11	398553	-398553		0	0	TrialList2	target_both.png	0	dl	-1	3	398292	261	l	382	398674															10	1	46	comp			150
1 ver1_main_procedure	33	1	31	<?xml version="1.0"?>\n<Clock xmlns:dt="urn:schemas-microsoft-com:datatypes"><Description dt:dt="string">E-Prime Primary Realtime Clock</Description><StartTime><Timestamp dt:dt="int">0</Timestamp><DateUtc dt:dt="string">2015-08-15T13:23:14Z</DateUtc></StartTime><FrequencyChanges><FrequencyChange><Frequency dt:dt="r8">2612314</Frequency><Timestamp dt:dt="r8">972023828</Timestamp><Current dt:dt="r8">0</Current><DateUtc dt:dt="string">2015-08-15T13:23:14Z</DateUtc></FrequencyChange></FrequencyChanges></Clock>\n	1 ver1_main_procedure-33-1	99.935	1.0.0.880	1	MD	972547283	prawa	1	2.0.10.182	08-15-2015	2015-08-15 13:23:14	15:23:14	kobieta	2.0.10.92	3	5	1	1																							d	{SPACE}		no	BlockProc2		BlockList									47	Free	dl	color_blue.png		-1	5	401104	310																								25	prime_left.png	0	400654	0	0	13	0	400654	0	400654	1	400654	20	0	-1	399155	400654	400653	0		TrialProc1	right	0		0	10	400964	-400964		0	0	TrialList2	target_both.png	0	dl	-1	3	400704	260	l	394	401098															12	1	47	incomp			300
1 ver1_main_procedure	33	1	31	<?xml version="1.0"?>\n<Clock xmlns:dt="urn:schemas-microsoft-com:datatypes"><Description dt:dt="string">E-Prime Primary Realtime Clock</Description><StartTime><Timestamp dt:dt="int">0</Timestamp><DateUtc dt:dt="string">2015-08-15T13:23:14Z</DateUtc></StartTime><FrequencyChanges><FrequencyChange><Frequency dt:dt="r8">2612314</Frequency><Timestamp dt:dt="r8">972023828</Timestamp><Current dt:dt="r8">0</Current><DateUtc dt:dt="string">2015-08-15T13:23:14Z</DateUtc></FrequencyChange></FrequencyChanges></Clock>\n	1 ver1_main_procedure-33-1	99.935	1.0.0.880	1	MD	972547283	prawa	1	2.0.10.182	08-15-2015	2015-08-15 13:23:14	15:23:14	kobieta	2.0.10.92	3	5	1	1																							d	{SPACE}		no	BlockProc2		BlockList									48	Free	dl	color_blue.png		-1	11	403686	310																								25	prime_left.png	0	403225	0	0	13	0	403225	0	403225	1	403225	20	0	-1	401726	403225	403224	0		TrialProc1	left	0		1	10	403535	-403535		0	0	TrialList2	target_both.png	0	dl	-1	3	403275	260	l	399	403674															7	1	48	comp			300
1 ver1_main_procedure	33	1	31	<?xml version="1.0"?>\n<Clock xmlns:dt="urn:schemas-microsoft-com:datatypes"><Description dt:dt="string">E-Prime Primary Realtime Clock</Description><StartTime><Timestamp dt:dt="int">0</Timestamp><DateUtc dt:dt="string">2015-08-15T13:23:14Z</DateUtc></StartTime><FrequencyChanges><FrequencyChange><Frequency dt:dt="r8">2612314</Frequency><Timestamp dt:dt="r8">972023828</Timestamp><Current dt:dt="r8">0</Current><DateUtc dt:dt="string">2015-08-15T13:23:14Z</DateUtc></FrequencyChange></FrequencyChanges></Clock>\n	1 ver1_main_procedure-33-1	99.935	1.0.0.880	1	MD	972547283	prawa	1	2.0.10.182	08-15-2015	2015-08-15 13:23:14	15:23:14	kobieta	2.0.10.92	3	5	1	1																							d	{SPACE}		no	BlockProc2		BlockList									49	Free	dl	color_purple.png		-1	6	406257	160																			2					25	prime_right.png	0	405807	0	0	13	0	405807	0	405807	1	405807	20	0	-1	404308	405807	405806	0	prime_right.png	TrialProc1	right	0		0	10	406117	-406117		0	0	TrialList2	target_both.png	0	dl	-1	3	405857	260	l	393	406250															11	1	49	neut			150
1 ver1_main_procedure	33	1	31	<?xml version="1.0"?>\n<Clock xmlns:dt="urn:schemas-microsoft-com:datatypes"><Description dt:dt="string">E-Prime Primary Realtime Clock</Description><StartTime><Timestamp dt:dt="int">0</Timestamp><DateUtc dt:dt="string">2015-08-15T13:23:14Z</DateUtc></StartTime><FrequencyChanges><FrequencyChange><Frequency dt:dt="r8">2612314</Frequency><Timestamp dt:dt="r8">972023828</Timestamp><Current dt:dt="r8">0</Current><DateUtc dt:dt="string">2015-08-15T13:23:14Z</DateUtc></FrequencyChange></FrequencyChanges></Clock>\n	1 ver1_main_procedure-33-1	99.935	1.0.0.880	1	MD	972547283	prawa	1	2.0.10.182	08-15-2015	2015-08-15 13:23:14	15:23:14	kobieta	2.0.10.92	3	5	1	1																							d	{SPACE}		no	BlockProc2		BlockList									50	Cued	l	color_purple.png		-1	8	408819	160																			1					25	prime_left.png	0	408228	0	0	13	0	408229	0	408228	1	408228	20	0	-1	406729	408228	408227	0	prime_left.png	TrialProc1	right	0		1	10	408538	-408538		0	0	TrialList2	target_right.png	1	l	-1	3	408278	260	l	532	408810															5	1	50	neut			150
1 ver1_main_procedure	33	1	31	<?xml version="1.0"?>\n<Clock xmlns:dt="urn:schemas-microsoft-com:datatypes"><Description dt:dt="string">E-Prime Primary Realtime Clock</Description><StartTime><Timestamp dt:dt="int">0</Timestamp><DateUtc dt:dt="string">2015-08-15T13:23:14Z</DateUtc></StartTime><FrequencyChanges><FrequencyChange><Frequency dt:dt="r8">2612314</Frequency><Timestamp dt:dt="r8">972023828</Timestamp><Current dt:dt="r8">0</Current><DateUtc dt:dt="string">2015-08-15T13:23:14Z</DateUtc></FrequencyChange></FrequencyChanges></Clock>\n	1 ver1_main_procedure-33-1	99.935	1.0.0.880	1	MD	972547283	prawa	1	2.0.10.182	08-15-2015	2015-08-15 13:23:14	15:23:14	kobieta	2.0.10.92	3	5	1	1																							d	{SPACE}		no	BlockProc2		BlockList									51	Free	dl	color_purple.png		-1	7	411450	460																			2					75	prime_right.png	0	410790	0	0	13	0	410790	0	410790	1	410790	20	0	-1	409291	410790	410789	0	prime_right.png	TrialProc1	right	0		0	10	411100	-411100		0	0	TrialList2	target_both.png	0	dl	-1	3	410840	260	l	602	411442															11	1	51	neut			450
1 ver1_main_procedure	33	1	31	<?xml version="1.0"?>\n<Clock xmlns:dt="urn:schemas-microsoft-com:datatypes"><Description dt:dt="string">E-Prime Primary Realtime Clock</Description><StartTime><Timestamp dt:dt="int">0</Timestamp><DateUtc dt:dt="string">2015-08-15T13:23:14Z</DateUtc></StartTime><FrequencyChanges><FrequencyChange><Frequency dt:dt="r8">2612314</Frequency><Timestamp dt:dt="r8">972023828</Timestamp><Current dt:dt="r8">0</Current><DateUtc dt:dt="string">2015-08-15T13:23:14Z</DateUtc></FrequencyChange></FrequencyChanges></Clock>\n	1 ver1_main_procedure-33-1	99.935	1.0.0.880	1	MD	972547283	prawa	1	2.0.10.182	08-15-2015	2015-08-15 13:23:14	15:23:14	kobieta	2.0.10.92	3	5	1	1																							d	{SPACE}		no	BlockProc2		BlockList									52	Cued	l	color_blue.png		-1	13	414392	310																								75	prime_left.png	1	413722	0	0	13	1	413722	1	413722	0	413721	20	0	-1	412223	413721	413721	0		TrialProc1	right	0		0	11	414032	-414032		0	0	TrialList2	target_right.png	1	l	-1	3	413771	261	l	607	414378															6	1	52	incomp			300
1 ver1_main_procedure	33	1	31	<?xml version="1.0"?>\n<Clock xmlns:dt="urn:schemas-microsoft-com:datatypes"><Description dt:dt="string">E-Prime Primary Realtime Clock</Description><StartTime><Timestamp dt:dt="int">0</Timestamp><DateUtc dt:dt="string">2015-08-15T13:23:14Z</DateUtc></StartTime><FrequencyChanges><FrequencyChange><Frequency dt:dt="r8">2612314</Frequency><Timestamp dt:dt="r8">972023828</Timestamp><Current dt:dt="r8">0</Current><DateUtc dt:dt="string">2015-08-15T13:23:14Z</DateUtc></FrequencyChange></FrequencyChanges></Clock>\n	1 ver1_main_procedure-33-1	99.935	1.0.0.880	1	MD	972547283	prawa	1	2.0.10.182	08-15-2015	2015-08-15 13:23:14	15:23:14	kobieta	2.0.10.92	3	5	1	1																							d	{SPACE}		no	BlockProc2		BlockList									53	Free	dl	color_blue.png		-1	8	416963	311																								25	prime_left.png	0	416513	0	0	13	0	416513	0	416513	1	416513	20	0	-1	415014	416513	416512	0		TrialProc1	right	0		0	10	416823	-416823		0	0	TrialList2	target_both.png	0	dl	-1	3	416563	260	l	391	416954															12	1	53	incomp			300
1 ver1_main_procedure	33	1	31	<?xml version="1.0"?>\n<Clock xmlns:dt="urn:schemas-microsoft-com:datatypes"><Description dt:dt="string">E-Prime Primary Realtime Clock</Description><StartTime><Timestamp dt:dt="int">0</Timestamp><DateUtc dt:dt="string">2015-08-15T13:23:14Z</DateUtc></StartTime><FrequencyChanges><FrequencyChange><Frequency dt:dt="r8">2612314</Frequency><Timestamp dt:dt="r8">972023828</Timestamp><Current dt:dt="r8">0</Current><DateUtc dt:dt="string">2015-08-15T13:23:14Z</DateUtc></FrequencyChange></FrequencyChanges></Clock>\n	1 ver1_main_procedure-33-1	99.935	1.0.0.880	1	MD	972547283	prawa	1	2.0.10.182	08-15-2015	2015-08-15 13:23:14	15:23:14	kobieta	2.0.10.92	3	5	1	1																							d	{SPACE}		no	BlockProc2		BlockList									54	Free	dl	color_purple.png		-1	8	419595	310																			1					75	prime_left.png	0	419085	0	0	13	0	419085	0	419085	1	419085	20	0	-1	417586	419085	419084	0	prime_left.png	TrialProc1	right	0		0	10	419395	-419395		0	0	TrialList2	target_both.png	0	dl	-1	3	419135	260	l	451	419586															11	1	54	neut			300
1 ver1_main_procedure	33	1	31	<?xml version="1.0"?>\n<Clock xmlns:dt="urn:schemas-microsoft-com:datatypes"><Description dt:dt="string">E-Prime Primary Realtime Clock</Description><StartTime><Timestamp dt:dt="int">0</Timestamp><DateUtc dt:dt="string">2015-08-15T13:23:14Z</DateUtc></StartTime><FrequencyChanges><FrequencyChange><Frequency dt:dt="r8">2612314</Frequency><Timestamp dt:dt="r8">972023828</Timestamp><Current dt:dt="r8">0</Current><DateUtc dt:dt="string">2015-08-15T13:23:14Z</DateUtc></FrequencyChange></FrequencyChanges></Clock>\n	1 ver1_main_procedure-33-1	99.935	1.0.0.880	1	MD	972547283	prawa	1	2.0.10.182	08-15-2015	2015-08-15 13:23:14	15:23:14	kobieta	2.0.10.92	3	5	1	1																							d	{SPACE}		no	BlockProc2		BlockList									55	Cued	d	color_green.png		-1	14	422297	160																								25	prime_left.png	0	421716	0	0	13	0	421716	0	421716	1	421716	20	0	-1	420217	421716	421715	0		TrialProc1	left	0		1	10	422026	-422026		0	0	TrialList2	target_left.png	1	d	-1	3	421766	260	d	516	422282															1	1	55	comp			150
1 ver1_main_procedure	33	1	31	<?xml version="1.0"?>\n<Clock xmlns:dt="urn:schemas-microsoft-com:datatypes"><Description dt:dt="string">E-Prime Primary Realtime Clock</Description><StartTime><Timestamp dt:dt="int">0</Timestamp><DateUtc dt:dt="string">2015-08-15T13:23:14Z</DateUtc></StartTime><FrequencyChanges><FrequencyChange><Frequency dt:dt="r8">2612314</Frequency><Timestamp dt:dt="r8">972023828</Timestamp><Current dt:dt="r8">0</Current><DateUtc dt:dt="string">2015-08-15T13:23:14Z</DateUtc></FrequencyChange></FrequencyChanges></Clock>\n	1 ver1_main_procedure-33-1	99.935	1.0.0.880	1	MD	972547283	prawa	1	2.0.10.182	08-15-2015	2015-08-15 13:23:14	15:23:14	kobieta	2.0.10.92	3	5	1	1																							d	{SPACE}		no	BlockProc2		BlockList									56	Cued	l	color_blue.png		-1	11	424838	160																								25	prime_left.png	0	424268	0	0	13	0	424268	0	424268	1	424268	20	0	-1	422769	424268	424267	0		TrialProc1	right	0		0	10	424578	-424578		0	0	TrialList2	target_right.png	1	l	-1	3	424318	260	l	508	424826															6	1	56	incomp			150
1 ver1_main_procedure	33	1	31	<?xml version="1.0"?>\n<Clock xmlns:dt="urn:schemas-microsoft-com:datatypes"><Description dt:dt="string">E-Prime Primary Realtime Clock</Description><StartTime><Timestamp dt:dt="int">0</Timestamp><DateUtc dt:dt="string">2015-08-15T13:23:14Z</DateUtc></StartTime><FrequencyChanges><FrequencyChange><Frequency dt:dt="r8">2612314</Frequency><Timestamp dt:dt="r8">972023828</Timestamp><Current dt:dt="r8">0</Current><DateUtc dt:dt="string">2015-08-15T13:23:14Z</DateUtc></FrequencyChange></FrequencyChanges></Clock>\n	1 ver1_main_procedure-33-1	99.935	1.0.0.880	1	MD	972547283	prawa	1	2.0.10.182	08-15-2015	2015-08-15 13:23:14	15:23:14	kobieta	2.0.10.92	3	5	1	1																							d	{SPACE}		no	BlockProc2		BlockList									57	Cued	l	color_orange.png		-1	10	427269	461																								25	prime_right.png	0	426809	0	0	13	0	426809	0	426809	1	426809	20	0	-1	425310	426809	426808	0		TrialProc1	right	0		1	10	427119	-427119		0	0	TrialList2	target_right.png	1	l	-1	3	426859	260	l	399	427258															4	1	57	comp			450
1 ver1_main_procedure	33	1	31	<?xml version="1.0"?>\n<Clock xmlns:dt="urn:schemas-microsoft-com:datatypes"><Description dt:dt="string">E-Prime Primary Realtime Clock</Description><StartTime><Timestamp dt:dt="int">0</Timestamp><DateUtc dt:dt="string">2015-08-15T13:23:14Z</DateUtc></StartTime><FrequencyChanges><FrequencyChange><Frequency dt:dt="r8">2612314</Frequency><Timestamp dt:dt="r8">972023828</Timestamp><Current dt:dt="r8">0</Current><DateUtc dt:dt="string">2015-08-15T13:23:14Z</DateUtc></FrequencyChange></FrequencyChanges></Clock>\n	1 ver1_main_procedure-33-1	99.935	1.0.0.880	1	MD	972547283	prawa	1	2.0.10.182	08-15-2015	2015-08-15 13:23:14	15:23:14	kobieta	2.0.10.92	3	5	1	1																							d	{SPACE}		no	BlockProc2		BlockList									58	Cued	l	color_orange.png		-1	6	430041	160																								25	prime_right.png	0	429541	0	0	13	0	429541	0	429541	1	429541	20	0	-1	428042	429541	429540	0		TrialProc1	right	0		0	10	429851	-429851		0	0	TrialList2	target_right.png	1	l	-1	3	429591	260	l	443	430034															4	1	58	comp			150
1 ver1_main_procedure	33	1	31	<?xml version="1.0"?>\n<Clock xmlns:dt="urn:schemas-microsoft-com:datatypes"><Description dt:dt="string">E-Prime Primary Realtime Clock</Description><StartTime><Timestamp dt:dt="int">0</Timestamp><DateUtc dt:dt="string">2015-08-15T13:23:14Z</DateUtc></StartTime><FrequencyChanges><FrequencyChange><Frequency dt:dt="r8">2612314</Frequency><Timestamp dt:dt="r8">972023828</Timestamp><Current dt:dt="r8">0</Current><DateUtc dt:dt="string">2015-08-15T13:23:14Z</DateUtc></FrequencyChange></FrequencyChanges></Clock>\n	1 ver1_main_procedure-33-1	99.935	1.0.0.880	1	MD	972547283	prawa	1	2.0.10.182	08-15-2015	2015-08-15 13:23:14	15:23:14	kobieta	2.0.10.92	3	5	1	1																							d	{SPACE}		no	BlockProc2		BlockList									59	Free	dl			-1	1	433823	461																								75	prime_left.png	0	432012	0	0	13	0	432012	0	432012	1	432012	20	0	-1	430513	432012	432011	0		TrialProc1	right	0		1	10	432322	1501		0	0	TrialList2	target_both.png	0	dl	-1	3	432062	260		0	0															12	1	59	incomp			450
1 ver1_main_procedure	33	1	31	<?xml version="1.0"?>\n<Clock xmlns:dt="urn:schemas-microsoft-com:datatypes"><Description dt:dt="string">E-Prime Primary Realtime Clock</Description><StartTime><Timestamp dt:dt="int">0</Timestamp><DateUtc dt:dt="string">2015-08-15T13:23:14Z</DateUtc></StartTime><FrequencyChanges><FrequencyChange><Frequency dt:dt="r8">2612314</Frequency><Timestamp dt:dt="r8">972023828</Timestamp><Current dt:dt="r8">0</Current><DateUtc dt:dt="string">2015-08-15T13:23:14Z</DateUtc></FrequencyChange></FrequencyChanges></Clock>\n	1 ver1_main_procedure-33-1	99.935	1.0.0.880	1	MD	972547283	prawa	1	2.0.10.182	08-15-2015	2015-08-15 13:23:14	15:23:14	kobieta	2.0.10.92	3	5	1	1																							d	{SPACE}		no	BlockProc2		BlockList									60	Free	dl	color_blue.png		-1	12	436575	160																								75	prime_left.png	0	436095	0	0	13	0	436095	0	436095	1	436095	20	0	-1	434596	436095	436094	0		TrialProc1	right	0		0	10	436405	-436405		0	0	TrialList2	target_both.png	0	dl	-1	3	436145	260	l	417	436562															12	1	60	incomp			150
1 ver1_main_procedure	33	1	31	<?xml version="1.0"?>\n<Clock xmlns:dt="urn:schemas-microsoft-com:datatypes"><Description dt:dt="string">E-Prime Primary Realtime Clock</Description><StartTime><Timestamp dt:dt="int">0</Timestamp><DateUtc dt:dt="string">2015-08-15T13:23:14Z</DateUtc></StartTime><FrequencyChanges><FrequencyChange><Frequency dt:dt="r8">2612314</Frequency><Timestamp dt:dt="r8">972023828</Timestamp><Current dt:dt="r8">0</Current><DateUtc dt:dt="string">2015-08-15T13:23:14Z</DateUtc></FrequencyChange></FrequencyChanges></Clock>\n	1 ver1_main_procedure-33-1	99.935	1.0.0.880	1	MD	972547283	prawa	1	2.0.10.182	08-15-2015	2015-08-15 13:23:14	15:23:14	kobieta	2.0.10.92	3	5	1	1																							d	{SPACE}		no	BlockProc2		BlockList									61	Free	dl	color_blue.png		-1	10	439077	460																								75	prime_left.png	0	438546	0	0	13	0	438546	0	438546	1	438546	20	0	-1	437047	438546	438545	0		TrialProc1	left	0		1	10	438856	-438856		0	0	TrialList2	target_both.png	0	dl	-1	3	438596	260	l	470	439066															7	1	61	comp			450
1 ver1_main_procedure	33	1	31	<?xml version="1.0"?>\n<Clock xmlns:dt="urn:schemas-microsoft-com:datatypes"><Description dt:dt="string">E-Prime Primary Realtime Clock</Description><StartTime><Timestamp dt:dt="int">0</Timestamp><DateUtc dt:dt="string">2015-08-15T13:23:14Z</DateUtc></StartTime><FrequencyChanges><FrequencyChange><Frequency dt:dt="r8">2612314</Frequency><Timestamp dt:dt="r8">972023828</Timestamp><Current dt:dt="r8">0</Current><DateUtc dt:dt="string">2015-08-15T13:23:14Z</DateUtc></FrequencyChange></FrequencyChanges></Clock>\n	1 ver1_main_procedure-33-1	99.935	1.0.0.880	1	MD	972547283	prawa	1	2.0.10.182	08-15-2015	2015-08-15 13:23:14	15:23:14	kobieta	2.0.10.92	3	5	1	1																							d	{SPACE}		no	BlockProc2		BlockList									62	Free	dl	color_orange.png		-1	9	441788	460																								25	prime_right.png	0	441348	0	0	13	0	441348	0	441348	1	441348	20	0	-1	439849	441348	441347	0		TrialProc1	right	0		0	10	441658	-441658		0	0	TrialList2	target_both.png	0	dl	-1	3	441398	260	l	381	441779															10	1	62	comp			450
1 ver1_main_procedure	33	1	31	<?xml version="1.0"?>\n<Clock xmlns:dt="urn:schemas-microsoft-com:datatypes"><Description dt:dt="string">E-Prime Primary Realtime Clock</Description><StartTime><Timestamp dt:dt="int">0</Timestamp><DateUtc dt:dt="string">2015-08-15T13:23:14Z</DateUtc></StartTime><FrequencyChanges><FrequencyChange><Frequency dt:dt="r8">2612314</Frequency><Timestamp dt:dt="r8">972023828</Timestamp><Current dt:dt="r8">0</Current><DateUtc dt:dt="string">2015-08-15T13:23:14Z</DateUtc></FrequencyChange></FrequencyChanges></Clock>\n	1 ver1_main_procedure-33-1	99.935	1.0.0.880	1	MD	972547283	prawa	1	2.0.10.182	08-15-2015	2015-08-15 13:23:14	15:23:14	kobieta	2.0.10.92	3	5	1	1																							d	{SPACE}		no	BlockProc2		BlockList									63	Cued	d	color_green.png		-1	15	444650	310																								25	prime_left.png	1	444060	0	0	13	1	444060	1	444060	0	444059	20	0	-1	442560	444059	444059	0		TrialProc1	left	0		0	10	444370	-444370		0	0	TrialList2	target_left.png	1	d	-1	4	444110	260	d	525	444635															1	1	63	comp			300
1 ver1_main_procedure	33	1	31	<?xml version="1.0"?>\n<Clock xmlns:dt="urn:schemas-microsoft-com:datatypes"><Description dt:dt="string">E-Prime Primary Realtime Clock</Description><StartTime><Timestamp dt:dt="int">0</Timestamp><DateUtc dt:dt="string">2015-08-15T13:23:14Z</DateUtc></StartTime><FrequencyChanges><FrequencyChange><Frequency dt:dt="r8">2612314</Frequency><Timestamp dt:dt="r8">972023828</Timestamp><Current dt:dt="r8">0</Current><DateUtc dt:dt="string">2015-08-15T13:23:14Z</DateUtc></FrequencyChange></FrequencyChanges></Clock>\n	1 ver1_main_procedure-33-1	99.935	1.0.0.880	1	MD	972547283	prawa	1	2.0.10.182	08-15-2015	2015-08-15 13:23:14	15:23:14	kobieta	2.0.10.92	3	5	1	1																							d	{SPACE}		no	BlockProc2		BlockList									64	Free	dl	color_green.png		-1	14	447521	311																								75	prime_left.png	0	446771	0	0	13	0	446771	0	446771	1	446771	20	0	-1	445272	446771	446770	0		TrialProc1	left	0		0	10	447081	-447081		0	0	TrialList2	target_both.png	0	dl	-1	3	446821	260	d	686	447507															7	1	64	comp			300
1 ver1_main_procedure	33	1	31	<?xml version="1.0"?>\n<Clock xmlns:dt="urn:schemas-microsoft-com:datatypes"><Description dt:dt="string">E-Prime Primary Realtime Clock</Description><StartTime><Timestamp dt:dt="int">0</Timestamp><DateUtc dt:dt="string">2015-08-15T13:23:14Z</DateUtc></StartTime><FrequencyChanges><FrequencyChange><Frequency dt:dt="r8">2612314</Frequency><Timestamp dt:dt="r8">972023828</Timestamp><Current dt:dt="r8">0</Current><DateUtc dt:dt="string">2015-08-15T13:23:14Z</DateUtc></FrequencyChange></FrequencyChanges></Clock>\n	1 ver1_main_procedure-33-1	99.935	1.0.0.880	1	MD	972547283	prawa	1	2.0.10.182	08-15-2015	2015-08-15 13:23:14	15:23:14	kobieta	2.0.10.92	3	5	1	1																							d	{SPACE}		no	BlockProc2		BlockList									65	Free	dl	color_blue.png		-1	14	450193	310																								75	prime_left.png	0	449643	0	0	13	0	449643	0	449643	1	449643	20	0	-1	448144	449643	449642	0		TrialProc1	left	0		0	10	449953	-449953		0	0	TrialList2	target_both.png	0	dl	-1	3	449693	260	l	486	450179															7	1	65	comp			300
1 ver1_main_procedure	33	1	31	<?xml version="1.0"?>\n<Clock xmlns:dt="urn:schemas-microsoft-com:datatypes"><Description dt:dt="string">E-Prime Primary Realtime Clock</Description><StartTime><Timestamp dt:dt="int">0</Timestamp><DateUtc dt:dt="string">2015-08-15T13:23:14Z</DateUtc></StartTime><FrequencyChanges><FrequencyChange><Frequency dt:dt="r8">2612314</Frequency><Timestamp dt:dt="r8">972023828</Timestamp><Current dt:dt="r8">0</Current><DateUtc dt:dt="string">2015-08-15T13:23:14Z</DateUtc></FrequencyChange></FrequencyChanges></Clock>\n	1 ver1_main_procedure-33-1	99.935	1.0.0.880	1	MD	972547283	prawa	1	2.0.10.182	08-15-2015	2015-08-15 13:23:14	15:23:14	kobieta	2.0.10.92	3	5	1	1																							d	{SPACE}		no	BlockProc2		BlockList									66	Free	dl	color_orange.png		-1	6	453225	460																								25	prime_right.png	0	452314	0	0	13	0	452314	0	452314	1	452314	20	0	-1	450815	452314	452313	0		TrialProc1	right	0		0	11	452625	-452625		0	0	TrialList2	target_both.png	0	dl	-1	3	452364	261	l	855	453219															10	1	66	comp			450
1 ver1_main_procedure	33	1	31	<?xml version="1.0"?>\n<Clock xmlns:dt="urn:schemas-microsoft-com:datatypes"><Description dt:dt="string">E-Prime Primary Realtime Clock</Description><StartTime><Timestamp dt:dt="int">0</Timestamp><DateUtc dt:dt="string">2015-08-15T13:23:14Z</DateUtc></StartTime><FrequencyChanges><FrequencyChange><Frequency dt:dt="r8">2612314</Frequency><Timestamp dt:dt="r8">972023828</Timestamp><Current dt:dt="r8">0</Current><DateUtc dt:dt="string">2015-08-15T13:23:14Z</DateUtc></FrequencyChange></FrequencyChanges></Clock>\n	1 ver1_main_procedure-33-1	99.935	1.0.0.880	1	MD	972547283	prawa	1	2.0.10.182	08-15-2015	2015-08-15 13:23:14	15:23:14	kobieta	2.0.10.92	3	5	1	1																							d	{SPACE}		no	BlockProc2		BlockList									67	Free	dl	color_purple.png		-1	14	456057	310																			2					25	prime_right.png	0	455496	0	0	13	0	455496	0	455496	1	455496	20	0	-1	453997	455496	455495	0	prime_right.png	TrialProc1	right	0		0	10	455806	-455806		0	0	TrialList2	target_both.png	0	dl	-1	3	455546	260	l	497	456043															11	1	67	neut			300
1 ver1_main_procedure	33	1	31	<?xml version="1.0"?>\n<Clock xmlns:dt="urn:schemas-microsoft-com:datatypes"><Description dt:dt="string">E-Prime Primary Realtime Clock</Description><StartTime><Timestamp dt:dt="int">0</Timestamp><DateUtc dt:dt="string">2015-08-15T13:23:14Z</DateUtc></StartTime><FrequencyChanges><FrequencyChange><Frequency dt:dt="r8">2612314</Frequency><Timestamp dt:dt="r8">972023828</Timestamp><Current dt:dt="r8">0</Current><DateUtc dt:dt="string">2015-08-15T13:23:14Z</DateUtc></FrequencyChange></FrequencyChanges></Clock>\n	1 ver1_main_procedure-33-1	99.935	1.0.0.880	1	MD	972547283	prawa	1	2.0.10.182	08-15-2015	2015-08-15 13:23:14	15:23:14	kobieta	2.0.10.92	3	5	1	1																							d	{SPACE}		no	BlockProc2		BlockList									68	Free	dl	color_orange.png		-1	11	458638	460																								75	prime_right.png	0	458178	0	0	13	0	458178	0	458178	1	458178	20	0	-1	456679	458178	458177	0		TrialProc1	left	0		0	10	458488	-458488		0	0	TrialList2	target_both.png	0	dl	-1	3	458228	260	l	399	458627															9	1	68	incomp			450
1 ver1_main_procedure	33	1	31	<?xml version="1.0"?>\n<Clock xmlns:dt="urn:schemas-microsoft-com:datatypes"><Description dt:dt="string">E-Prime Primary Realtime Clock</Description><StartTime><Timestamp dt:dt="int">0</Timestamp><DateUtc dt:dt="string">2015-08-15T13:23:14Z</DateUtc></StartTime><FrequencyChanges><FrequencyChange><Frequency dt:dt="r8">2612314</Frequency><Timestamp dt:dt="r8">972023828</Timestamp><Current dt:dt="r8">0</Current><DateUtc dt:dt="string">2015-08-15T13:23:14Z</DateUtc></FrequencyChange></FrequencyChanges></Clock>\n	1 ver1_main_procedure-33-1	99.935	1.0.0.880	1	MD	972547283	prawa	1	2.0.10.182	08-15-2015	2015-08-15 13:23:14	15:23:14	kobieta	2.0.10.92	3	5	1	1																							d	{SPACE}		no	BlockProc2		BlockList									69	Free	dl	color_orange.png		-1	8	461300	310																								25	prime_right.png	0	460909	0	0	13	1	460910	1	460910	1	460909	20	0	-1	459410	460909	460908	0		TrialProc1	left	0		0	11	461220	-461220		0	0	TrialList2	target_both.png	0	dl	-1	3	460959	261	l	332	461291															9	1	69	incomp			300
1 ver1_main_procedure	33	1	31	<?xml version="1.0"?>\n<Clock xmlns:dt="urn:schemas-microsoft-com:datatypes"><Description dt:dt="string">E-Prime Primary Realtime Clock</Description><StartTime><Timestamp dt:dt="int">0</Timestamp><DateUtc dt:dt="string">2015-08-15T13:23:14Z</DateUtc></StartTime><FrequencyChanges><FrequencyChange><Frequency dt:dt="r8">2612314</Frequency><Timestamp dt:dt="r8">972023828</Timestamp><Current dt:dt="r8">0</Current><DateUtc dt:dt="string">2015-08-15T13:23:14Z</DateUtc></FrequencyChange></FrequencyChanges></Clock>\n	1 ver1_main_procedure-33-1	99.935	1.0.0.880	1	MD	972547283	prawa	1	2.0.10.182	08-15-2015	2015-08-15 13:23:14	15:23:14	kobieta	2.0.10.92	3	5	1	1																							d	{SPACE}		no	BlockProc2		BlockList									70	Free	dl	color_blue.png		-1	11	463871	160																								25	prime_left.png	0	463421	0	0	13	0	463421	0	463421	1	463421	20	0	-1	461922	463421	463420	0		TrialProc1	right	0		0	10	463731	-463731		0	0	TrialList2	target_both.png	0	dl	-1	3	463471	260	l	388	463859															12	1	70	incomp			150
1 ver1_main_procedure	33	1	31	<?xml version="1.0"?>\n<Clock xmlns:dt="urn:schemas-microsoft-com:datatypes"><Description dt:dt="string">E-Prime Primary Realtime Clock</Description><StartTime><Timestamp dt:dt="int">0</Timestamp><DateUtc dt:dt="string">2015-08-15T13:23:14Z</DateUtc></StartTime><FrequencyChanges><FrequencyChange><Frequency dt:dt="r8">2612314</Frequency><Timestamp dt:dt="r8">972023828</Timestamp><Current dt:dt="r8">0</Current><DateUtc dt:dt="string">2015-08-15T13:23:14Z</DateUtc></FrequencyChange></FrequencyChanges></Clock>\n	1 ver1_main_procedure-33-1	99.935	1.0.0.880	1	MD	972547283	prawa	1	2.0.10.182	08-15-2015	2015-08-15 13:23:14	15:23:14	kobieta	2.0.10.92	3	5	1	1																							d	{SPACE}		no	BlockProc2		BlockList									71	Free	dl	color_blue.png		-1	9	466253	310																								25	prime_left.png	0	465842	0	0	13	0	465843	0	465842	1	465842	20	0	-1	464343	465842	465841	0		TrialProc1	right	0		1	10	466152	-466152		0	0	TrialList2	target_both.png	0	dl	-1	3	465892	260	l	351	466243															12	1	71	incomp			300
1 ver1_main_procedure	33	1	31	<?xml version="1.0"?>\n<Clock xmlns:dt="urn:schemas-microsoft-com:datatypes"><Description dt:dt="string">E-Prime Primary Realtime Clock</Description><StartTime><Timestamp dt:dt="int">0</Timestamp><DateUtc dt:dt="string">2015-08-15T13:23:14Z</DateUtc></StartTime><FrequencyChanges><FrequencyChange><Frequency dt:dt="r8">2612314</Frequency><Timestamp dt:dt="r8">972023828</Timestamp><Current dt:dt="r8">0</Current><DateUtc dt:dt="string">2015-08-15T13:23:14Z</DateUtc></FrequencyChange></FrequencyChanges></Clock>\n	1 ver1_main_procedure-33-1	99.935	1.0.0.880	1	MD	972547283	prawa	1	2.0.10.182	08-15-2015	2015-08-15 13:23:14	15:23:14	kobieta	2.0.10.92	3	5	1	1																							d	{SPACE}		no	BlockProc2		BlockList									72	Free	dl	color_blue.png		-1	12	468904	460																								75	prime_left.png	0	468374	0	0	13	0	468374	0	468374	1	468374	20	0	-1	466875	468374	468373	0		TrialProc1	left	0		0	10	468684	-468684		0	0	TrialList2	target_both.png	0	dl	-1	3	468424	260	l	467	468891															7	1	72	comp			450
1 ver1_main_procedure	33	1	31	<?xml version="1.0"?>\n<Clock xmlns:dt="urn:schemas-microsoft-com:datatypes"><Description dt:dt="string">E-Prime Primary Realtime Clock</Description><StartTime><Timestamp dt:dt="int">0</Timestamp><DateUtc dt:dt="string">2015-08-15T13:23:14Z</DateUtc></StartTime><FrequencyChanges><FrequencyChange><Frequency dt:dt="r8">2612314</Frequency><Timestamp dt:dt="r8">972023828</Timestamp><Current dt:dt="r8">0</Current><DateUtc dt:dt="string">2015-08-15T13:23:14Z</DateUtc></FrequencyChange></FrequencyChanges></Clock>\n	1 ver1_main_procedure-33-1	99.935	1.0.0.880	1	MD	972547283	prawa	1	2.0.10.182	08-15-2015	2015-08-15 13:23:14	15:23:14	kobieta	2.0.10.92	3	5	1	1																							d	{SPACE}		no	BlockProc2		BlockList									73									6	1	4	5	2	3	color_green.png	color_yellow.png	color_orange.png	color_red.png	color_purple.png	color_blue.png	color_yellow.png	color_purple.png	color_blue.png	color_orange.png	color_red.png	color_green.png		1	1	1	33966																						DragProc											Ocena																															
1 ver1_main_procedure	33	1	31	<?xml version="1.0"?>\n<Clock xmlns:dt="urn:schemas-microsoft-com:datatypes"><Description dt:dt="string">E-Prime Primary Realtime Clock</Description><StartTime><Timestamp dt:dt="int">0</Timestamp><DateUtc dt:dt="string">2015-08-15T13:23:14Z</DateUtc></StartTime><FrequencyChanges><FrequencyChange><Frequency dt:dt="r8">2612314</Frequency><Timestamp dt:dt="r8">972023828</Timestamp><Current dt:dt="r8">0</Current><DateUtc dt:dt="string">2015-08-15T13:23:14Z</DateUtc></FrequencyChange></FrequencyChanges></Clock>\n	1 ver1_main_procedure-33-1	99.935	1.0.0.880	1	MD	972547283	prawa	1	2.0.10.182	08-15-2015	2015-08-15 13:23:14	15:23:14	kobieta	2.0.10.92	3	5	1	1																							d	{SPACE}		no	BlockProc2		BlockList									74				Niektóre wartości nie zostały uzupełnione.											color_green.png	color_yellow.png	color_orange.png	color_red.png	color_purple.png	color_blue.png								2	1	2																							EnterProc											Ocena												1	2	3	4	5	6														
1 ver1_main_procedure	33	1	31	<?xml version="1.0"?>\n<Clock xmlns:dt="urn:schemas-microsoft-com:datatypes"><Description dt:dt="string">E-Prime Primary Realtime Clock</Description><StartTime><Timestamp dt:dt="int">0</Timestamp><DateUtc dt:dt="string">2015-08-15T13:23:14Z</DateUtc></StartTime><FrequencyChanges><FrequencyChange><Frequency dt:dt="r8">2612314</Frequency><Timestamp dt:dt="r8">972023828</Timestamp><Current dt:dt="r8">0</Current><DateUtc dt:dt="string">2015-08-15T13:23:14Z</DateUtc></FrequencyChange></FrequencyChanges></Clock>\n	1 ver1_main_procedure-33-1	99.935	1.0.0.880	1	MD	972547283	prawa	1	2.0.10.182	08-15-2015	2015-08-15 13:23:14	15:23:14	kobieta	2.0.10.92	4	4	1	2																							l	{SPACE}		no	BlockProc2		BlockList									1	Cued	d	color_orange.png		-1	8	662599	310																			1					75	prime_left.png	0	661198	0	0	13	0	661198	0	661198	1	661198	20	0	-1	659699	661198	661197	0	prime_left.png	TrialProc1	left	0		0	10	661508	-661508		0	0	TrialList2	target_left.png	1	d	-1	3	661248	260	d	1342	662590															2	2	73	neut			300
1 ver1_main_procedure	33	1	31	<?xml version="1.0"?>\n<Clock xmlns:dt="urn:schemas-microsoft-com:datatypes"><Description dt:dt="string">E-Prime Primary Realtime Clock</Description><StartTime><Timestamp dt:dt="int">0</Timestamp><DateUtc dt:dt="string">2015-08-15T13:23:14Z</DateUtc></StartTime><FrequencyChanges><FrequencyChange><Frequency dt:dt="r8">2612314</Frequency><Timestamp dt:dt="r8">972023828</Timestamp><Current dt:dt="r8">0</Current><DateUtc dt:dt="string">2015-08-15T13:23:14Z</DateUtc></FrequencyChange></FrequencyChanges></Clock>\n	1 ver1_main_procedure-33-1	99.935	1.0.0.880	1	MD	972547283	prawa	1	2.0.10.182	08-15-2015	2015-08-15 13:23:14	15:23:14	kobieta	2.0.10.92	4	4	1	2																							l	{SPACE}		no	BlockProc2		BlockList									2	Free	dl	color_blue.png		-1	14	665781	310																								75	prime_right.png	0	664720	0	0	13	0	664720	0	664720	1	664720	20	0	-1	663221	664720	664719	0		TrialProc1	right	0		0	10	665030	-665030		0	0	TrialList2	target_both.png	0	dl	-1	3	664770	260	l	996	665766															10	2	74	comp			300
1 ver1_main_procedure	33	1	31	<?xml version="1.0"?>\n<Clock xmlns:dt="urn:schemas-microsoft-com:datatypes"><Description dt:dt="string">E-Prime Primary Realtime Clock</Description><StartTime><Timestamp dt:dt="int">0</Timestamp><DateUtc dt:dt="string">2015-08-15T13:23:14Z</DateUtc></StartTime><FrequencyChanges><FrequencyChange><Frequency dt:dt="r8">2612314</Frequency><Timestamp dt:dt="r8">972023828</Timestamp><Current dt:dt="r8">0</Current><DateUtc dt:dt="string">2015-08-15T13:23:14Z</DateUtc></FrequencyChange></FrequencyChanges></Clock>\n	1 ver1_main_procedure-33-1	99.935	1.0.0.880	1	MD	972547283	prawa	1	2.0.10.182	08-15-2015	2015-08-15 13:23:14	15:23:14	kobieta	2.0.10.92	4	4	1	2																							l	{SPACE}		no	BlockProc2		BlockList									3	Free	dl	color_purple.png		-1	5	668452	460																								75	prime_left.png	0	667902	0	0	13	0	667902	0	667902	1	667902	20	0	-1	666403	667902	667901	0		TrialProc1	left	0		0	10	668212	-668212		0	0	TrialList2	target_both.png	0	dl	-1	3	667952	260	l	494	668446															7	2	75	comp			450
1 ver1_main_procedure	33	1	31	<?xml version="1.0"?>\n<Clock xmlns:dt="urn:schemas-microsoft-com:datatypes"><Description dt:dt="string">E-Prime Primary Realtime Clock</Description><StartTime><Timestamp dt:dt="int">0</Timestamp><DateUtc dt:dt="string">2015-08-15T13:23:14Z</DateUtc></StartTime><FrequencyChanges><FrequencyChange><Frequency dt:dt="r8">2612314</Frequency><Timestamp dt:dt="r8">972023828</Timestamp><Current dt:dt="r8">0</Current><DateUtc dt:dt="string">2015-08-15T13:23:14Z</DateUtc></FrequencyChange></FrequencyChanges></Clock>\n	1 ver1_main_procedure-33-1	99.935	1.0.0.880	1	MD	972547283	prawa	1	2.0.10.182	08-15-2015	2015-08-15 13:23:14	15:23:14	kobieta	2.0.10.92	4	4	1	2																							l	{SPACE}		no	BlockProc2		BlockList									4	Free	dl	color_purple.png		-1	15	671214	160																								75	prime_left.png	0	670724	0	0	13	0	670724	0	670724	1	670724	19	0	-1	669224	670724	670723	0		TrialProc1	right	0		0	11	671034	-671034		0	0	TrialList2	target_both.png	0	dl	-1	3	670773	261	l	425	671198															12	2	76	incomp			150
1 ver1_main_procedure	33	1	31	<?xml version="1.0"?>\n<Clock xmlns:dt="urn:schemas-microsoft-com:datatypes"><Description dt:dt="string">E-Prime Primary Realtime Clock</Description><StartTime><Timestamp dt:dt="int">0</Timestamp><DateUtc dt:dt="string">2015-08-15T13:23:14Z</DateUtc></StartTime><FrequencyChanges><FrequencyChange><Frequency dt:dt="r8">2612314</Frequency><Timestamp dt:dt="r8">972023828</Timestamp><Current dt:dt="r8">0</Current><DateUtc dt:dt="string">2015-08-15T13:23:14Z</DateUtc></FrequencyChange></FrequencyChanges></Clock>\n	1 ver1_main_procedure-33-1	99.935	1.0.0.880	1	MD	972547283	prawa	1	2.0.10.182	08-15-2015	2015-08-15 13:23:14	15:23:14	kobieta	2.0.10.92	4	4	1	2																							l	{SPACE}		no	BlockProc2		BlockList									5	Cued	d	color_red.png		-1	12	673955	161																								25	prime_left.png	0	673185	0	0	13	0	673185	0	673185	1	673185	20	0	-1	671686	673185	673184	0		TrialProc1	left	0		0	10	673495	-673495		0	0	TrialList2	target_left.png	1	d	-1	3	673235	260	d	707	673942															1	2	77	comp			150
1 ver1_main_procedure	33	1	31	<?xml version="1.0"?>\n<Clock xmlns:dt="urn:schemas-microsoft-com:datatypes"><Description dt:dt="string">E-Prime Primary Realtime Clock</Description><StartTime><Timestamp dt:dt="int">0</Timestamp><DateUtc dt:dt="string">2015-08-15T13:23:14Z</DateUtc></StartTime><FrequencyChanges><FrequencyChange><Frequency dt:dt="r8">2612314</Frequency><Timestamp dt:dt="r8">972023828</Timestamp><Current dt:dt="r8">0</Current><DateUtc dt:dt="string">2015-08-15T13:23:14Z</DateUtc></FrequencyChange></FrequencyChanges></Clock>\n	1 ver1_main_procedure-33-1	99.935	1.0.0.880	1	MD	972547283	prawa	1	2.0.10.182	08-15-2015	2015-08-15 13:23:14	15:23:14	kobieta	2.0.10.92	4	4	1	2																							l	{SPACE}		no	BlockProc2		BlockList									6	Free	dl	color_purple.png		-1	14	676557	160																								25	prime_left.png	0	675927	0	0	13	0	675927	0	675927	1	675927	20	0	-1	674428	675927	675926	0		TrialProc1	left	0		0	10	676237	-676237		0	0	TrialList2	target_both.png	0	dl	-1	3	675977	260	l	565	676542															7	2	78	comp			150
1 ver1_main_procedure	33	1	31	<?xml version="1.0"?>\n<Clock xmlns:dt="urn:schemas-microsoft-com:datatypes"><Description dt:dt="string">E-Prime Primary Realtime Clock</Description><StartTime><Timestamp dt:dt="int">0</Timestamp><DateUtc dt:dt="string">2015-08-15T13:23:14Z</DateUtc></StartTime><FrequencyChanges><FrequencyChange><Frequency dt:dt="r8">2612314</Frequency><Timestamp dt:dt="r8">972023828</Timestamp><Current dt:dt="r8">0</Current><DateUtc dt:dt="string">2015-08-15T13:23:14Z</DateUtc></FrequencyChange></FrequencyChanges></Clock>\n	1 ver1_main_procedure-33-1	99.935	1.0.0.880	1	MD	972547283	prawa	1	2.0.10.182	08-15-2015	2015-08-15 13:23:14	15:23:14	kobieta	2.0.10.92	4	4	1	2																							l	{SPACE}		no	BlockProc2		BlockList									7	Free	dl	color_yellow.png		-1	13	679068	461																			2					75	prime_right.png	0	678528	0	0	13	0	678528	0	678528	1	678528	20	0	-1	677029	678528	678527	0	prime_right.png	TrialProc1	right	0		1	10	678838	-678838		0	0	TrialList2	target_both.png	0	dl	-1	3	678578	260	l	476	679054															11	2	79	neut			450
1 ver1_main_procedure	33	1	31	<?xml version="1.0"?>\n<Clock xmlns:dt="urn:schemas-microsoft-com:datatypes"><Description dt:dt="string">E-Prime Primary Realtime Clock</Description><StartTime><Timestamp dt:dt="int">0</Timestamp><DateUtc dt:dt="string">2015-08-15T13:23:14Z</DateUtc></StartTime><FrequencyChanges><FrequencyChange><Frequency dt:dt="r8">2612314</Frequency><Timestamp dt:dt="r8">972023828</Timestamp><Current dt:dt="r8">0</Current><DateUtc dt:dt="string">2015-08-15T13:23:14Z</DateUtc></FrequencyChange></FrequencyChanges></Clock>\n	1 ver1_main_procedure-33-1	99.935	1.0.0.880	1	MD	972547283	prawa	1	2.0.10.182	08-15-2015	2015-08-15 13:23:14	15:23:14	kobieta	2.0.10.92	4	4	1	2																							l	{SPACE}		no	BlockProc2		BlockList									8	Free	dl	color_blue.png		-1	7	681750	460																								25	prime_right.png	0	681340	0	0	13	0	681340	0	681340	1	681340	20	0	-1	679841	681340	681339	0		TrialProc1	right	0		0	10	681650	-681650		0	0	TrialList2	target_both.png	0	dl	-1	3	681390	260	l	352	681742															10	2	80	comp			450
1 ver1_main_procedure	33	1	31	<?xml version="1.0"?>\n<Clock xmlns:dt="urn:schemas-microsoft-com:datatypes"><Description dt:dt="string">E-Prime Primary Realtime Clock</Description><StartTime><Timestamp dt:dt="int">0</Timestamp><DateUtc dt:dt="string">2015-08-15T13:23:14Z</DateUtc></StartTime><FrequencyChanges><FrequencyChange><Frequency dt:dt="r8">2612314</Frequency><Timestamp dt:dt="r8">972023828</Timestamp><Current dt:dt="r8">0</Current><DateUtc dt:dt="string">2015-08-15T13:23:14Z</DateUtc></FrequencyChange></FrequencyChanges></Clock>\n	1 ver1_main_procedure-33-1	99.935	1.0.0.880	1	MD	972547283	prawa	1	2.0.10.182	08-15-2015	2015-08-15 13:23:14	15:23:14	kobieta	2.0.10.92	4	4	1	2																							l	{SPACE}		no	BlockProc2		BlockList									9	Free	dl	color_orange.png		-1	7	684742	460																			1					25	prime_left.png	0	684021	0	0	13	1	684022	1	684022	0	684021	20	0	-1	682522	684021	684021	0	prime_left.png	TrialProc1	right	0		0	11	684332	-684332		0	0	TrialList2	target_both.png	0	dl	-1	3	684071	261	d	663	684734															11	2	81	neut			450
