ExperimentName	Subject	Session	Age	Clock.Information	DataFile.Basename	Display.RefreshRate	ExperimentVersion	Group	Name	RandomSeed	Recznosc	ResearcherID	RuntimeVersion	SessionDate	SessionStartDateTimeUtc	SessionTime	Sex	StudioVersion	Block	BlockList	BlockList.Cycle	BlockList.Sample	BlockNumber	GoodBye.RESP	GoodBye2.RESP	GoodByeList	GoodByeList.Cycle	GoodByeList.Sample	InstrList	InstrList.Cycle	InstrList.Sample	Instructions3.RESP	Instructions4.RESP	Instructions5.RESP	kobieta_S1	kobieta_S2	kobieta_S3	kobieta_S4	kobieta_S5	mezczyzna_S1	mezczyzna_S2	mezczyzna_S3	mezczyzna_S4	mezczyzna_S5	NextBlock.RESP	NextBlock0.RESP	planowanie	PracticeMode	Procedure[Block]	proszenie	Running[Block]	TrainingList	TrainingList.Cycle	TrainingList.Sample	WordList	WordList1	wykonanie	zauwazenie	zrozumienie	Trial	ChoiceType	CorrectRespon	Effect	ErrorText	Fixation2.DurationError	Fixation2.OnsetDelay	Fixation2.OnsetTime	Fixation2.OnsetToOnsetTime	GoalRespInd1	GoalRespInd2	GoalRespInd3	GoalRespInd4	GoalRespInd5	GoalRespInd6	GoalRespName1	GoalRespName2	GoalRespName3	GoalRespName4	GoalRespName5	GoalRespName6	kol1	kol2	kol3	kol4	kol5	kol6	NeutralPrimeList1	Ocena	Ocena.Cycle	Ocena.Sample	OverallRT	Posit	Prime	Prime.ActionDelay	Prime.ActionTime	Prime.CustomOffsetTime	Prime.CustomOnsetTime	Prime.Duration	Prime.DurationError	Prime.FinishTime	Prime.OffsetDelay	Prime.OffsetTime	Prime.OnsetDelay	Prime.OnsetTime	Prime.OnsetToOnsetTime	Prime.PendingInputMasks	Prime.PreRelease	Prime.StartTime	Prime.TargetOffsetTime	Prime.TargetOnsetTime	Prime.TimingMode	PrimeChoice	Procedure[Trial]	Resp	RespWin.ACC	RespWin.CRESP	RespWin.DurationError	RespWin.OnsetDelay	RespWin.OnsetTime	RespWin.OnsetToOnsetTime	RespWin.RESP	RespWin.RT	RespWin.RTTime	Running[Trial]	Target	TargetSlide.ACC	TargetSlide.CRESP	TargetSlide.DurationError	TargetSlide.OnsetDelay	TargetSlide.OnsetTime	TargetSlide.OnsetToOnsetTime	TargetSlide.RESP	TargetSlide.RT	TargetSlide.RTTime	TargetTraining	TBox1	TBox2	TBox3	TBox4	TBox5	TBox6	TrainingList1	TrainingList1.Cycle	TrainingList1.Sample	TrCorrectResp	TrialList1	TrialList1.Cycle	TrialList1.Sample	TrialList2	TrialList2.Cycle	TrialList2.Sample	TrialType	TrPosit	TrWaitTime	WaitTime
1 ver1_main_procedure	34	1	33	<?xml version="1.0"?>\n<Clock xmlns:dt="urn:schemas-microsoft-com:datatypes"><Description dt:dt="string">E-Prime Primary Realtime Clock</Description><StartTime><Timestamp dt:dt="int">0</Timestamp><DateUtc dt:dt="string">2015-08-18T09:52:23Z</DateUtc></StartTime><FrequencyChanges><FrequencyChange><Frequency dt:dt="r8">2441386</Frequency><Timestamp dt:dt="r8">18205880340</Timestamp><Current dt:dt="r8">0</Current><DateUtc dt:dt="string">2015-08-18T09:52:23Z</DateUtc></FrequencyChange></FrequencyChanges></Clock>\n	1 ver1_main_procedure-34-1	99.925	1.0.0.880	2	al	1026476501	prawa	1	2.0.10.356	08-18-2015	2015-08-18 09:52:23	11:52:23	kobieta	2.0.10.92	1										1	1	1	{SPACE}	{SPACE}	l	poproszona	planowała	zrozumiałaś	wykonała		poproszony	planował	zrozumiałeś	wykonał				planowała		InstrProc	poproszona	InstrList				1		wykonała		zrozumiałaś																																																																																																
1 ver1_main_procedure	34	1	33	<?xml version="1.0"?>\n<Clock xmlns:dt="urn:schemas-microsoft-com:datatypes"><Description dt:dt="string">E-Prime Primary Realtime Clock</Description><StartTime><Timestamp dt:dt="int">0</Timestamp><DateUtc dt:dt="string">2015-08-18T09:52:23Z</DateUtc></StartTime><FrequencyChanges><FrequencyChange><Frequency dt:dt="r8">2441386</Frequency><Timestamp dt:dt="r8">18205880340</Timestamp><Current dt:dt="r8">0</Current><DateUtc dt:dt="string">2015-08-18T09:52:23Z</DateUtc></FrequencyChange></FrequencyChanges></Clock>\n	1 ver1_main_procedure-34-1	99.925	1.0.0.880	2	al	1026476501	prawa	1	2.0.10.356	08-18-2015	2015-08-18 09:52:23	11:52:23	kobieta	2.0.10.92	2																														TrainingProc1		TrainingList	1	1	1						1																																																					TrainProc											TrainingList1											target_right.png							2	1	1	l								75	300	
1 ver1_main_procedure	34	1	33	<?xml version="1.0"?>\n<Clock xmlns:dt="urn:schemas-microsoft-com:datatypes"><Description dt:dt="string">E-Prime Primary Realtime Clock</Description><StartTime><Timestamp dt:dt="int">0</Timestamp><DateUtc dt:dt="string">2015-08-18T09:52:23Z</DateUtc></StartTime><FrequencyChanges><FrequencyChange><Frequency dt:dt="r8">2441386</Frequency><Timestamp dt:dt="r8">18205880340</Timestamp><Current dt:dt="r8">0</Current><DateUtc dt:dt="string">2015-08-18T09:52:23Z</DateUtc></FrequencyChange></FrequencyChanges></Clock>\n	1 ver1_main_procedure-34-1	99.925	1.0.0.880	2	al	1026476501	prawa	1	2.0.10.356	08-18-2015	2015-08-18 09:52:23	11:52:23	kobieta	2.0.10.92	2																														TrainingProc1		TrainingList	1	1	1						2																																																					TrainProc											TrainingList1											target_right.png							2	1	2	l								75	150	
1 ver1_main_procedure	34	1	33	<?xml version="1.0"?>\n<Clock xmlns:dt="urn:schemas-microsoft-com:datatypes"><Description dt:dt="string">E-Prime Primary Realtime Clock</Description><StartTime><Timestamp dt:dt="int">0</Timestamp><DateUtc dt:dt="string">2015-08-18T09:52:23Z</DateUtc></StartTime><FrequencyChanges><FrequencyChange><Frequency dt:dt="r8">2441386</Frequency><Timestamp dt:dt="r8">18205880340</Timestamp><Current dt:dt="r8">0</Current><DateUtc dt:dt="string">2015-08-18T09:52:23Z</DateUtc></FrequencyChange></FrequencyChanges></Clock>\n	1 ver1_main_procedure-34-1	99.925	1.0.0.880	2	al	1026476501	prawa	1	2.0.10.356	08-18-2015	2015-08-18 09:52:23	11:52:23	kobieta	2.0.10.92	2																														TrainingProc1		TrainingList	1	1	1						3																																																					TrainProc											TrainingList1											target_both.png							3	1	3	dl								25	300	
1 ver1_main_procedure	34	1	33	<?xml version="1.0"?>\n<Clock xmlns:dt="urn:schemas-microsoft-com:datatypes"><Description dt:dt="string">E-Prime Primary Realtime Clock</Description><StartTime><Timestamp dt:dt="int">0</Timestamp><DateUtc dt:dt="string">2015-08-18T09:52:23Z</DateUtc></StartTime><FrequencyChanges><FrequencyChange><Frequency dt:dt="r8">2441386</Frequency><Timestamp dt:dt="r8">18205880340</Timestamp><Current dt:dt="r8">0</Current><DateUtc dt:dt="string">2015-08-18T09:52:23Z</DateUtc></FrequencyChange></FrequencyChanges></Clock>\n	1 ver1_main_procedure-34-1	99.925	1.0.0.880	2	al	1026476501	prawa	1	2.0.10.356	08-18-2015	2015-08-18 09:52:23	11:52:23	kobieta	2.0.10.92	2																														TrainingProc1		TrainingList	1	1	1						4																																																					TrainProc											TrainingList1											target_left.png							1	1	4	d								75	150	
1 ver1_main_procedure	34	1	33	<?xml version="1.0"?>\n<Clock xmlns:dt="urn:schemas-microsoft-com:datatypes"><Description dt:dt="string">E-Prime Primary Realtime Clock</Description><StartTime><Timestamp dt:dt="int">0</Timestamp><DateUtc dt:dt="string">2015-08-18T09:52:23Z</DateUtc></StartTime><FrequencyChanges><FrequencyChange><Frequency dt:dt="r8">2441386</Frequency><Timestamp dt:dt="r8">18205880340</Timestamp><Current dt:dt="r8">0</Current><DateUtc dt:dt="string">2015-08-18T09:52:23Z</DateUtc></FrequencyChange></FrequencyChanges></Clock>\n	1 ver1_main_procedure-34-1	99.925	1.0.0.880	2	al	1026476501	prawa	1	2.0.10.356	08-18-2015	2015-08-18 09:52:23	11:52:23	kobieta	2.0.10.92	2																														TrainingProc1		TrainingList	1	1	1						5																																																					TrainProc											TrainingList1											target_right.png							2	1	5	l								25	150	
1 ver1_main_procedure	34	1	33	<?xml version="1.0"?>\n<Clock xmlns:dt="urn:schemas-microsoft-com:datatypes"><Description dt:dt="string">E-Prime Primary Realtime Clock</Description><StartTime><Timestamp dt:dt="int">0</Timestamp><DateUtc dt:dt="string">2015-08-18T09:52:23Z</DateUtc></StartTime><FrequencyChanges><FrequencyChange><Frequency dt:dt="r8">2441386</Frequency><Timestamp dt:dt="r8">18205880340</Timestamp><Current dt:dt="r8">0</Current><DateUtc dt:dt="string">2015-08-18T09:52:23Z</DateUtc></FrequencyChange></FrequencyChanges></Clock>\n	1 ver1_main_procedure-34-1	99.925	1.0.0.880	2	al	1026476501	prawa	1	2.0.10.356	08-18-2015	2015-08-18 09:52:23	11:52:23	kobieta	2.0.10.92	2																														TrainingProc1		TrainingList	1	1	1						6																																																					TrainProc											TrainingList1											target_left.png							1	1	6	d								75	450	
1 ver1_main_procedure	34	1	33	<?xml version="1.0"?>\n<Clock xmlns:dt="urn:schemas-microsoft-com:datatypes"><Description dt:dt="string">E-Prime Primary Realtime Clock</Description><StartTime><Timestamp dt:dt="int">0</Timestamp><DateUtc dt:dt="string">2015-08-18T09:52:23Z</DateUtc></StartTime><FrequencyChanges><FrequencyChange><Frequency dt:dt="r8">2441386</Frequency><Timestamp dt:dt="r8">18205880340</Timestamp><Current dt:dt="r8">0</Current><DateUtc dt:dt="string">2015-08-18T09:52:23Z</DateUtc></FrequencyChange></FrequencyChanges></Clock>\n	1 ver1_main_procedure-34-1	99.925	1.0.0.880	2	al	1026476501	prawa	1	2.0.10.356	08-18-2015	2015-08-18 09:52:23	11:52:23	kobieta	2.0.10.92	2																														TrainingProc1		TrainingList	1	1	1						7																																																					TrainProc											TrainingList1											target_both.png							3	1	7	dl								25	150	
1 ver1_main_procedure	34	1	33	<?xml version="1.0"?>\n<Clock xmlns:dt="urn:schemas-microsoft-com:datatypes"><Description dt:dt="string">E-Prime Primary Realtime Clock</Description><StartTime><Timestamp dt:dt="int">0</Timestamp><DateUtc dt:dt="string">2015-08-18T09:52:23Z</DateUtc></StartTime><FrequencyChanges><FrequencyChange><Frequency dt:dt="r8">2441386</Frequency><Timestamp dt:dt="r8">18205880340</Timestamp><Current dt:dt="r8">0</Current><DateUtc dt:dt="string">2015-08-18T09:52:23Z</DateUtc></FrequencyChange></FrequencyChanges></Clock>\n	1 ver1_main_procedure-34-1	99.925	1.0.0.880	2	al	1026476501	prawa	1	2.0.10.356	08-18-2015	2015-08-18 09:52:23	11:52:23	kobieta	2.0.10.92	2																														TrainingProc1		TrainingList	1	1	1						8																																																					TrainProc											TrainingList1											target_left.png							1	1	8	d								75	300	
1 ver1_main_procedure	34	1	33	<?xml version="1.0"?>\n<Clock xmlns:dt="urn:schemas-microsoft-com:datatypes"><Description dt:dt="string">E-Prime Primary Realtime Clock</Description><StartTime><Timestamp dt:dt="int">0</Timestamp><DateUtc dt:dt="string">2015-08-18T09:52:23Z</DateUtc></StartTime><FrequencyChanges><FrequencyChange><Frequency dt:dt="r8">2441386</Frequency><Timestamp dt:dt="r8">18205880340</Timestamp><Current dt:dt="r8">0</Current><DateUtc dt:dt="string">2015-08-18T09:52:23Z</DateUtc></FrequencyChange></FrequencyChanges></Clock>\n	1 ver1_main_procedure-34-1	99.925	1.0.0.880	2	al	1026476501	prawa	1	2.0.10.356	08-18-2015	2015-08-18 09:52:23	11:52:23	kobieta	2.0.10.92	2																														TrainingProc1		TrainingList	1	1	1						9																																																					TrainProc											TrainingList1											target_both.png							3	1	9	dl								75	150	
1 ver1_main_procedure	34	1	33	<?xml version="1.0"?>\n<Clock xmlns:dt="urn:schemas-microsoft-com:datatypes"><Description dt:dt="string">E-Prime Primary Realtime Clock</Description><StartTime><Timestamp dt:dt="int">0</Timestamp><DateUtc dt:dt="string">2015-08-18T09:52:23Z</DateUtc></StartTime><FrequencyChanges><FrequencyChange><Frequency dt:dt="r8">2441386</Frequency><Timestamp dt:dt="r8">18205880340</Timestamp><Current dt:dt="r8">0</Current><DateUtc dt:dt="string">2015-08-18T09:52:23Z</DateUtc></FrequencyChange></FrequencyChanges></Clock>\n	1 ver1_main_procedure-34-1	99.925	1.0.0.880	2	al	1026476501	prawa	1	2.0.10.356	08-18-2015	2015-08-18 09:52:23	11:52:23	kobieta	2.0.10.92	3	4	1	1																							l	{SPACE}		no	BlockProc2		BlockList									1	Cued	l	color_red.png		0	10	147887	471																			2					75	prime_right.png	0	147317	0	0	13	0	147317	0	147317	1	147317	20	0	-1	145818	147317	147316	0	prime_right.png	TrialProc1	right	0		0	20	147637	-147637		0	0	TrialList2	target_right.png	1	l	0	3	147367	270	l	510	147877															5	1	1	neut			450
1 ver1_main_procedure	34	1	33	<?xml version="1.0"?>\n<Clock xmlns:dt="urn:schemas-microsoft-com:datatypes"><Description dt:dt="string">E-Prime Primary Realtime Clock</Description><StartTime><Timestamp dt:dt="int">0</Timestamp><DateUtc dt:dt="string">2015-08-18T09:52:23Z</DateUtc></StartTime><FrequencyChanges><FrequencyChange><Frequency dt:dt="r8">2441386</Frequency><Timestamp dt:dt="r8">18205880340</Timestamp><Current dt:dt="r8">0</Current><DateUtc dt:dt="string">2015-08-18T09:52:23Z</DateUtc></FrequencyChange></FrequencyChanges></Clock>\n	1 ver1_main_procedure-34-1	99.925	1.0.0.880	2	al	1026476501	prawa	1	2.0.10.356	08-18-2015	2015-08-18 09:52:23	11:52:23	kobieta	2.0.10.92	3	4	1	1																							l	{SPACE}		no	BlockProc2		BlockList									2	Free	dl	color_yellow.png		0	5	150810	310																								75	prime_right.png	0	150169	0	0	13	0	150169	0	150169	1	150169	20	0	-1	148670	150169	150168	0		TrialProc1	right	0		0	10	150479	-150479		0	0	TrialList2	target_both.png	0	dl	0	3	150219	260	d	586	150805															10	1	2	comp			300
1 ver1_main_procedure	34	1	33	<?xml version="1.0"?>\n<Clock xmlns:dt="urn:schemas-microsoft-com:datatypes"><Description dt:dt="string">E-Prime Primary Realtime Clock</Description><StartTime><Timestamp dt:dt="int">0</Timestamp><DateUtc dt:dt="string">2015-08-18T09:52:23Z</DateUtc></StartTime><FrequencyChanges><FrequencyChange><Frequency dt:dt="r8">2441386</Frequency><Timestamp dt:dt="r8">18205880340</Timestamp><Current dt:dt="r8">0</Current><DateUtc dt:dt="string">2015-08-18T09:52:23Z</DateUtc></FrequencyChange></FrequencyChanges></Clock>\n	1 ver1_main_procedure-34-1	99.925	1.0.0.880	2	al	1026476501	prawa	1	2.0.10.356	08-18-2015	2015-08-18 09:52:23	11:52:23	kobieta	2.0.10.92	3	4	1	1																							l	{SPACE}		no	BlockProc2		BlockList									3	Free	dl	color_green.png		0	9	153612	310																								75	prime_right.png	0	152931	0	0	13	0	152931	0	152931	1	152931	20	0	-1	151432	152931	152930	0		TrialProc1	right	0		0	10	153241	-153241		0	0	TrialList2	target_both.png	0	dl	0	3	152981	260	l	622	153603															10	1	3	comp			300
1 ver1_main_procedure	34	1	33	<?xml version="1.0"?>\n<Clock xmlns:dt="urn:schemas-microsoft-com:datatypes"><Description dt:dt="string">E-Prime Primary Realtime Clock</Description><StartTime><Timestamp dt:dt="int">0</Timestamp><DateUtc dt:dt="string">2015-08-18T09:52:23Z</DateUtc></StartTime><FrequencyChanges><FrequencyChange><Frequency dt:dt="r8">2441386</Frequency><Timestamp dt:dt="r8">18205880340</Timestamp><Current dt:dt="r8">0</Current><DateUtc dt:dt="string">2015-08-18T09:52:23Z</DateUtc></FrequencyChange></FrequencyChanges></Clock>\n	1 ver1_main_procedure-34-1	99.925	1.0.0.880	2	al	1026476501	prawa	1	2.0.10.356	08-18-2015	2015-08-18 09:52:23	11:52:23	kobieta	2.0.10.92	3	4	1	1																							l	{SPACE}		no	BlockProc2		BlockList									4	Cued	l	color_orange.png		0	12	156354	160																								75	prime_left.png	0	155733	0	0	13	0	155733	0	155733	1	155733	20	0	-1	154234	155733	155732	0		TrialProc1	right	0		1	10	156043	-156043		0	0	TrialList2	target_right.png	1	l	0	3	155783	260	l	559	156342															6	1	4	incomp			150
1 ver1_main_procedure	34	1	33	<?xml version="1.0"?>\n<Clock xmlns:dt="urn:schemas-microsoft-com:datatypes"><Description dt:dt="string">E-Prime Primary Realtime Clock</Description><StartTime><Timestamp dt:dt="int">0</Timestamp><DateUtc dt:dt="string">2015-08-18T09:52:23Z</DateUtc></StartTime><FrequencyChanges><FrequencyChange><Frequency dt:dt="r8">2441386</Frequency><Timestamp dt:dt="r8">18205880340</Timestamp><Current dt:dt="r8">0</Current><DateUtc dt:dt="string">2015-08-18T09:52:23Z</DateUtc></FrequencyChange></FrequencyChanges></Clock>\n	1 ver1_main_procedure-34-1	99.925	1.0.0.880	2	al	1026476501	prawa	1	2.0.10.356	08-18-2015	2015-08-18 09:52:23	11:52:23	kobieta	2.0.10.92	3	4	1	1																							l	{SPACE}		no	BlockProc2		BlockList									5	Free	dl	color_purple.png		0	10	159406	160																								75	prime_left.png	0	158325	0	0	13	0	158325	0	158325	1	158325	20	0	-1	156826	158325	158324	0		TrialProc1	left	0		1	10	158635	-158635		0	0	TrialList2	target_both.png	0	dl	0	3	158375	260	d	1021	159396															7	1	5	comp			150
1 ver1_main_procedure	34	1	33	<?xml version="1.0"?>\n<Clock xmlns:dt="urn:schemas-microsoft-com:datatypes"><Description dt:dt="string">E-Prime Primary Realtime Clock</Description><StartTime><Timestamp dt:dt="int">0</Timestamp><DateUtc dt:dt="string">2015-08-18T09:52:23Z</DateUtc></StartTime><FrequencyChanges><FrequencyChange><Frequency dt:dt="r8">2441386</Frequency><Timestamp dt:dt="r8">18205880340</Timestamp><Current dt:dt="r8">0</Current><DateUtc dt:dt="string">2015-08-18T09:52:23Z</DateUtc></FrequencyChange></FrequencyChanges></Clock>\n	1 ver1_main_procedure-34-1	99.925	1.0.0.880	2	al	1026476501	prawa	1	2.0.10.356	08-18-2015	2015-08-18 09:52:23	11:52:23	kobieta	2.0.10.92	3	4	1	1																							l	{SPACE}		no	BlockProc2		BlockList									6	Free	dl	color_orange.png		0	12	161848	160																								75	prime_left.png	1	161378	0	0	13	1	161378	1	161378	1	161377	21	0	-1	159879	161377	161376	0		TrialProc1	right	0		0	10	161688	-161688		0	0	TrialList2	target_both.png	0	dl	0	3	161428	260	l	407	161835															12	1	6	incomp			150
1 ver1_main_procedure	34	1	33	<?xml version="1.0"?>\n<Clock xmlns:dt="urn:schemas-microsoft-com:datatypes"><Description dt:dt="string">E-Prime Primary Realtime Clock</Description><StartTime><Timestamp dt:dt="int">0</Timestamp><DateUtc dt:dt="string">2015-08-18T09:52:23Z</DateUtc></StartTime><FrequencyChanges><FrequencyChange><Frequency dt:dt="r8">2441386</Frequency><Timestamp dt:dt="r8">18205880340</Timestamp><Current dt:dt="r8">0</Current><DateUtc dt:dt="string">2015-08-18T09:52:23Z</DateUtc></FrequencyChange></FrequencyChanges></Clock>\n	1 ver1_main_procedure-34-1	99.925	1.0.0.880	2	al	1026476501	prawa	1	2.0.10.356	08-18-2015	2015-08-18 09:52:23	11:52:23	kobieta	2.0.10.92	3	4	1	1																							l	{SPACE}		no	BlockProc2		BlockList									7	Cued	l	color_orange.png		0	12	164530	460																								25	prime_left.png	0	163819	0	0	13	0	163820	0	163819	1	163819	20	0	-1	162321	163819	163818	0		TrialProc1	right	0		0	11	164130	-164130		0	0	TrialList2	target_right.png	1	l	0	3	163869	261	l	649	164518															6	1	7	incomp			450
1 ver1_main_procedure	34	1	33	<?xml version="1.0"?>\n<Clock xmlns:dt="urn:schemas-microsoft-com:datatypes"><Description dt:dt="string">E-Prime Primary Realtime Clock</Description><StartTime><Timestamp dt:dt="int">0</Timestamp><DateUtc dt:dt="string">2015-08-18T09:52:23Z</DateUtc></StartTime><FrequencyChanges><FrequencyChange><Frequency dt:dt="r8">2441386</Frequency><Timestamp dt:dt="r8">18205880340</Timestamp><Current dt:dt="r8">0</Current><DateUtc dt:dt="string">2015-08-18T09:52:23Z</DateUtc></FrequencyChange></FrequencyChanges></Clock>\n	1 ver1_main_procedure-34-1	99.925	1.0.0.880	2	al	1026476501	prawa	1	2.0.10.356	08-18-2015	2015-08-18 09:52:23	11:52:23	kobieta	2.0.10.92	3	4	1	1																							l	{SPACE}		no	BlockProc2		BlockList									8	Cued	d	color_blue.png		0	10	167252	160																			1					75	prime_left.png	0	166802	0	0	13	0	166802	0	166802	2	166802	20	0	-1	165303	166802	166800	0	prime_left.png	TrialProc1	left	0		0	10	167112	-167112		0	0	TrialList2	target_left.png	1	d	0	3	166852	260	d	389	167241															2	1	8	neut			150
1 ver1_main_procedure	34	1	33	<?xml version="1.0"?>\n<Clock xmlns:dt="urn:schemas-microsoft-com:datatypes"><Description dt:dt="string">E-Prime Primary Realtime Clock</Description><StartTime><Timestamp dt:dt="int">0</Timestamp><DateUtc dt:dt="string">2015-08-18T09:52:23Z</DateUtc></StartTime><FrequencyChanges><FrequencyChange><Frequency dt:dt="r8">2441386</Frequency><Timestamp dt:dt="r8">18205880340</Timestamp><Current dt:dt="r8">0</Current><DateUtc dt:dt="string">2015-08-18T09:52:23Z</DateUtc></FrequencyChange></FrequencyChanges></Clock>\n	1 ver1_main_procedure-34-1	99.925	1.0.0.880	2	al	1026476501	prawa	1	2.0.10.356	08-18-2015	2015-08-18 09:52:23	11:52:23	kobieta	2.0.10.92	3	4	1	1																							l	{SPACE}		no	BlockProc2		BlockList									9	Cued	l	color_red.png		0	10	169764	460																			2					25	prime_right.png	0	169223	0	0	13	1	169224	1	169224	1	169223	20	0	-1	167725	169223	169222	0	prime_right.png	TrialProc1	right	0		0	11	169534	-169534		0	0	TrialList2	target_right.png	1	l	0	3	169273	261	l	480	169753															5	1	9	neut			450
1 ver1_main_procedure	34	1	33	<?xml version="1.0"?>\n<Clock xmlns:dt="urn:schemas-microsoft-com:datatypes"><Description dt:dt="string">E-Prime Primary Realtime Clock</Description><StartTime><Timestamp dt:dt="int">0</Timestamp><DateUtc dt:dt="string">2015-08-18T09:52:23Z</DateUtc></StartTime><FrequencyChanges><FrequencyChange><Frequency dt:dt="r8">2441386</Frequency><Timestamp dt:dt="r8">18205880340</Timestamp><Current dt:dt="r8">0</Current><DateUtc dt:dt="string">2015-08-18T09:52:23Z</DateUtc></FrequencyChange></FrequencyChanges></Clock>\n	1 ver1_main_procedure-34-1	99.925	1.0.0.880	2	al	1026476501	prawa	1	2.0.10.356	08-18-2015	2015-08-18 09:52:23	11:52:23	kobieta	2.0.10.92	3	4	1	1																							l	{SPACE}		no	BlockProc2		BlockList									10	Free	dl	color_red.png		0	8	172566	310																			1					25	prime_left.png	0	172036	0	0	13	0	172036	0	172036	2	172036	20	0	-1	170537	172036	172034	0	prime_left.png	TrialProc1	left	0		0	10	172346	-172346		0	0	TrialList2	target_both.png	0	dl	0	3	172086	260	l	472	172558															8	1	10	neut			300
1 ver1_main_procedure	34	1	33	<?xml version="1.0"?>\n<Clock xmlns:dt="urn:schemas-microsoft-com:datatypes"><Description dt:dt="string">E-Prime Primary Realtime Clock</Description><StartTime><Timestamp dt:dt="int">0</Timestamp><DateUtc dt:dt="string">2015-08-18T09:52:23Z</DateUtc></StartTime><FrequencyChanges><FrequencyChange><Frequency dt:dt="r8">2441386</Frequency><Timestamp dt:dt="r8">18205880340</Timestamp><Current dt:dt="r8">0</Current><DateUtc dt:dt="string">2015-08-18T09:52:23Z</DateUtc></FrequencyChange></FrequencyChanges></Clock>\n	1 ver1_main_procedure-34-1	99.925	1.0.0.880	2	al	1026476501	prawa	1	2.0.10.356	08-18-2015	2015-08-18 09:52:23	11:52:23	kobieta	2.0.10.92	3	4	1	1																							l	{SPACE}		no	BlockProc2		BlockList									11	Free	dl	color_green.png		0	6	175168	310																								25	prime_right.png	0	174688	0	0	13	0	174688	0	174688	2	174688	20	0	-1	173189	174688	174686	0		TrialProc1	right	0		0	10	174998	-174998		0	0	TrialList2	target_both.png	0	dl	0	3	174738	260	l	424	175162															10	1	11	comp			300
1 ver1_main_procedure	34	1	33	<?xml version="1.0"?>\n<Clock xmlns:dt="urn:schemas-microsoft-com:datatypes"><Description dt:dt="string">E-Prime Primary Realtime Clock</Description><StartTime><Timestamp dt:dt="int">0</Timestamp><DateUtc dt:dt="string">2015-08-18T09:52:23Z</DateUtc></StartTime><FrequencyChanges><FrequencyChange><Frequency dt:dt="r8">2441386</Frequency><Timestamp dt:dt="r8">18205880340</Timestamp><Current dt:dt="r8">0</Current><DateUtc dt:dt="string">2015-08-18T09:52:23Z</DateUtc></FrequencyChange></FrequencyChanges></Clock>\n	1 ver1_main_procedure-34-1	99.925	1.0.0.880	2	al	1026476501	prawa	1	2.0.10.356	08-18-2015	2015-08-18 09:52:23	11:52:23	kobieta	2.0.10.92	3	4	1	1																							l	{SPACE}		no	BlockProc2		BlockList									12	Free	dl	color_green.png		0	14	177890	460																								25	prime_right.png	0	177290	0	0	13	0	177290	0	177290	2	177290	20	0	-1	175791	177290	177288	0		TrialProc1	left	0		0	10	177600	-177600		0	0	TrialList2	target_both.png	0	dl	0	3	177340	260	l	536	177876															9	1	12	incomp			450
1 ver1_main_procedure	34	1	33	<?xml version="1.0"?>\n<Clock xmlns:dt="urn:schemas-microsoft-com:datatypes"><Description dt:dt="string">E-Prime Primary Realtime Clock</Description><StartTime><Timestamp dt:dt="int">0</Timestamp><DateUtc dt:dt="string">2015-08-18T09:52:23Z</DateUtc></StartTime><FrequencyChanges><FrequencyChange><Frequency dt:dt="r8">2441386</Frequency><Timestamp dt:dt="r8">18205880340</Timestamp><Current dt:dt="r8">0</Current><DateUtc dt:dt="string">2015-08-18T09:52:23Z</DateUtc></FrequencyChange></FrequencyChanges></Clock>\n	1 ver1_main_procedure-34-1	99.925	1.0.0.880	2	al	1026476501	prawa	1	2.0.10.356	08-18-2015	2015-08-18 09:52:23	11:52:23	kobieta	2.0.10.92	3	4	1	1																							l	{SPACE}		no	BlockProc2		BlockList									13	Free	dl	color_green.png		0	10	180662	160																								25	prime_right.png	0	180162	0	0	13	0	180162	0	180162	1	180162	20	0	-1	178663	180162	180161	0		TrialProc1	left	0		0	10	180472	-180472		0	0	TrialList2	target_both.png	0	dl	0	3	180212	260	l	440	180652															9	1	13	incomp			150
1 ver1_main_procedure	34	1	33	<?xml version="1.0"?>\n<Clock xmlns:dt="urn:schemas-microsoft-com:datatypes"><Description dt:dt="string">E-Prime Primary Realtime Clock</Description><StartTime><Timestamp dt:dt="int">0</Timestamp><DateUtc dt:dt="string">2015-08-18T09:52:23Z</DateUtc></StartTime><FrequencyChanges><FrequencyChange><Frequency dt:dt="r8">2441386</Frequency><Timestamp dt:dt="r8">18205880340</Timestamp><Current dt:dt="r8">0</Current><DateUtc dt:dt="string">2015-08-18T09:52:23Z</DateUtc></FrequencyChange></FrequencyChanges></Clock>\n	1 ver1_main_procedure-34-1	99.925	1.0.0.880	2	al	1026476501	prawa	1	2.0.10.356	08-18-2015	2015-08-18 09:52:23	11:52:23	kobieta	2.0.10.92	3	4	1	1																							l	{SPACE}		no	BlockProc2		BlockList									14	Free	dl	color_red.png		0	10	183094	310																			2					25	prime_right.png	0	182634	0	0	13	0	182634	0	182634	2	182634	20	0	-1	181135	182634	182632	0	prime_right.png	TrialProc1	right	0		0	10	182944	-182944		0	0	TrialList2	target_both.png	0	dl	0	3	182684	260	l	400	183084															11	1	14	neut			300
1 ver1_main_procedure	34	1	33	<?xml version="1.0"?>\n<Clock xmlns:dt="urn:schemas-microsoft-com:datatypes"><Description dt:dt="string">E-Prime Primary Realtime Clock</Description><StartTime><Timestamp dt:dt="int">0</Timestamp><DateUtc dt:dt="string">2015-08-18T09:52:23Z</DateUtc></StartTime><FrequencyChanges><FrequencyChange><Frequency dt:dt="r8">2441386</Frequency><Timestamp dt:dt="r8">18205880340</Timestamp><Current dt:dt="r8">0</Current><DateUtc dt:dt="string">2015-08-18T09:52:23Z</DateUtc></FrequencyChange></FrequencyChanges></Clock>\n	1 ver1_main_procedure-34-1	99.925	1.0.0.880	2	al	1026476501	prawa	1	2.0.10.356	08-18-2015	2015-08-18 09:52:23	11:52:23	kobieta	2.0.10.92	3	4	1	1																							l	{SPACE}		no	BlockProc2		BlockList									15	Cued	d	color_purple.png		0	6	185806	460																								75	prime_left.png	0	185216	0	0	13	0	185216	0	185216	2	185216	20	0	-1	183717	185216	185214	0		TrialProc1	left	0		0	10	185526	-185526		0	0	TrialList2	target_left.png	1	d	0	3	185266	260	d	534	185800															1	1	15	comp			450
1 ver1_main_procedure	34	1	33	<?xml version="1.0"?>\n<Clock xmlns:dt="urn:schemas-microsoft-com:datatypes"><Description dt:dt="string">E-Prime Primary Realtime Clock</Description><StartTime><Timestamp dt:dt="int">0</Timestamp><DateUtc dt:dt="string">2015-08-18T09:52:23Z</DateUtc></StartTime><FrequencyChanges><FrequencyChange><Frequency dt:dt="r8">2441386</Frequency><Timestamp dt:dt="r8">18205880340</Timestamp><Current dt:dt="r8">0</Current><DateUtc dt:dt="string">2015-08-18T09:52:23Z</DateUtc></FrequencyChange></FrequencyChanges></Clock>\n	1 ver1_main_procedure-34-1	99.925	1.0.0.880	2	al	1026476501	prawa	1	2.0.10.356	08-18-2015	2015-08-18 09:52:23	11:52:23	kobieta	2.0.10.92	3	4	1	1																							l	{SPACE}		no	BlockProc2		BlockList									16	Free	dl	color_blue.png		0	9	188528	310																			1					75	prime_left.png	0	188078	0	0	13	0	188078	0	188078	1	188078	20	0	-1	186579	188078	188077	0	prime_left.png	TrialProc1	right	0		0	10	188388	-188388		0	0	TrialList2	target_both.png	0	dl	0	3	188128	260	d	391	188519															11	1	16	neut			300
1 ver1_main_procedure	34	1	33	<?xml version="1.0"?>\n<Clock xmlns:dt="urn:schemas-microsoft-com:datatypes"><Description dt:dt="string">E-Prime Primary Realtime Clock</Description><StartTime><Timestamp dt:dt="int">0</Timestamp><DateUtc dt:dt="string">2015-08-18T09:52:23Z</DateUtc></StartTime><FrequencyChanges><FrequencyChange><Frequency dt:dt="r8">2441386</Frequency><Timestamp dt:dt="r8">18205880340</Timestamp><Current dt:dt="r8">0</Current><DateUtc dt:dt="string">2015-08-18T09:52:23Z</DateUtc></FrequencyChange></FrequencyChanges></Clock>\n	1 ver1_main_procedure-34-1	99.925	1.0.0.880	2	al	1026476501	prawa	1	2.0.10.356	08-18-2015	2015-08-18 09:52:23	11:52:23	kobieta	2.0.10.92	3	4	1	1																							l	{SPACE}		no	BlockProc2		BlockList									17	Free	dl	color_purple.png		0	5	191240	460																								75	prime_left.png	0	190650	0	0	13	0	190650	0	190650	2	190650	20	0	-1	189151	190650	190648	0		TrialProc1	right	0		0	10	190960	-190960		0	0	TrialList2	target_both.png	0	dl	0	3	190700	260	d	535	191235															12	1	17	incomp			450
1 ver1_main_procedure	34	1	33	<?xml version="1.0"?>\n<Clock xmlns:dt="urn:schemas-microsoft-com:datatypes"><Description dt:dt="string">E-Prime Primary Realtime Clock</Description><StartTime><Timestamp dt:dt="int">0</Timestamp><DateUtc dt:dt="string">2015-08-18T09:52:23Z</DateUtc></StartTime><FrequencyChanges><FrequencyChange><Frequency dt:dt="r8">2441386</Frequency><Timestamp dt:dt="r8">18205880340</Timestamp><Current dt:dt="r8">0</Current><DateUtc dt:dt="string">2015-08-18T09:52:23Z</DateUtc></FrequencyChange></FrequencyChanges></Clock>\n	1 ver1_main_procedure-34-1	99.925	1.0.0.880	2	al	1026476501	prawa	1	2.0.10.356	08-18-2015	2015-08-18 09:52:23	11:52:23	kobieta	2.0.10.92	3	4	1	1																							l	{SPACE}		no	BlockProc2		BlockList									18	Cued	l	color_orange.png		0	5	193922	160																								25	prime_left.png	0	193512	0	0	13	0	193512	0	193512	1	193512	20	0	-1	192013	193512	193511	0		TrialProc1	right	0		0	10	193822	-193822		0	0	TrialList2	target_right.png	1	l	0	3	193562	260	l	355	193917															6	1	18	incomp			150
1 ver1_main_procedure	34	1	33	<?xml version="1.0"?>\n<Clock xmlns:dt="urn:schemas-microsoft-com:datatypes"><Description dt:dt="string">E-Prime Primary Realtime Clock</Description><StartTime><Timestamp dt:dt="int">0</Timestamp><DateUtc dt:dt="string">2015-08-18T09:52:23Z</DateUtc></StartTime><FrequencyChanges><FrequencyChange><Frequency dt:dt="r8">2441386</Frequency><Timestamp dt:dt="r8">18205880340</Timestamp><Current dt:dt="r8">0</Current><DateUtc dt:dt="string">2015-08-18T09:52:23Z</DateUtc></FrequencyChange></FrequencyChanges></Clock>\n	1 ver1_main_procedure-34-1	99.925	1.0.0.880	2	al	1026476501	prawa	1	2.0.10.356	08-18-2015	2015-08-18 09:52:23	11:52:23	kobieta	2.0.10.92	3	4	1	1																							l	{SPACE}		no	BlockProc2		BlockList									19	Free	dl	color_red.png		0	13	196394	160																			2					25	prime_right.png	0	195894	0	0	13	0	195894	0	195894	2	195894	20	0	-1	194395	195894	195892	0	prime_right.png	TrialProc1	left	0		0	10	196204	-196204		0	0	TrialList2	target_both.png	0	dl	0	3	195944	260	l	437	196381															8	1	19	neut			150
1 ver1_main_procedure	34	1	33	<?xml version="1.0"?>\n<Clock xmlns:dt="urn:schemas-microsoft-com:datatypes"><Description dt:dt="string">E-Prime Primary Realtime Clock</Description><StartTime><Timestamp dt:dt="int">0</Timestamp><DateUtc dt:dt="string">2015-08-18T09:52:23Z</DateUtc></StartTime><FrequencyChanges><FrequencyChange><Frequency dt:dt="r8">2441386</Frequency><Timestamp dt:dt="r8">18205880340</Timestamp><Current dt:dt="r8">0</Current><DateUtc dt:dt="string">2015-08-18T09:52:23Z</DateUtc></FrequencyChange></FrequencyChanges></Clock>\n	1 ver1_main_procedure-34-1	99.925	1.0.0.880	2	al	1026476501	prawa	1	2.0.10.356	08-18-2015	2015-08-18 09:52:23	11:52:23	kobieta	2.0.10.92	3	4	1	1																							l	{SPACE}		no	BlockProc2		BlockList									20	Free	dl	color_blue.png		0	9	198926	310																			1					25	prime_left.png	0	198365	0	0	13	1	198366	1	198366	1	198365	20	0	-1	196867	198365	198364	0	prime_left.png	TrialProc1	left	0		0	11	198676	-198676		0	0	TrialList2	target_both.png	0	dl	0	3	198415	261	d	502	198917															8	1	20	neut			300
1 ver1_main_procedure	34	1	33	<?xml version="1.0"?>\n<Clock xmlns:dt="urn:schemas-microsoft-com:datatypes"><Description dt:dt="string">E-Prime Primary Realtime Clock</Description><StartTime><Timestamp dt:dt="int">0</Timestamp><DateUtc dt:dt="string">2015-08-18T09:52:23Z</DateUtc></StartTime><FrequencyChanges><FrequencyChange><Frequency dt:dt="r8">2441386</Frequency><Timestamp dt:dt="r8">18205880340</Timestamp><Current dt:dt="r8">0</Current><DateUtc dt:dt="string">2015-08-18T09:52:23Z</DateUtc></FrequencyChange></FrequencyChanges></Clock>\n	1 ver1_main_procedure-34-1	99.925	1.0.0.880	2	al	1026476501	prawa	1	2.0.10.356	08-18-2015	2015-08-18 09:52:23	11:52:23	kobieta	2.0.10.92	3	4	1	1																							l	{SPACE}		no	BlockProc2		BlockList									21	Free	dl	color_red.png		0	11	201448	160																			2					75	prime_right.png	1	201048	0	0	13	1	201048	1	201048	1	201047	20	0	-1	199549	201047	201046	0	prime_right.png	TrialProc1	right	0		0	10	201358	-201358		0	0	TrialList2	target_both.png	0	dl	0	4	201098	260	l	339	201437															11	1	21	neut			150
1 ver1_main_procedure	34	1	33	<?xml version="1.0"?>\n<Clock xmlns:dt="urn:schemas-microsoft-com:datatypes"><Description dt:dt="string">E-Prime Primary Realtime Clock</Description><StartTime><Timestamp dt:dt="int">0</Timestamp><DateUtc dt:dt="string">2015-08-18T09:52:23Z</DateUtc></StartTime><FrequencyChanges><FrequencyChange><Frequency dt:dt="r8">2441386</Frequency><Timestamp dt:dt="r8">18205880340</Timestamp><Current dt:dt="r8">0</Current><DateUtc dt:dt="string">2015-08-18T09:52:23Z</DateUtc></FrequencyChange></FrequencyChanges></Clock>\n	1 ver1_main_procedure-34-1	99.925	1.0.0.880	2	al	1026476501	prawa	1	2.0.10.356	08-18-2015	2015-08-18 09:52:23	11:52:23	kobieta	2.0.10.92	3	4	1	1																							l	{SPACE}		no	BlockProc2		BlockList									22	Free	dl	color_blue.png		0	13	203950	160																			1					75	prime_left.png	0	203419	0	0	13	0	203419	0	203419	1	203419	20	0	-1	201920	203419	203418	0	prime_left.png	TrialProc1	left	0		0	11	203730	-203730		0	0	TrialList2	target_both.png	0	dl	0	3	203469	261	d	468	203937															8	1	22	neut			150
1 ver1_main_procedure	34	1	33	<?xml version="1.0"?>\n<Clock xmlns:dt="urn:schemas-microsoft-com:datatypes"><Description dt:dt="string">E-Prime Primary Realtime Clock</Description><StartTime><Timestamp dt:dt="int">0</Timestamp><DateUtc dt:dt="string">2015-08-18T09:52:23Z</DateUtc></StartTime><FrequencyChanges><FrequencyChange><Frequency dt:dt="r8">2441386</Frequency><Timestamp dt:dt="r8">18205880340</Timestamp><Current dt:dt="r8">0</Current><DateUtc dt:dt="string">2015-08-18T09:52:23Z</DateUtc></FrequencyChange></FrequencyChanges></Clock>\n	1 ver1_main_procedure-34-1	99.925	1.0.0.880	2	al	1026476501	prawa	1	2.0.10.356	08-18-2015	2015-08-18 09:52:23	11:52:23	kobieta	2.0.10.92	3	4	1	1																							l	{SPACE}		no	BlockProc2		BlockList									23	Free	dl	color_green.png		0	12	206482	310																								25	prime_right.png	0	205921	0	0	13	0	205921	0	205921	1	205921	20	0	-1	204422	205921	205920	0		TrialProc1	right	0		0	10	206231	-206231		0	0	TrialList2	target_both.png	0	dl	0	3	205971	260	l	499	206470															10	1	23	comp			300
1 ver1_main_procedure	34	1	33	<?xml version="1.0"?>\n<Clock xmlns:dt="urn:schemas-microsoft-com:datatypes"><Description dt:dt="string">E-Prime Primary Realtime Clock</Description><StartTime><Timestamp dt:dt="int">0</Timestamp><DateUtc dt:dt="string">2015-08-18T09:52:23Z</DateUtc></StartTime><FrequencyChanges><FrequencyChange><Frequency dt:dt="r8">2441386</Frequency><Timestamp dt:dt="r8">18205880340</Timestamp><Current dt:dt="r8">0</Current><DateUtc dt:dt="string">2015-08-18T09:52:23Z</DateUtc></FrequencyChange></FrequencyChanges></Clock>\n	1 ver1_main_procedure-34-1	99.925	1.0.0.880	2	al	1026476501	prawa	1	2.0.10.356	08-18-2015	2015-08-18 09:52:23	11:52:23	kobieta	2.0.10.92	3	4	1	1																							l	{SPACE}		no	BlockProc2		BlockList									24	Cued	l			0	5	208933	461																			2					75	prime_right.png	0	208603	0	0	13	0	208603	0	208603	1	208603	20	0	-1	207104	208603	208602	0	prime_right.png	TrialProc1	right	0		1	10	208913	-208913		0	0	TrialList2	target_right.png	0	l	0	3	208653	260	d	275	208928															5	1	24	neut			450
1 ver1_main_procedure	34	1	33	<?xml version="1.0"?>\n<Clock xmlns:dt="urn:schemas-microsoft-com:datatypes"><Description dt:dt="string">E-Prime Primary Realtime Clock</Description><StartTime><Timestamp dt:dt="int">0</Timestamp><DateUtc dt:dt="string">2015-08-18T09:52:23Z</DateUtc></StartTime><FrequencyChanges><FrequencyChange><Frequency dt:dt="r8">2441386</Frequency><Timestamp dt:dt="r8">18205880340</Timestamp><Current dt:dt="r8">0</Current><DateUtc dt:dt="string">2015-08-18T09:52:23Z</DateUtc></FrequencyChange></FrequencyChanges></Clock>\n	1 ver1_main_procedure-34-1	99.925	1.0.0.880	2	al	1026476501	prawa	1	2.0.10.356	08-18-2015	2015-08-18 09:52:23	11:52:23	kobieta	2.0.10.92	3	4	1	1																							l	{SPACE}		no	BlockProc2		BlockList									25	Cued	d	color_purple.png		0	8	211906	460																								25	prime_left.png	0	211205	0	0	13	0	211205	0	211205	1	211205	20	0	-1	209706	211205	211204	0		TrialProc1	left	0		0	10	211515	-211515		0	0	TrialList2	target_left.png	1	d	0	3	211255	260	d	643	211898															1	1	25	comp			450
1 ver1_main_procedure	34	1	33	<?xml version="1.0"?>\n<Clock xmlns:dt="urn:schemas-microsoft-com:datatypes"><Description dt:dt="string">E-Prime Primary Realtime Clock</Description><StartTime><Timestamp dt:dt="int">0</Timestamp><DateUtc dt:dt="string">2015-08-18T09:52:23Z</DateUtc></StartTime><FrequencyChanges><FrequencyChange><Frequency dt:dt="r8">2441386</Frequency><Timestamp dt:dt="r8">18205880340</Timestamp><Current dt:dt="r8">0</Current><DateUtc dt:dt="string">2015-08-18T09:52:23Z</DateUtc></FrequencyChange></FrequencyChanges></Clock>\n	1 ver1_main_procedure-34-1	99.925	1.0.0.880	2	al	1026476501	prawa	1	2.0.10.356	08-18-2015	2015-08-18 09:52:23	11:52:23	kobieta	2.0.10.92	3	4	1	1																							l	{SPACE}		no	BlockProc2		BlockList									26	Cued	d	color_yellow.png		0	12	214688	160																								75	prime_right.png	0	214177	0	0	13	0	214178	0	214177	1	214177	20	0	-1	212678	214177	214176	0		TrialProc1	left	0		0	11	214488	-214488		0	0	TrialList2	target_left.png	1	d	0	3	214227	261	d	449	214676															3	1	26	incomp			150
1 ver1_main_procedure	34	1	33	<?xml version="1.0"?>\n<Clock xmlns:dt="urn:schemas-microsoft-com:datatypes"><Description dt:dt="string">E-Prime Primary Realtime Clock</Description><StartTime><Timestamp dt:dt="int">0</Timestamp><DateUtc dt:dt="string">2015-08-18T09:52:23Z</DateUtc></StartTime><FrequencyChanges><FrequencyChange><Frequency dt:dt="r8">2441386</Frequency><Timestamp dt:dt="r8">18205880340</Timestamp><Current dt:dt="r8">0</Current><DateUtc dt:dt="string">2015-08-18T09:52:23Z</DateUtc></FrequencyChange></FrequencyChanges></Clock>\n	1 ver1_main_procedure-34-1	99.925	1.0.0.880	2	al	1026476501	prawa	1	2.0.10.356	08-18-2015	2015-08-18 09:52:23	11:52:23	kobieta	2.0.10.92	3	4	1	1																							l	{SPACE}		no	BlockProc2		BlockList									27	Free	dl	color_red.png		0	6	217220	460																			1					25	prime_left.png	0	216659	0	0	13	0	216659	0	216659	1	216659	20	0	-1	215160	216659	216658	0	prime_left.png	TrialProc1	left	0		1	10	216969	-216969		0	0	TrialList2	target_both.png	0	dl	0	3	216709	260	l	505	217214															8	1	27	neut			450
1 ver1_main_procedure	34	1	33	<?xml version="1.0"?>\n<Clock xmlns:dt="urn:schemas-microsoft-com:datatypes"><Description dt:dt="string">E-Prime Primary Realtime Clock</Description><StartTime><Timestamp dt:dt="int">0</Timestamp><DateUtc dt:dt="string">2015-08-18T09:52:23Z</DateUtc></StartTime><FrequencyChanges><FrequencyChange><Frequency dt:dt="r8">2441386</Frequency><Timestamp dt:dt="r8">18205880340</Timestamp><Current dt:dt="r8">0</Current><DateUtc dt:dt="string">2015-08-18T09:52:23Z</DateUtc></FrequencyChange></FrequencyChanges></Clock>\n	1 ver1_main_procedure-34-1	99.925	1.0.0.880	2	al	1026476501	prawa	1	2.0.10.356	08-18-2015	2015-08-18 09:52:23	11:52:23	kobieta	2.0.10.92	3	4	1	1																							l	{SPACE}		no	BlockProc2		BlockList									28	Cued	d	color_blue.png		0	10	219852	160																			2					75	prime_right.png	0	219491	0	0	13	1	219492	1	219492	1	219491	20	0	-1	217993	219491	219490	0	prime_right.png	TrialProc1	left	0		0	11	219802	-219802		0	0	TrialList2	target_left.png	1	d	0	3	219541	261	d	301	219842															2	1	28	neut			150
1 ver1_main_procedure	34	1	33	<?xml version="1.0"?>\n<Clock xmlns:dt="urn:schemas-microsoft-com:datatypes"><Description dt:dt="string">E-Prime Primary Realtime Clock</Description><StartTime><Timestamp dt:dt="int">0</Timestamp><DateUtc dt:dt="string">2015-08-18T09:52:23Z</DateUtc></StartTime><FrequencyChanges><FrequencyChange><Frequency dt:dt="r8">2441386</Frequency><Timestamp dt:dt="r8">18205880340</Timestamp><Current dt:dt="r8">0</Current><DateUtc dt:dt="string">2015-08-18T09:52:23Z</DateUtc></FrequencyChange></FrequencyChanges></Clock>\n	1 ver1_main_procedure-34-1	99.925	1.0.0.880	2	al	1026476501	prawa	1	2.0.10.356	08-18-2015	2015-08-18 09:52:23	11:52:23	kobieta	2.0.10.92	3	4	1	1																							l	{SPACE}		no	BlockProc2		BlockList									29	Free	dl	color_green.png		0	9	222103	461																								25	prime_right.png	0	221823	0	0	13	0	221823	0	221823	1	221823	20	0	-1	220324	221823	221822	0		TrialProc1	left	0		0	0	0	0		0	0	TrialList2	target_both.png	0	dl	-999999	3	221873	0	l	221	222094															9	1	29	incomp			450
1 ver1_main_procedure	34	1	33	<?xml version="1.0"?>\n<Clock xmlns:dt="urn:schemas-microsoft-com:datatypes"><Description dt:dt="string">E-Prime Primary Realtime Clock</Description><StartTime><Timestamp dt:dt="int">0</Timestamp><DateUtc dt:dt="string">2015-08-18T09:52:23Z</DateUtc></StartTime><FrequencyChanges><FrequencyChange><Frequency dt:dt="r8">2441386</Frequency><Timestamp dt:dt="r8">18205880340</Timestamp><Current dt:dt="r8">0</Current><DateUtc dt:dt="string">2015-08-18T09:52:23Z</DateUtc></FrequencyChange></FrequencyChanges></Clock>\n	1 ver1_main_procedure-34-1	99.925	1.0.0.880	2	al	1026476501	prawa	1	2.0.10.356	08-18-2015	2015-08-18 09:52:23	11:52:23	kobieta	2.0.10.92	3	4	1	1																							l	{SPACE}		no	BlockProc2		BlockList									30	Cued	d	color_yellow.png		0	4	224775	160																								25	prime_right.png	0	224375	0	0	13	0	224375	0	224375	1	224375	20	0	-1	222876	224375	224374	0		TrialProc1	left	0		0	10	224685	-224685		0	0	TrialList2	target_left.png	1	d	0	3	224425	260	d	346	224771															3	1	30	incomp			150
1 ver1_main_procedure	34	1	33	<?xml version="1.0"?>\n<Clock xmlns:dt="urn:schemas-microsoft-com:datatypes"><Description dt:dt="string">E-Prime Primary Realtime Clock</Description><StartTime><Timestamp dt:dt="int">0</Timestamp><DateUtc dt:dt="string">2015-08-18T09:52:23Z</DateUtc></StartTime><FrequencyChanges><FrequencyChange><Frequency dt:dt="r8">2441386</Frequency><Timestamp dt:dt="r8">18205880340</Timestamp><Current dt:dt="r8">0</Current><DateUtc dt:dt="string">2015-08-18T09:52:23Z</DateUtc></FrequencyChange></FrequencyChanges></Clock>\n	1 ver1_main_procedure-34-1	99.925	1.0.0.880	2	al	1026476501	prawa	1	2.0.10.356	08-18-2015	2015-08-18 09:52:23	11:52:23	kobieta	2.0.10.92	3	4	1	1																							l	{SPACE}		no	BlockProc2		BlockList									31	Free	dl	color_green.png		0	6	227047	160																								75	prime_right.png	0	226747	0	0	13	0	226747	0	226747	1	226747	20	0	-1	225248	226747	226746	0		TrialProc1	right	0		0	0	0	0		0	0	TrialList2	target_both.png	0	dl	-999999	3	226797	0	l	244	227041															10	1	31	comp			150
1 ver1_main_procedure	34	1	33	<?xml version="1.0"?>\n<Clock xmlns:dt="urn:schemas-microsoft-com:datatypes"><Description dt:dt="string">E-Prime Primary Realtime Clock</Description><StartTime><Timestamp dt:dt="int">0</Timestamp><DateUtc dt:dt="string">2015-08-18T09:52:23Z</DateUtc></StartTime><FrequencyChanges><FrequencyChange><Frequency dt:dt="r8">2441386</Frequency><Timestamp dt:dt="r8">18205880340</Timestamp><Current dt:dt="r8">0</Current><DateUtc dt:dt="string">2015-08-18T09:52:23Z</DateUtc></FrequencyChange></FrequencyChanges></Clock>\n	1 ver1_main_procedure-34-1	99.925	1.0.0.880	2	al	1026476501	prawa	1	2.0.10.356	08-18-2015	2015-08-18 09:52:23	11:52:23	kobieta	2.0.10.92	3	4	1	1																							l	{SPACE}		no	BlockProc2		BlockList									32	Cued	d	color_yellow.png		0	8	229469	310																								75	prime_right.png	0	229019	0	0	13	0	229019	0	229019	2	229019	20	0	-1	227520	229019	229017	0		TrialProc1	left	0		0	10	229329	-229329		0	0	TrialList2	target_left.png	1	d	0	3	229069	260	d	392	229461															3	1	32	incomp			300
1 ver1_main_procedure	34	1	33	<?xml version="1.0"?>\n<Clock xmlns:dt="urn:schemas-microsoft-com:datatypes"><Description dt:dt="string">E-Prime Primary Realtime Clock</Description><StartTime><Timestamp dt:dt="int">0</Timestamp><DateUtc dt:dt="string">2015-08-18T09:52:23Z</DateUtc></StartTime><FrequencyChanges><FrequencyChange><Frequency dt:dt="r8">2441386</Frequency><Timestamp dt:dt="r8">18205880340</Timestamp><Current dt:dt="r8">0</Current><DateUtc dt:dt="string">2015-08-18T09:52:23Z</DateUtc></FrequencyChange></FrequencyChanges></Clock>\n	1 ver1_main_procedure-34-1	99.925	1.0.0.880	2	al	1026476501	prawa	1	2.0.10.356	08-18-2015	2015-08-18 09:52:23	11:52:23	kobieta	2.0.10.92	3	4	1	1																							l	{SPACE}		no	BlockProc2		BlockList									33	Free	dl	color_purple.png		0	10	232141	460																								75	prime_left.png	0	231591	0	0	13	0	231591	0	231591	2	231591	20	0	-1	230092	231591	231589	0		TrialProc1	left	0		0	10	231901	-231901		0	0	TrialList2	target_both.png	0	dl	0	3	231641	260	d	490	232131															7	1	33	comp			450
1 ver1_main_procedure	34	1	33	<?xml version="1.0"?>\n<Clock xmlns:dt="urn:schemas-microsoft-com:datatypes"><Description dt:dt="string">E-Prime Primary Realtime Clock</Description><StartTime><Timestamp dt:dt="int">0</Timestamp><DateUtc dt:dt="string">2015-08-18T09:52:23Z</DateUtc></StartTime><FrequencyChanges><FrequencyChange><Frequency dt:dt="r8">2441386</Frequency><Timestamp dt:dt="r8">18205880340</Timestamp><Current dt:dt="r8">0</Current><DateUtc dt:dt="string">2015-08-18T09:52:23Z</DateUtc></FrequencyChange></FrequencyChanges></Clock>\n	1 ver1_main_procedure-34-1	99.925	1.0.0.880	2	al	1026476501	prawa	1	2.0.10.356	08-18-2015	2015-08-18 09:52:23	11:52:23	kobieta	2.0.10.92	3	4	1	1																							l	{SPACE}		no	BlockProc2		BlockList									34	Free	dl	color_orange.png		0	10	234793	310																								25	prime_left.png	0	234413	0	0	13	0	234413	0	234413	1	234413	20	0	-1	232914	234413	234412	0		TrialProc1	left	0		0	10	234723	-234723		0	0	TrialList2	target_both.png	0	dl	0	3	234463	260	l	320	234783															7	1	34	comp			300
1 ver1_main_procedure	34	1	33	<?xml version="1.0"?>\n<Clock xmlns:dt="urn:schemas-microsoft-com:datatypes"><Description dt:dt="string">E-Prime Primary Realtime Clock</Description><StartTime><Timestamp dt:dt="int">0</Timestamp><DateUtc dt:dt="string">2015-08-18T09:52:23Z</DateUtc></StartTime><FrequencyChanges><FrequencyChange><Frequency dt:dt="r8">2441386</Frequency><Timestamp dt:dt="r8">18205880340</Timestamp><Current dt:dt="r8">0</Current><DateUtc dt:dt="string">2015-08-18T09:52:23Z</DateUtc></FrequencyChange></FrequencyChanges></Clock>\n	1 ver1_main_procedure-34-1	99.925	1.0.0.880	2	al	1026476501	prawa	1	2.0.10.356	08-18-2015	2015-08-18 09:52:23	11:52:23	kobieta	2.0.10.92	3	4	1	1																							l	{SPACE}		no	BlockProc2		BlockList									35	Free	dl	color_green.png		0	14	237375	310																								25	prime_right.png	0	236915	0	0	13	0	236915	0	236915	2	236915	20	0	-1	235416	236915	236913	0		TrialProc1	right	0		0	10	237225	-237225		0	0	TrialList2	target_both.png	0	dl	0	3	236965	260	l	396	237361															10	1	35	comp			300
1 ver1_main_procedure	34	1	33	<?xml version="1.0"?>\n<Clock xmlns:dt="urn:schemas-microsoft-com:datatypes"><Description dt:dt="string">E-Prime Primary Realtime Clock</Description><StartTime><Timestamp dt:dt="int">0</Timestamp><DateUtc dt:dt="string">2015-08-18T09:52:23Z</DateUtc></StartTime><FrequencyChanges><FrequencyChange><Frequency dt:dt="r8">2441386</Frequency><Timestamp dt:dt="r8">18205880340</Timestamp><Current dt:dt="r8">0</Current><DateUtc dt:dt="string">2015-08-18T09:52:23Z</DateUtc></FrequencyChange></FrequencyChanges></Clock>\n	1 ver1_main_procedure-34-1	99.925	1.0.0.880	2	al	1026476501	prawa	1	2.0.10.356	08-18-2015	2015-08-18 09:52:23	11:52:23	kobieta	2.0.10.92	3	4	1	1																							l	{SPACE}		no	BlockProc2		BlockList									36	Free	dl	color_orange.png		0	5	239847	460																								25	prime_left.png	0	239497	0	0	13	0	239497	0	239497	2	239497	19	0	-1	237998	239497	239495	0		TrialProc1	right	0		0	10	239807	-239807		0	0	TrialList2	target_both.png	0	dl	0	4	239547	260	l	295	239842															12	1	36	incomp			450
1 ver1_main_procedure	34	1	33	<?xml version="1.0"?>\n<Clock xmlns:dt="urn:schemas-microsoft-com:datatypes"><Description dt:dt="string">E-Prime Primary Realtime Clock</Description><StartTime><Timestamp dt:dt="int">0</Timestamp><DateUtc dt:dt="string">2015-08-18T09:52:23Z</DateUtc></StartTime><FrequencyChanges><FrequencyChange><Frequency dt:dt="r8">2441386</Frequency><Timestamp dt:dt="r8">18205880340</Timestamp><Current dt:dt="r8">0</Current><DateUtc dt:dt="string">2015-08-18T09:52:23Z</DateUtc></FrequencyChange></FrequencyChanges></Clock>\n	1 ver1_main_procedure-34-1	99.925	1.0.0.880	2	al	1026476501	prawa	1	2.0.10.356	08-18-2015	2015-08-18 09:52:23	11:52:23	kobieta	2.0.10.92	3	4	1	1																							l	{SPACE}		no	BlockProc2		BlockList									37	Free	dl	color_orange.png		0	5	242599	310																								25	prime_left.png	1	242119	0	0	13	1	242119	1	242119	1	242118	20	0	-1	240620	242118	242117	0		TrialProc1	left	0		0	10	242429	-242429		0	0	TrialList2	target_both.png	0	dl	0	4	242169	260	l	425	242594															7	1	37	comp			300
1 ver1_main_procedure	34	1	33	<?xml version="1.0"?>\n<Clock xmlns:dt="urn:schemas-microsoft-com:datatypes"><Description dt:dt="string">E-Prime Primary Realtime Clock</Description><StartTime><Timestamp dt:dt="int">0</Timestamp><DateUtc dt:dt="string">2015-08-18T09:52:23Z</DateUtc></StartTime><FrequencyChanges><FrequencyChange><Frequency dt:dt="r8">2441386</Frequency><Timestamp dt:dt="r8">18205880340</Timestamp><Current dt:dt="r8">0</Current><DateUtc dt:dt="string">2015-08-18T09:52:23Z</DateUtc></FrequencyChange></FrequencyChanges></Clock>\n	1 ver1_main_procedure-34-1	99.925	1.0.0.880	2	al	1026476501	prawa	1	2.0.10.356	08-18-2015	2015-08-18 09:52:23	11:52:23	kobieta	2.0.10.92	3	4	1	1																							l	{SPACE}		no	BlockProc2		BlockList									38	Free	dl	color_yellow.png		0	13	245141	310																								75	prime_right.png	0	244720	0	0	13	1	244721	1	244721	1	244720	20	0	-1	243222	244720	244719	0		TrialProc1	left	0		0	11	245031	-245031		0	0	TrialList2	target_both.png	0	dl	0	3	244770	261	d	357	245127															9	1	38	incomp			300
1 ver1_main_procedure	34	1	33	<?xml version="1.0"?>\n<Clock xmlns:dt="urn:schemas-microsoft-com:datatypes"><Description dt:dt="string">E-Prime Primary Realtime Clock</Description><StartTime><Timestamp dt:dt="int">0</Timestamp><DateUtc dt:dt="string">2015-08-18T09:52:23Z</DateUtc></StartTime><FrequencyChanges><FrequencyChange><Frequency dt:dt="r8">2441386</Frequency><Timestamp dt:dt="r8">18205880340</Timestamp><Current dt:dt="r8">0</Current><DateUtc dt:dt="string">2015-08-18T09:52:23Z</DateUtc></FrequencyChange></FrequencyChanges></Clock>\n	1 ver1_main_procedure-34-1	99.925	1.0.0.880	2	al	1026476501	prawa	1	2.0.10.356	08-18-2015	2015-08-18 09:52:23	11:52:23	kobieta	2.0.10.92	3	4	1	1																							l	{SPACE}		no	BlockProc2		BlockList									39	Free	dl	color_red.png		0	7	247613	160																			1					25	prime_left.png	0	247262	0	0	13	1	247263	1	247263	1	247262	20	0	-1	245764	247262	247261	0	prime_left.png	TrialProc1	left	0		0	11	247573	-247573		0	0	TrialList2	target_both.png	0	dl	0	3	247312	261	l	294	247606															8	1	39	neut			150
1 ver1_main_procedure	34	1	33	<?xml version="1.0"?>\n<Clock xmlns:dt="urn:schemas-microsoft-com:datatypes"><Description dt:dt="string">E-Prime Primary Realtime Clock</Description><StartTime><Timestamp dt:dt="int">0</Timestamp><DateUtc dt:dt="string">2015-08-18T09:52:23Z</DateUtc></StartTime><FrequencyChanges><FrequencyChange><Frequency dt:dt="r8">2441386</Frequency><Timestamp dt:dt="r8">18205880340</Timestamp><Current dt:dt="r8">0</Current><DateUtc dt:dt="string">2015-08-18T09:52:23Z</DateUtc></FrequencyChange></FrequencyChanges></Clock>\n	1 ver1_main_procedure-34-1	99.925	1.0.0.880	2	al	1026476501	prawa	1	2.0.10.356	08-18-2015	2015-08-18 09:52:23	11:52:23	kobieta	2.0.10.92	3	4	1	1																							l	{SPACE}		no	BlockProc2		BlockList									40	Free	dl	color_yellow.png		0	8	249934	311																								75	prime_right.png	0	249584	0	0	13	0	249584	0	249584	1	249584	20	0	-1	248085	249584	249583	0		TrialProc1	right	0		0	10	249894	-249894		0	0	TrialList2	target_both.png	0	dl	0	3	249634	260	d	291	249925															10	1	40	comp			300
1 ver1_main_procedure	34	1	33	<?xml version="1.0"?>\n<Clock xmlns:dt="urn:schemas-microsoft-com:datatypes"><Description dt:dt="string">E-Prime Primary Realtime Clock</Description><StartTime><Timestamp dt:dt="int">0</Timestamp><DateUtc dt:dt="string">2015-08-18T09:52:23Z</DateUtc></StartTime><FrequencyChanges><FrequencyChange><Frequency dt:dt="r8">2441386</Frequency><Timestamp dt:dt="r8">18205880340</Timestamp><Current dt:dt="r8">0</Current><DateUtc dt:dt="string">2015-08-18T09:52:23Z</DateUtc></FrequencyChange></FrequencyChanges></Clock>\n	1 ver1_main_procedure-34-1	99.925	1.0.0.880	2	al	1026476501	prawa	1	2.0.10.356	08-18-2015	2015-08-18 09:52:23	11:52:23	kobieta	2.0.10.92	3	4	1	1																							l	{SPACE}		no	BlockProc2		BlockList									41	Cued	l			0	4	252576	461																								75	prime_right.png	0	252056	0	0	13	0	252056	0	252056	1	252056	20	0	-1	250557	252056	252055	0		TrialProc1	right	0		0	10	252366	-252366		0	0	TrialList2	target_right.png	0	l	0	3	252106	260	d	465	252571															4	1	41	comp			450
1 ver1_main_procedure	34	1	33	<?xml version="1.0"?>\n<Clock xmlns:dt="urn:schemas-microsoft-com:datatypes"><Description dt:dt="string">E-Prime Primary Realtime Clock</Description><StartTime><Timestamp dt:dt="int">0</Timestamp><DateUtc dt:dt="string">2015-08-18T09:52:23Z</DateUtc></StartTime><FrequencyChanges><FrequencyChange><Frequency dt:dt="r8">2441386</Frequency><Timestamp dt:dt="r8">18205880340</Timestamp><Current dt:dt="r8">0</Current><DateUtc dt:dt="string">2015-08-18T09:52:23Z</DateUtc></FrequencyChange></FrequencyChanges></Clock>\n	1 ver1_main_procedure-34-1	99.925	1.0.0.880	2	al	1026476501	prawa	1	2.0.10.356	08-18-2015	2015-08-18 09:52:23	11:52:23	kobieta	2.0.10.92	3	4	1	1																							l	{SPACE}		no	BlockProc2		BlockList									42	Free	dl	color_purple.png		0	10	255338	161																								25	prime_left.png	0	254848	0	0	13	0	254848	0	254848	1	254848	20	0	-1	253349	254848	254847	0		TrialProc1	right	0		0	10	255158	-255158		0	0	TrialList2	target_both.png	0	dl	0	3	254898	260	d	429	255327															12	1	42	incomp			150
1 ver1_main_procedure	34	1	33	<?xml version="1.0"?>\n<Clock xmlns:dt="urn:schemas-microsoft-com:datatypes"><Description dt:dt="string">E-Prime Primary Realtime Clock</Description><StartTime><Timestamp dt:dt="int">0</Timestamp><DateUtc dt:dt="string">2015-08-18T09:52:23Z</DateUtc></StartTime><FrequencyChanges><FrequencyChange><Frequency dt:dt="r8">2441386</Frequency><Timestamp dt:dt="r8">18205880340</Timestamp><Current dt:dt="r8">0</Current><DateUtc dt:dt="string">2015-08-18T09:52:23Z</DateUtc></FrequencyChange></FrequencyChanges></Clock>\n	1 ver1_main_procedure-34-1	99.925	1.0.0.880	2	al	1026476501	prawa	1	2.0.10.356	08-18-2015	2015-08-18 09:52:23	11:52:23	kobieta	2.0.10.92	3	4	1	1																							l	{SPACE}		no	BlockProc2		BlockList									43	Cued	l	color_green.png		0	6	257720	461																								25	prime_right.png	0	257310	0	0	13	0	257310	0	257310	1	257310	20	0	-1	255811	257310	257309	0		TrialProc1	right	0		0	10	257620	-257620		0	0	TrialList2	target_right.png	1	l	0	3	257360	260	l	354	257714															4	1	43	comp			450
1 ver1_main_procedure	34	1	33	<?xml version="1.0"?>\n<Clock xmlns:dt="urn:schemas-microsoft-com:datatypes"><Description dt:dt="string">E-Prime Primary Realtime Clock</Description><StartTime><Timestamp dt:dt="int">0</Timestamp><DateUtc dt:dt="string">2015-08-18T09:52:23Z</DateUtc></StartTime><FrequencyChanges><FrequencyChange><Frequency dt:dt="r8">2441386</Frequency><Timestamp dt:dt="r8">18205880340</Timestamp><Current dt:dt="r8">0</Current><DateUtc dt:dt="string">2015-08-18T09:52:23Z</DateUtc></FrequencyChange></FrequencyChanges></Clock>\n	1 ver1_main_procedure-34-1	99.925	1.0.0.880	2	al	1026476501	prawa	1	2.0.10.356	08-18-2015	2015-08-18 09:52:23	11:52:23	kobieta	2.0.10.92	3	4	1	1																							l	{SPACE}		no	BlockProc2		BlockList									44	Free	dl	color_orange.png		0	14	260482	311																								25	prime_left.png	0	259992	0	0	13	0	259992	0	259992	1	259992	20	0	-1	258493	259992	259991	0		TrialProc1	left	0		0	10	260302	-260302		0	0	TrialList2	target_both.png	0	dl	0	3	260042	260	l	426	260468															7	1	44	comp			300
1 ver1_main_procedure	34	1	33	<?xml version="1.0"?>\n<Clock xmlns:dt="urn:schemas-microsoft-com:datatypes"><Description dt:dt="string">E-Prime Primary Realtime Clock</Description><StartTime><Timestamp dt:dt="int">0</Timestamp><DateUtc dt:dt="string">2015-08-18T09:52:23Z</DateUtc></StartTime><FrequencyChanges><FrequencyChange><Frequency dt:dt="r8">2441386</Frequency><Timestamp dt:dt="r8">18205880340</Timestamp><Current dt:dt="r8">0</Current><DateUtc dt:dt="string">2015-08-18T09:52:23Z</DateUtc></FrequencyChange></FrequencyChanges></Clock>\n	1 ver1_main_procedure-34-1	99.925	1.0.0.880	2	al	1026476501	prawa	1	2.0.10.356	08-18-2015	2015-08-18 09:52:23	11:52:23	kobieta	2.0.10.92	3	4	1	1																							l	{SPACE}		no	BlockProc2		BlockList									45	Free	dl	color_purple.png		0	8	263104	311																								75	prime_left.png	0	262604	0	0	13	0	262604	0	262604	1	262604	20	0	-1	261105	262604	262603	0		TrialProc1	left	0		0	10	262914	-262914		0	0	TrialList2	target_both.png	0	dl	0	3	262654	260	d	442	263096															7	1	45	comp			300
1 ver1_main_procedure	34	1	33	<?xml version="1.0"?>\n<Clock xmlns:dt="urn:schemas-microsoft-com:datatypes"><Description dt:dt="string">E-Prime Primary Realtime Clock</Description><StartTime><Timestamp dt:dt="int">0</Timestamp><DateUtc dt:dt="string">2015-08-18T09:52:23Z</DateUtc></StartTime><FrequencyChanges><FrequencyChange><Frequency dt:dt="r8">2441386</Frequency><Timestamp dt:dt="r8">18205880340</Timestamp><Current dt:dt="r8">0</Current><DateUtc dt:dt="string">2015-08-18T09:52:23Z</DateUtc></FrequencyChange></FrequencyChanges></Clock>\n	1 ver1_main_procedure-34-1	99.925	1.0.0.880	2	al	1026476501	prawa	1	2.0.10.356	08-18-2015	2015-08-18 09:52:23	11:52:23	kobieta	2.0.10.92	3	4	1	1																							l	{SPACE}		no	BlockProc2		BlockList									46	Free	dl	color_green.png		0	6	265546	461																								25	prime_right.png	0	265226	0	0	13	0	265226	0	265226	1	265226	20	0	-1	263727	265226	265225	0		TrialProc1	left	0		0	10	265536	-265536		0	0	TrialList2	target_both.png	0	dl	0	3	265276	260	l	264	265540															9	1	46	incomp			450
1 ver1_main_procedure	34	1	33	<?xml version="1.0"?>\n<Clock xmlns:dt="urn:schemas-microsoft-com:datatypes"><Description dt:dt="string">E-Prime Primary Realtime Clock</Description><StartTime><Timestamp dt:dt="int">0</Timestamp><DateUtc dt:dt="string">2015-08-18T09:52:23Z</DateUtc></StartTime><FrequencyChanges><FrequencyChange><Frequency dt:dt="r8">2441386</Frequency><Timestamp dt:dt="r8">18205880340</Timestamp><Current dt:dt="r8">0</Current><DateUtc dt:dt="string">2015-08-18T09:52:23Z</DateUtc></FrequencyChange></FrequencyChanges></Clock>\n	1 ver1_main_procedure-34-1	99.925	1.0.0.880	2	al	1026476501	prawa	1	2.0.10.356	08-18-2015	2015-08-18 09:52:23	11:52:23	kobieta	2.0.10.92	3	4	1	1																							l	{SPACE}		no	BlockProc2		BlockList									47	Free	dl	color_orange.png		0	12	268288	461																								25	prime_left.png	0	267818	0	0	13	0	267818	0	267818	1	267818	20	0	-1	266319	267818	267817	0		TrialProc1	left	0		0	10	268128	-268128		0	0	TrialList2	target_both.png	0	dl	0	3	267868	260	l	408	268276															7	1	47	comp			450
1 ver1_main_procedure	34	1	33	<?xml version="1.0"?>\n<Clock xmlns:dt="urn:schemas-microsoft-com:datatypes"><Description dt:dt="string">E-Prime Primary Realtime Clock</Description><StartTime><Timestamp dt:dt="int">0</Timestamp><DateUtc dt:dt="string">2015-08-18T09:52:23Z</DateUtc></StartTime><FrequencyChanges><FrequencyChange><Frequency dt:dt="r8">2441386</Frequency><Timestamp dt:dt="r8">18205880340</Timestamp><Current dt:dt="r8">0</Current><DateUtc dt:dt="string">2015-08-18T09:52:23Z</DateUtc></FrequencyChange></FrequencyChanges></Clock>\n	1 ver1_main_procedure-34-1	99.925	1.0.0.880	2	al	1026476501	prawa	1	2.0.10.356	08-18-2015	2015-08-18 09:52:23	11:52:23	kobieta	2.0.10.92	3	4	1	1																							l	{SPACE}		no	BlockProc2		BlockList									48	Free	dl	color_orange.png		0	6	270720	310																								75	prime_left.png	0	270560	0	0	13	0	270560	0	270560	1	270560	20	0	-1	269061	270560	270559	0		TrialProc1	right	0		0	0	0	0		0	0	TrialList2	target_both.png	0	dl	-999999	3	270610	0	l	104	270714															12	1	48	incomp			300
1 ver1_main_procedure	34	1	33	<?xml version="1.0"?>\n<Clock xmlns:dt="urn:schemas-microsoft-com:datatypes"><Description dt:dt="string">E-Prime Primary Realtime Clock</Description><StartTime><Timestamp dt:dt="int">0</Timestamp><DateUtc dt:dt="string">2015-08-18T09:52:23Z</DateUtc></StartTime><FrequencyChanges><FrequencyChange><Frequency dt:dt="r8">2441386</Frequency><Timestamp dt:dt="r8">18205880340</Timestamp><Current dt:dt="r8">0</Current><DateUtc dt:dt="string">2015-08-18T09:52:23Z</DateUtc></FrequencyChange></FrequencyChanges></Clock>\n	1 ver1_main_procedure-34-1	99.925	1.0.0.880	2	al	1026476501	prawa	1	2.0.10.356	08-18-2015	2015-08-18 09:52:23	11:52:23	kobieta	2.0.10.92	3	4	1	1																							l	{SPACE}		no	BlockProc2		BlockList									49	Free	dl	color_green.png		0	8	273302	310																								25	prime_right.png	0	272842	0	0	13	0	272842	0	272842	1	272842	20	0	-1	271343	272842	272841	0		TrialProc1	left	0		0	10	273152	-273152		0	0	TrialList2	target_both.png	0	dl	0	3	272892	260	l	402	273294															9	1	49	incomp			300
1 ver1_main_procedure	34	1	33	<?xml version="1.0"?>\n<Clock xmlns:dt="urn:schemas-microsoft-com:datatypes"><Description dt:dt="string">E-Prime Primary Realtime Clock</Description><StartTime><Timestamp dt:dt="int">0</Timestamp><DateUtc dt:dt="string">2015-08-18T09:52:23Z</DateUtc></StartTime><FrequencyChanges><FrequencyChange><Frequency dt:dt="r8">2441386</Frequency><Timestamp dt:dt="r8">18205880340</Timestamp><Current dt:dt="r8">0</Current><DateUtc dt:dt="string">2015-08-18T09:52:23Z</DateUtc></FrequencyChange></FrequencyChanges></Clock>\n	1 ver1_main_procedure-34-1	99.925	1.0.0.880	2	al	1026476501	prawa	1	2.0.10.356	08-18-2015	2015-08-18 09:52:23	11:52:23	kobieta	2.0.10.92	3	4	1	1																							l	{SPACE}		no	BlockProc2		BlockList									50	Free	dl	color_yellow.png		0	8	275744	160																								75	prime_right.png	0	275424	0	0	13	0	275424	0	275424	2	275424	20	0	-1	273925	275424	275422	0		TrialProc1	left	0		0	10	275734	-275734		0	0	TrialList2	target_both.png	0	dl	0	3	275474	260	d	262	275736															9	1	50	incomp			150
1 ver1_main_procedure	34	1	33	<?xml version="1.0"?>\n<Clock xmlns:dt="urn:schemas-microsoft-com:datatypes"><Description dt:dt="string">E-Prime Primary Realtime Clock</Description><StartTime><Timestamp dt:dt="int">0</Timestamp><DateUtc dt:dt="string">2015-08-18T09:52:23Z</DateUtc></StartTime><FrequencyChanges><FrequencyChange><Frequency dt:dt="r8">2441386</Frequency><Timestamp dt:dt="r8">18205880340</Timestamp><Current dt:dt="r8">0</Current><DateUtc dt:dt="string">2015-08-18T09:52:23Z</DateUtc></FrequencyChange></FrequencyChanges></Clock>\n	1 ver1_main_procedure-34-1	99.925	1.0.0.880	2	al	1026476501	prawa	1	2.0.10.356	08-18-2015	2015-08-18 09:52:23	11:52:23	kobieta	2.0.10.92	3	4	1	1																							l	{SPACE}		no	BlockProc2		BlockList									51	Free	dl	color_red.png		0	9	278096	310																			2					25	prime_right.png	0	277715	0	0	13	0	277715	0	277715	1	277715	20	0	-1	276216	277715	277714	0	prime_right.png	TrialProc1	right	0		0	11	278026	-278026		0	0	TrialList2	target_both.png	0	dl	0	3	277765	261	l	322	278087															11	1	51	neut			300
1 ver1_main_procedure	34	1	33	<?xml version="1.0"?>\n<Clock xmlns:dt="urn:schemas-microsoft-com:datatypes"><Description dt:dt="string">E-Prime Primary Realtime Clock</Description><StartTime><Timestamp dt:dt="int">0</Timestamp><DateUtc dt:dt="string">2015-08-18T09:52:23Z</DateUtc></StartTime><FrequencyChanges><FrequencyChange><Frequency dt:dt="r8">2441386</Frequency><Timestamp dt:dt="r8">18205880340</Timestamp><Current dt:dt="r8">0</Current><DateUtc dt:dt="string">2015-08-18T09:52:23Z</DateUtc></FrequencyChange></FrequencyChanges></Clock>\n	1 ver1_main_procedure-34-1	99.925	1.0.0.880	2	al	1026476501	prawa	1	2.0.10.356	08-18-2015	2015-08-18 09:52:23	11:52:23	kobieta	2.0.10.92	3	4	1	1																							l	{SPACE}		no	BlockProc2		BlockList									52	Free	dl	color_blue.png		0	8	280567	311																			1					75	prime_left.png	0	280217	0	0	13	0	280217	0	280217	1	280217	20	0	-1	278718	280217	280216	0	prime_left.png	TrialProc1	right	0		1	10	280527	-280527		0	0	TrialList2	target_both.png	0	dl	0	3	280267	260	d	292	280559															11	1	52	neut			300
1 ver1_main_procedure	34	1	33	<?xml version="1.0"?>\n<Clock xmlns:dt="urn:schemas-microsoft-com:datatypes"><Description dt:dt="string">E-Prime Primary Realtime Clock</Description><StartTime><Timestamp dt:dt="int">0</Timestamp><DateUtc dt:dt="string">2015-08-18T09:52:23Z</DateUtc></StartTime><FrequencyChanges><FrequencyChange><Frequency dt:dt="r8">2441386</Frequency><Timestamp dt:dt="r8">18205880340</Timestamp><Current dt:dt="r8">0</Current><DateUtc dt:dt="string">2015-08-18T09:52:23Z</DateUtc></FrequencyChange></FrequencyChanges></Clock>\n	1 ver1_main_procedure-34-1	99.925	1.0.0.880	2	al	1026476501	prawa	1	2.0.10.356	08-18-2015	2015-08-18 09:52:23	11:52:23	kobieta	2.0.10.92	3	4	1	1																							l	{SPACE}		no	BlockProc2		BlockList									53	Free	dl	color_red.png		0	15	283200	160																			2					75	prime_right.png	0	282689	0	0	13	0	282689	0	282689	1	282689	20	0	-1	281190	282689	282688	0	prime_right.png	TrialProc1	left	0		0	10	282999	-282999		0	0	TrialList2	target_both.png	0	dl	0	3	282739	260	l	446	283185															8	1	53	neut			150
1 ver1_main_procedure	34	1	33	<?xml version="1.0"?>\n<Clock xmlns:dt="urn:schemas-microsoft-com:datatypes"><Description dt:dt="string">E-Prime Primary Realtime Clock</Description><StartTime><Timestamp dt:dt="int">0</Timestamp><DateUtc dt:dt="string">2015-08-18T09:52:23Z</DateUtc></StartTime><FrequencyChanges><FrequencyChange><Frequency dt:dt="r8">2441386</Frequency><Timestamp dt:dt="r8">18205880340</Timestamp><Current dt:dt="r8">0</Current><DateUtc dt:dt="string">2015-08-18T09:52:23Z</DateUtc></FrequencyChange></FrequencyChanges></Clock>\n	1 ver1_main_procedure-34-1	99.925	1.0.0.880	2	al	1026476501	prawa	1	2.0.10.356	08-18-2015	2015-08-18 09:52:23	11:52:23	kobieta	2.0.10.92	3	4	1	1																							l	{SPACE}		no	BlockProc2		BlockList									54	Free	dl	color_green.png		0	12	285541	160																								75	prime_right.png	0	285171	0	0	13	0	285171	0	285171	1	285171	20	0	-1	283672	285171	285170	0		TrialProc1	left	0		0	10	285481	-285481		0	0	TrialList2	target_both.png	0	dl	0	3	285221	260	l	308	285529															9	1	54	incomp			150
1 ver1_main_procedure	34	1	33	<?xml version="1.0"?>\n<Clock xmlns:dt="urn:schemas-microsoft-com:datatypes"><Description dt:dt="string">E-Prime Primary Realtime Clock</Description><StartTime><Timestamp dt:dt="int">0</Timestamp><DateUtc dt:dt="string">2015-08-18T09:52:23Z</DateUtc></StartTime><FrequencyChanges><FrequencyChange><Frequency dt:dt="r8">2441386</Frequency><Timestamp dt:dt="r8">18205880340</Timestamp><Current dt:dt="r8">0</Current><DateUtc dt:dt="string">2015-08-18T09:52:23Z</DateUtc></FrequencyChange></FrequencyChanges></Clock>\n	1 ver1_main_procedure-34-1	99.925	1.0.0.880	2	al	1026476501	prawa	1	2.0.10.356	08-18-2015	2015-08-18 09:52:23	11:52:23	kobieta	2.0.10.92	3	4	1	1																							l	{SPACE}		no	BlockProc2		BlockList									55	Free	dl	color_purple.png		0	8	287923	310																								25	prime_left.png	0	287513	0	0	13	0	287513	0	287513	1	287513	20	0	-1	286014	287513	287512	0		TrialProc1	right	0		0	10	287823	-287823		0	0	TrialList2	target_both.png	0	dl	0	3	287563	260	d	352	287915															12	1	55	incomp			300
1 ver1_main_procedure	34	1	33	<?xml version="1.0"?>\n<Clock xmlns:dt="urn:schemas-microsoft-com:datatypes"><Description dt:dt="string">E-Prime Primary Realtime Clock</Description><StartTime><Timestamp dt:dt="int">0</Timestamp><DateUtc dt:dt="string">2015-08-18T09:52:23Z</DateUtc></StartTime><FrequencyChanges><FrequencyChange><Frequency dt:dt="r8">2441386</Frequency><Timestamp dt:dt="r8">18205880340</Timestamp><Current dt:dt="r8">0</Current><DateUtc dt:dt="string">2015-08-18T09:52:23Z</DateUtc></FrequencyChange></FrequencyChanges></Clock>\n	1 ver1_main_procedure-34-1	99.925	1.0.0.880	2	al	1026476501	prawa	1	2.0.10.356	08-18-2015	2015-08-18 09:52:23	11:52:23	kobieta	2.0.10.92	3	4	1	1																							l	{SPACE}		no	BlockProc2		BlockList									56	Free	dl	color_green.png		0	12	290455	310																								25	prime_right.png	0	290045	0	0	13	0	290045	0	290045	2	290045	20	0	-1	288546	290045	290043	0		TrialProc1	right	0		0	10	290355	-290355		0	0	TrialList2	target_both.png	0	dl	0	3	290095	260	l	348	290443															10	1	56	comp			300
1 ver1_main_procedure	34	1	33	<?xml version="1.0"?>\n<Clock xmlns:dt="urn:schemas-microsoft-com:datatypes"><Description dt:dt="string">E-Prime Primary Realtime Clock</Description><StartTime><Timestamp dt:dt="int">0</Timestamp><DateUtc dt:dt="string">2015-08-18T09:52:23Z</DateUtc></StartTime><FrequencyChanges><FrequencyChange><Frequency dt:dt="r8">2441386</Frequency><Timestamp dt:dt="r8">18205880340</Timestamp><Current dt:dt="r8">0</Current><DateUtc dt:dt="string">2015-08-18T09:52:23Z</DateUtc></FrequencyChange></FrequencyChanges></Clock>\n	1 ver1_main_procedure-34-1	99.925	1.0.0.880	2	al	1026476501	prawa	1	2.0.10.356	08-18-2015	2015-08-18 09:52:23	11:52:23	kobieta	2.0.10.92	3	4	1	1																							l	{SPACE}		no	BlockProc2		BlockList									57	Free	dl	color_red.png		0	7	292947	310																			1					25	prime_left.png	0	292577	0	0	13	0	292577	0	292577	2	292577	20	0	-1	291078	292577	292575	0	prime_left.png	TrialProc1	right	0		0	10	292887	-292887		0	0	TrialList2	target_both.png	0	dl	0	3	292627	260	l	313	292940															11	1	57	neut			300
1 ver1_main_procedure	34	1	33	<?xml version="1.0"?>\n<Clock xmlns:dt="urn:schemas-microsoft-com:datatypes"><Description dt:dt="string">E-Prime Primary Realtime Clock</Description><StartTime><Timestamp dt:dt="int">0</Timestamp><DateUtc dt:dt="string">2015-08-18T09:52:23Z</DateUtc></StartTime><FrequencyChanges><FrequencyChange><Frequency dt:dt="r8">2441386</Frequency><Timestamp dt:dt="r8">18205880340</Timestamp><Current dt:dt="r8">0</Current><DateUtc dt:dt="string">2015-08-18T09:52:23Z</DateUtc></FrequencyChange></FrequencyChanges></Clock>\n	1 ver1_main_procedure-34-1	99.925	1.0.0.880	2	al	1026476501	prawa	1	2.0.10.356	08-18-2015	2015-08-18 09:52:23	11:52:23	kobieta	2.0.10.92	3	4	1	1																							l	{SPACE}		no	BlockProc2		BlockList									58	Free	dl	color_blue.png		0	13	295469	460																			2					75	prime_right.png	1	295069	0	0	13	1	295069	1	295069	1	295068	20	0	-1	293570	295068	295067	0	prime_right.png	TrialProc1	left	0		0	10	295379	-295379		0	0	TrialList2	target_both.png	0	dl	0	4	295119	260	d	337	295456															8	1	58	neut			450
1 ver1_main_procedure	34	1	33	<?xml version="1.0"?>\n<Clock xmlns:dt="urn:schemas-microsoft-com:datatypes"><Description dt:dt="string">E-Prime Primary Realtime Clock</Description><StartTime><Timestamp dt:dt="int">0</Timestamp><DateUtc dt:dt="string">2015-08-18T09:52:23Z</DateUtc></StartTime><FrequencyChanges><FrequencyChange><Frequency dt:dt="r8">2441386</Frequency><Timestamp dt:dt="r8">18205880340</Timestamp><Current dt:dt="r8">0</Current><DateUtc dt:dt="string">2015-08-18T09:52:23Z</DateUtc></FrequencyChange></FrequencyChanges></Clock>\n	1 ver1_main_procedure-34-1	99.925	1.0.0.880	2	al	1026476501	prawa	1	2.0.10.356	08-18-2015	2015-08-18 09:52:23	11:52:23	kobieta	2.0.10.92	3	4	1	1																							l	{SPACE}		no	BlockProc2		BlockList									59	Free	dl	color_purple.png		0	13	298111	460																								75	prime_left.png	1	297741	0	0	13	1	297741	1	297741	1	297740	20	0	-1	296242	297740	297739	0		TrialProc1	left	0		0	11	298051	-298051		0	0	TrialList2	target_both.png	0	dl	0	3	297790	261	d	308	298098															7	1	59	comp			450
1 ver1_main_procedure	34	1	33	<?xml version="1.0"?>\n<Clock xmlns:dt="urn:schemas-microsoft-com:datatypes"><Description dt:dt="string">E-Prime Primary Realtime Clock</Description><StartTime><Timestamp dt:dt="int">0</Timestamp><DateUtc dt:dt="string">2015-08-18T09:52:23Z</DateUtc></StartTime><FrequencyChanges><FrequencyChange><Frequency dt:dt="r8">2441386</Frequency><Timestamp dt:dt="r8">18205880340</Timestamp><Current dt:dt="r8">0</Current><DateUtc dt:dt="string">2015-08-18T09:52:23Z</DateUtc></FrequencyChange></FrequencyChanges></Clock>\n	1 ver1_main_procedure-34-1	99.925	1.0.0.880	2	al	1026476501	prawa	1	2.0.10.356	08-18-2015	2015-08-18 09:52:23	11:52:23	kobieta	2.0.10.92	3	4	1	1																							l	{SPACE}		no	BlockProc2		BlockList									60	Free	dl	color_yellow.png		0	11	300733	460																								75	prime_right.png	1	300383	0	0	13	1	300383	1	300383	1	300382	20	0	-1	298884	300382	300381	0		TrialProc1	left	0		0	11	300693	-300693		0	0	TrialList2	target_both.png	0	dl	0	3	300432	261	d	290	300722															9	1	60	incomp			450
1 ver1_main_procedure	34	1	33	<?xml version="1.0"?>\n<Clock xmlns:dt="urn:schemas-microsoft-com:datatypes"><Description dt:dt="string">E-Prime Primary Realtime Clock</Description><StartTime><Timestamp dt:dt="int">0</Timestamp><DateUtc dt:dt="string">2015-08-18T09:52:23Z</DateUtc></StartTime><FrequencyChanges><FrequencyChange><Frequency dt:dt="r8">2441386</Frequency><Timestamp dt:dt="r8">18205880340</Timestamp><Current dt:dt="r8">0</Current><DateUtc dt:dt="string">2015-08-18T09:52:23Z</DateUtc></FrequencyChange></FrequencyChanges></Clock>\n	1 ver1_main_procedure-34-1	99.925	1.0.0.880	2	al	1026476501	prawa	1	2.0.10.356	08-18-2015	2015-08-18 09:52:23	11:52:23	kobieta	2.0.10.92	3	4	1	1																							l	{SPACE}		no	BlockProc2		BlockList									61	Cued	d	color_purple.png		0	15	303255	160																								75	prime_left.png	1	303005	0	0	13	1	303005	1	303005	1	303004	20	0	-1	301506	303004	303003	0		TrialProc1	left	0		0	0	0	0		0	0	TrialList2	target_left.png	1	d	-999999	3	303054	0	d	186	303240															1	1	61	comp			150
1 ver1_main_procedure	34	1	33	<?xml version="1.0"?>\n<Clock xmlns:dt="urn:schemas-microsoft-com:datatypes"><Description dt:dt="string">E-Prime Primary Realtime Clock</Description><StartTime><Timestamp dt:dt="int">0</Timestamp><DateUtc dt:dt="string">2015-08-18T09:52:23Z</DateUtc></StartTime><FrequencyChanges><FrequencyChange><Frequency dt:dt="r8">2441386</Frequency><Timestamp dt:dt="r8">18205880340</Timestamp><Current dt:dt="r8">0</Current><DateUtc dt:dt="string">2015-08-18T09:52:23Z</DateUtc></FrequencyChange></FrequencyChanges></Clock>\n	1 ver1_main_procedure-34-1	99.925	1.0.0.880	2	al	1026476501	prawa	1	2.0.10.356	08-18-2015	2015-08-18 09:52:23	11:52:23	kobieta	2.0.10.92	3	4	1	1																							l	{SPACE}		no	BlockProc2		BlockList									62	Cued	l	color_green.png		0	10	305546	311																								25	prime_right.png	0	305226	0	0	13	0	305226	0	305226	1	305226	20	0	-1	303727	305226	305225	0		TrialProc1	right	0		-999999	10	305536	0		0	0	TrialList2	target_right.png	1	l	0	3	305276	0	l	252	305528															4	1	62	comp			300
1 ver1_main_procedure	34	1	33	<?xml version="1.0"?>\n<Clock xmlns:dt="urn:schemas-microsoft-com:datatypes"><Description dt:dt="string">E-Prime Primary Realtime Clock</Description><StartTime><Timestamp dt:dt="int">0</Timestamp><DateUtc dt:dt="string">2015-08-18T09:52:23Z</DateUtc></StartTime><FrequencyChanges><FrequencyChange><Frequency dt:dt="r8">2441386</Frequency><Timestamp dt:dt="r8">18205880340</Timestamp><Current dt:dt="r8">0</Current><DateUtc dt:dt="string">2015-08-18T09:52:23Z</DateUtc></FrequencyChange></FrequencyChanges></Clock>\n	1 ver1_main_procedure-34-1	99.925	1.0.0.880	2	al	1026476501	prawa	1	2.0.10.356	08-18-2015	2015-08-18 09:52:23	11:52:23	kobieta	2.0.10.92	3	4	1	1																							l	{SPACE}		no	BlockProc2		BlockList									63	Free	dl	color_orange.png		0	12	308038	160																								25	prime_left.png	0	307668	0	0	13	0	307668	0	307668	1	307668	20	0	-1	306169	307668	307667	0		TrialProc1	right	0		0	10	307978	-307978		0	0	TrialList2	target_both.png	0	dl	0	3	307718	260	l	308	308026															12	1	63	incomp			150
1 ver1_main_procedure	34	1	33	<?xml version="1.0"?>\n<Clock xmlns:dt="urn:schemas-microsoft-com:datatypes"><Description dt:dt="string">E-Prime Primary Realtime Clock</Description><StartTime><Timestamp dt:dt="int">0</Timestamp><DateUtc dt:dt="string">2015-08-18T09:52:23Z</DateUtc></StartTime><FrequencyChanges><FrequencyChange><Frequency dt:dt="r8">2441386</Frequency><Timestamp dt:dt="r8">18205880340</Timestamp><Current dt:dt="r8">0</Current><DateUtc dt:dt="string">2015-08-18T09:52:23Z</DateUtc></FrequencyChange></FrequencyChanges></Clock>\n	1 ver1_main_procedure-34-1	99.925	1.0.0.880	2	al	1026476501	prawa	1	2.0.10.356	08-18-2015	2015-08-18 09:52:23	11:52:23	kobieta	2.0.10.92	3	4	1	1																							l	{SPACE}		no	BlockProc2		BlockList									64	Free	dl	color_orange.png		0	9	310300	310																								25	prime_left.png	0	310010	0	0	13	0	310010	0	310010	1	310010	20	0	-1	308511	310010	310009	0		TrialProc1	right	0		0	0	0	0		0	0	TrialList2	target_both.png	0	dl	-999999	3	310060	0	l	231	310291															12	1	64	incomp			300
1 ver1_main_procedure	34	1	33	<?xml version="1.0"?>\n<Clock xmlns:dt="urn:schemas-microsoft-com:datatypes"><Description dt:dt="string">E-Prime Primary Realtime Clock</Description><StartTime><Timestamp dt:dt="int">0</Timestamp><DateUtc dt:dt="string">2015-08-18T09:52:23Z</DateUtc></StartTime><FrequencyChanges><FrequencyChange><Frequency dt:dt="r8">2441386</Frequency><Timestamp dt:dt="r8">18205880340</Timestamp><Current dt:dt="r8">0</Current><DateUtc dt:dt="string">2015-08-18T09:52:23Z</DateUtc></FrequencyChange></FrequencyChanges></Clock>\n	1 ver1_main_procedure-34-1	99.925	1.0.0.880	2	al	1026476501	prawa	1	2.0.10.356	08-18-2015	2015-08-18 09:52:23	11:52:23	kobieta	2.0.10.92	3	4	1	1																							l	{SPACE}		no	BlockProc2		BlockList									65	Free	dl	color_yellow.png		0	11	312782	460																								75	prime_right.png	0	312422	0	0	13	0	312422	0	312422	2	312422	20	0	-1	310923	312422	312420	0		TrialProc1	right	0		0	10	312732	-312732		0	0	TrialList2	target_both.png	0	dl	0	3	312472	260	d	299	312771															10	1	65	comp			450
1 ver1_main_procedure	34	1	33	<?xml version="1.0"?>\n<Clock xmlns:dt="urn:schemas-microsoft-com:datatypes"><Description dt:dt="string">E-Prime Primary Realtime Clock</Description><StartTime><Timestamp dt:dt="int">0</Timestamp><DateUtc dt:dt="string">2015-08-18T09:52:23Z</DateUtc></StartTime><FrequencyChanges><FrequencyChange><Frequency dt:dt="r8">2441386</Frequency><Timestamp dt:dt="r8">18205880340</Timestamp><Current dt:dt="r8">0</Current><DateUtc dt:dt="string">2015-08-18T09:52:23Z</DateUtc></FrequencyChange></FrequencyChanges></Clock>\n	1 ver1_main_procedure-34-1	99.925	1.0.0.880	2	al	1026476501	prawa	1	2.0.10.356	08-18-2015	2015-08-18 09:52:23	11:52:23	kobieta	2.0.10.92	3	4	1	1																							l	{SPACE}		no	BlockProc2		BlockList									66	Free	dl	color_blue.png		0	7	315484	460																			1					75	prime_left.png	0	315054	0	0	13	0	315054	0	315054	2	315054	20	0	-1	313555	315054	315052	0	prime_left.png	TrialProc1	right	0		0	10	315364	-315364		0	0	TrialList2	target_both.png	0	dl	0	3	315104	260	d	373	315477															11	1	66	neut			450
1 ver1_main_procedure	34	1	33	<?xml version="1.0"?>\n<Clock xmlns:dt="urn:schemas-microsoft-com:datatypes"><Description dt:dt="string">E-Prime Primary Realtime Clock</Description><StartTime><Timestamp dt:dt="int">0</Timestamp><DateUtc dt:dt="string">2015-08-18T09:52:23Z</DateUtc></StartTime><FrequencyChanges><FrequencyChange><Frequency dt:dt="r8">2441386</Frequency><Timestamp dt:dt="r8">18205880340</Timestamp><Current dt:dt="r8">0</Current><DateUtc dt:dt="string">2015-08-18T09:52:23Z</DateUtc></FrequencyChange></FrequencyChanges></Clock>\n	1 ver1_main_procedure-34-1	99.925	1.0.0.880	2	al	1026476501	prawa	1	2.0.10.356	08-18-2015	2015-08-18 09:52:23	11:52:23	kobieta	2.0.10.92	3	4	1	1																							l	{SPACE}		no	BlockProc2		BlockList									67	Cued	d	color_blue.png		0	9	318416	460																			2					25	prime_right.png	0	317756	0	0	13	0	317756	0	317756	2	317756	20	0	-1	316257	317756	317754	0	prime_right.png	TrialProc1	left	0		0	10	318066	-318066		0	0	TrialList2	target_left.png	1	d	0	3	317806	260	d	601	318407															2	1	67	neut			450
1 ver1_main_procedure	34	1	33	<?xml version="1.0"?>\n<Clock xmlns:dt="urn:schemas-microsoft-com:datatypes"><Description dt:dt="string">E-Prime Primary Realtime Clock</Description><StartTime><Timestamp dt:dt="int">0</Timestamp><DateUtc dt:dt="string">2015-08-18T09:52:23Z</DateUtc></StartTime><FrequencyChanges><FrequencyChange><Frequency dt:dt="r8">2441386</Frequency><Timestamp dt:dt="r8">18205880340</Timestamp><Current dt:dt="r8">0</Current><DateUtc dt:dt="string">2015-08-18T09:52:23Z</DateUtc></FrequencyChange></FrequencyChanges></Clock>\n	1 ver1_main_procedure-34-1	99.925	1.0.0.880	2	al	1026476501	prawa	1	2.0.10.356	08-18-2015	2015-08-18 09:52:23	11:52:23	kobieta	2.0.10.92	3	4	1	1																							l	{SPACE}		no	BlockProc2		BlockList									68	Free	dl	color_purple.png		0	5	321098	460																								25	prime_left.png	0	320688	0	0	13	0	320688	0	320688	1	320688	20	0	-1	319189	320688	320687	0		TrialProc1	left	0		0	10	320998	-320998		0	0	TrialList2	target_both.png	0	dl	0	3	320738	260	d	355	321093															7	1	68	comp			450
1 ver1_main_procedure	34	1	33	<?xml version="1.0"?>\n<Clock xmlns:dt="urn:schemas-microsoft-com:datatypes"><Description dt:dt="string">E-Prime Primary Realtime Clock</Description><StartTime><Timestamp dt:dt="int">0</Timestamp><DateUtc dt:dt="string">2015-08-18T09:52:23Z</DateUtc></StartTime><FrequencyChanges><FrequencyChange><Frequency dt:dt="r8">2441386</Frequency><Timestamp dt:dt="r8">18205880340</Timestamp><Current dt:dt="r8">0</Current><DateUtc dt:dt="string">2015-08-18T09:52:23Z</DateUtc></FrequencyChange></FrequencyChanges></Clock>\n	1 ver1_main_procedure-34-1	99.925	1.0.0.880	2	al	1026476501	prawa	1	2.0.10.356	08-18-2015	2015-08-18 09:52:23	11:52:23	kobieta	2.0.10.92	3	4	1	1																							l	{SPACE}		no	BlockProc2		BlockList									69	Free	dl	color_red.png		0	13	323700	160																			1					75	prime_left.png	0	323370	0	0	13	0	323370	0	323370	1	323370	20	0	-1	321871	323370	323369	0	prime_left.png	TrialProc1	left	0		0	10	323680	-323680		0	0	TrialList2	target_both.png	0	dl	0	3	323420	260	l	267	323687															8	1	69	neut			150
1 ver1_main_procedure	34	1	33	<?xml version="1.0"?>\n<Clock xmlns:dt="urn:schemas-microsoft-com:datatypes"><Description dt:dt="string">E-Prime Primary Realtime Clock</Description><StartTime><Timestamp dt:dt="int">0</Timestamp><DateUtc dt:dt="string">2015-08-18T09:52:23Z</DateUtc></StartTime><FrequencyChanges><FrequencyChange><Frequency dt:dt="r8">2441386</Frequency><Timestamp dt:dt="r8">18205880340</Timestamp><Current dt:dt="r8">0</Current><DateUtc dt:dt="string">2015-08-18T09:52:23Z</DateUtc></FrequencyChange></FrequencyChanges></Clock>\n	1 ver1_main_procedure-34-1	99.925	1.0.0.880	2	al	1026476501	prawa	1	2.0.10.356	08-18-2015	2015-08-18 09:52:23	11:52:23	kobieta	2.0.10.92	3	4	1	1																							l	{SPACE}		no	BlockProc2		BlockList									70	Free	dl	color_blue.png		0	14	326232	460																			2					25	prime_right.png	0	325672	0	0	13	0	325672	0	325672	2	325672	20	0	-1	324173	325672	325670	0	prime_right.png	TrialProc1	right	0		0	10	325982	-325982		0	0	TrialList2	target_both.png	0	dl	0	3	325722	260	d	495	326217															11	1	70	neut			450
1 ver1_main_procedure	34	1	33	<?xml version="1.0"?>\n<Clock xmlns:dt="urn:schemas-microsoft-com:datatypes"><Description dt:dt="string">E-Prime Primary Realtime Clock</Description><StartTime><Timestamp dt:dt="int">0</Timestamp><DateUtc dt:dt="string">2015-08-18T09:52:23Z</DateUtc></StartTime><FrequencyChanges><FrequencyChange><Frequency dt:dt="r8">2441386</Frequency><Timestamp dt:dt="r8">18205880340</Timestamp><Current dt:dt="r8">0</Current><DateUtc dt:dt="string">2015-08-18T09:52:23Z</DateUtc></FrequencyChange></FrequencyChanges></Clock>\n	1 ver1_main_procedure-34-1	99.925	1.0.0.880	2	al	1026476501	prawa	1	2.0.10.356	08-18-2015	2015-08-18 09:52:23	11:52:23	kobieta	2.0.10.92	3	4	1	1																							l	{SPACE}		no	BlockProc2		BlockList									71	Free	dl	color_red.png		0	12	328864	310																			1					25	prime_left.png	0	328504	0	0	13	0	328504	0	328504	1	328504	20	0	-1	327005	328504	328503	0	prime_left.png	TrialProc1	right	0		0	10	328814	-328814		0	0	TrialList2	target_both.png	0	dl	0	3	328554	260	l	297	328851															11	1	71	neut			300
1 ver1_main_procedure	34	1	33	<?xml version="1.0"?>\n<Clock xmlns:dt="urn:schemas-microsoft-com:datatypes"><Description dt:dt="string">E-Prime Primary Realtime Clock</Description><StartTime><Timestamp dt:dt="int">0</Timestamp><DateUtc dt:dt="string">2015-08-18T09:52:23Z</DateUtc></StartTime><FrequencyChanges><FrequencyChange><Frequency dt:dt="r8">2441386</Frequency><Timestamp dt:dt="r8">18205880340</Timestamp><Current dt:dt="r8">0</Current><DateUtc dt:dt="string">2015-08-18T09:52:23Z</DateUtc></FrequencyChange></FrequencyChanges></Clock>\n	1 ver1_main_procedure-34-1	99.925	1.0.0.880	2	al	1026476501	prawa	1	2.0.10.356	08-18-2015	2015-08-18 09:52:23	11:52:23	kobieta	2.0.10.92	3	4	1	1																							l	{SPACE}		no	BlockProc2		BlockList									72	Free	dl	color_purple.png		0	6	331306	310																								75	prime_left.png	0	330986	0	0	13	0	330986	0	330986	2	330986	20	0	-1	329487	330986	330984	0		TrialProc1	right	0		0	10	331296	-331296		0	0	TrialList2	target_both.png	0	dl	0	3	331036	260	d	263	331299															12	1	72	incomp			300
1 ver1_main_procedure	34	1	33	<?xml version="1.0"?>\n<Clock xmlns:dt="urn:schemas-microsoft-com:datatypes"><Description dt:dt="string">E-Prime Primary Realtime Clock</Description><StartTime><Timestamp dt:dt="int">0</Timestamp><DateUtc dt:dt="string">2015-08-18T09:52:23Z</DateUtc></StartTime><FrequencyChanges><FrequencyChange><Frequency dt:dt="r8">2441386</Frequency><Timestamp dt:dt="r8">18205880340</Timestamp><Current dt:dt="r8">0</Current><DateUtc dt:dt="string">2015-08-18T09:52:23Z</DateUtc></FrequencyChange></FrequencyChanges></Clock>\n	1 ver1_main_procedure-34-1	99.925	1.0.0.880	2	al	1026476501	prawa	1	2.0.10.356	08-18-2015	2015-08-18 09:52:23	11:52:23	kobieta	2.0.10.92	3	4	1	1																							l	{SPACE}		no	BlockProc2		BlockList									73									2	3	1	4	6	5	color_orange.png	color_purple.png	color_red.png	color_blue.png	color_green.png	color_yellow.png	color_red.png	color_orange.png	color_purple.png	color_blue.png	color_yellow.png	color_green.png		1	1	1	57487																						DragProc											Ocena																															
1 ver1_main_procedure	34	1	33	<?xml version="1.0"?>\n<Clock xmlns:dt="urn:schemas-microsoft-com:datatypes"><Description dt:dt="string">E-Prime Primary Realtime Clock</Description><StartTime><Timestamp dt:dt="int">0</Timestamp><DateUtc dt:dt="string">2015-08-18T09:52:23Z</DateUtc></StartTime><FrequencyChanges><FrequencyChange><Frequency dt:dt="r8">2441386</Frequency><Timestamp dt:dt="r8">18205880340</Timestamp><Current dt:dt="r8">0</Current><DateUtc dt:dt="string">2015-08-18T09:52:23Z</DateUtc></FrequencyChange></FrequencyChanges></Clock>\n	1 ver1_main_procedure-34-1	99.925	1.0.0.880	2	al	1026476501	prawa	1	2.0.10.356	08-18-2015	2015-08-18 09:52:23	11:52:23	kobieta	2.0.10.92	3	4	1	1																							l	{SPACE}		no	BlockProc2		BlockList									74															color_orange.png	color_purple.png	color_red.png	color_blue.png	color_green.png	color_yellow.png								2	1	2																							EnterProc											Ocena												0	10	30	70	80	90														
1 ver1_main_procedure	34	1	33	<?xml version="1.0"?>\n<Clock xmlns:dt="urn:schemas-microsoft-com:datatypes"><Description dt:dt="string">E-Prime Primary Realtime Clock</Description><StartTime><Timestamp dt:dt="int">0</Timestamp><DateUtc dt:dt="string">2015-08-18T09:52:23Z</DateUtc></StartTime><FrequencyChanges><FrequencyChange><Frequency dt:dt="r8">2441386</Frequency><Timestamp dt:dt="r8">18205880340</Timestamp><Current dt:dt="r8">0</Current><DateUtc dt:dt="string">2015-08-18T09:52:23Z</DateUtc></FrequencyChange></FrequencyChanges></Clock>\n	1 ver1_main_procedure-34-1	99.925	1.0.0.880	2	al	1026476501	prawa	1	2.0.10.356	08-18-2015	2015-08-18 09:52:23	11:52:23	kobieta	2.0.10.92	4	5	1	2																							l	{SPACE}		no	BlockProc2		BlockList									1	Cued	d	color_green.png		0	9	570006	460																			2					75	prime_right.png	0	569295	0	0	13	1	569296	1	569296	1	569295	20	0	-1	567797	569295	569294	0	prime_right.png	TrialProc1	left	0		0	11	569606	-569606		0	0	TrialList2	target_left.png	1	d	0	3	569345	261	d	652	569997															2	2	73	neut			450
1 ver1_main_procedure	34	1	33	<?xml version="1.0"?>\n<Clock xmlns:dt="urn:schemas-microsoft-com:datatypes"><Description dt:dt="string">E-Prime Primary Realtime Clock</Description><StartTime><Timestamp dt:dt="int">0</Timestamp><DateUtc dt:dt="string">2015-08-18T09:52:23Z</DateUtc></StartTime><FrequencyChanges><FrequencyChange><Frequency dt:dt="r8">2441386</Frequency><Timestamp dt:dt="r8">18205880340</Timestamp><Current dt:dt="r8">0</Current><DateUtc dt:dt="string">2015-08-18T09:52:23Z</DateUtc></FrequencyChange></FrequencyChanges></Clock>\n	1 ver1_main_procedure-34-1	99.925	1.0.0.880	2	al	1026476501	prawa	1	2.0.10.356	08-18-2015	2015-08-18 09:52:23	11:52:23	kobieta	2.0.10.92	4	5	1	2																							l	{SPACE}		no	BlockProc2		BlockList									2	Free	dl	color_purple.png		0	11	573148	160																								25	prime_right.png	0	572278	0	0	13	0	572278	0	572278	1	572278	20	0	-1	570779	572278	572277	0		TrialProc1	left	0		0	10	572588	-572588		0	0	TrialList2	target_both.png	0	dl	0	3	572328	260	d	809	573137															9	2	74	incomp			150
1 ver1_main_procedure	34	1	33	<?xml version="1.0"?>\n<Clock xmlns:dt="urn:schemas-microsoft-com:datatypes"><Description dt:dt="string">E-Prime Primary Realtime Clock</Description><StartTime><Timestamp dt:dt="int">0</Timestamp><DateUtc dt:dt="string">2015-08-18T09:52:23Z</DateUtc></StartTime><FrequencyChanges><FrequencyChange><Frequency dt:dt="r8">2441386</Frequency><Timestamp dt:dt="r8">18205880340</Timestamp><Current dt:dt="r8">0</Current><DateUtc dt:dt="string">2015-08-18T09:52:23Z</DateUtc></FrequencyChange></FrequencyChanges></Clock>\n	1 ver1_main_procedure-34-1	99.925	1.0.0.880	2	al	1026476501	prawa	1	2.0.10.356	08-18-2015	2015-08-18 09:52:23	11:52:23	kobieta	2.0.10.92	4	5	1	2																							l	{SPACE}		no	BlockProc2		BlockList									3	Free	dl	color_purple.png		0	5	575750	310																								25	prime_right.png	0	575120	0	0	13	0	575120	0	575120	1	575120	20	0	-1	573621	575120	575119	0		TrialProc1	left	0		0	10	575430	-575430		0	0	TrialList2	target_both.png	0	dl	0	3	575170	260	d	575	575745															9	2	75	incomp			300
1 ver1_main_procedure	34	1	33	<?xml version="1.0"?>\n<Clock xmlns:dt="urn:schemas-microsoft-com:datatypes"><Description dt:dt="string">E-Prime Primary Realtime Clock</Description><StartTime><Timestamp dt:dt="int">0</Timestamp><DateUtc dt:dt="string">2015-08-18T09:52:23Z</DateUtc></StartTime><FrequencyChanges><FrequencyChange><Frequency dt:dt="r8">2441386</Frequency><Timestamp dt:dt="r8">18205880340</Timestamp><Current dt:dt="r8">0</Current><DateUtc dt:dt="string">2015-08-18T09:52:23Z</DateUtc></FrequencyChange></FrequencyChanges></Clock>\n	1 ver1_main_procedure-34-1	99.925	1.0.0.880	2	al	1026476501	prawa	1	2.0.10.356	08-18-2015	2015-08-18 09:52:23	11:52:23	kobieta	2.0.10.92	4	5	1	2																							l	{SPACE}		no	BlockProc2		BlockList									4	Free	dl	color_yellow.png		0	7	578372	461																			1					75	prime_left.png	0	577872	0	0	13	0	577872	0	577872	1	577872	20	0	-1	576373	577872	577871	0	prime_left.png	TrialProc1	right	0		0	10	578182	-578182		0	0	TrialList2	target_both.png	0	dl	0	3	577922	260	l	443	578365															11	2	76	neut			450
1 ver1_main_procedure	34	1	33	<?xml version="1.0"?>\n<Clock xmlns:dt="urn:schemas-microsoft-com:datatypes"><Description dt:dt="string">E-Prime Primary Realtime Clock</Description><StartTime><Timestamp dt:dt="int">0</Timestamp><DateUtc dt:dt="string">2015-08-18T09:52:23Z</DateUtc></StartTime><FrequencyChanges><FrequencyChange><Frequency dt:dt="r8">2441386</Frequency><Timestamp dt:dt="r8">18205880340</Timestamp><Current dt:dt="r8">0</Current><DateUtc dt:dt="string">2015-08-18T09:52:23Z</DateUtc></FrequencyChange></FrequencyChanges></Clock>\n	1 ver1_main_procedure-34-1	99.925	1.0.0.880	2	al	1026476501	prawa	1	2.0.10.356	08-18-2015	2015-08-18 09:52:23	11:52:23	kobieta	2.0.10.92	4	5	1	2																							l	{SPACE}		no	BlockProc2		BlockList									5	Cued	d	color_green.png		0	10	581234	311																			2					25	prime_right.png	0	580644	0	0	13	0	580644	0	580644	1	580644	20	0	-1	579145	580644	580643	0	prime_right.png	TrialProc1	left	0		0	10	580954	-580954		0	0	TrialList2	target_left.png	1	d	0	3	580694	260	d	529	581223															2	2	77	neut			300
1 ver1_main_procedure	34	1	33	<?xml version="1.0"?>\n<Clock xmlns:dt="urn:schemas-microsoft-com:datatypes"><Description dt:dt="string">E-Prime Primary Realtime Clock</Description><StartTime><Timestamp dt:dt="int">0</Timestamp><DateUtc dt:dt="string">2015-08-18T09:52:23Z</DateUtc></StartTime><FrequencyChanges><FrequencyChange><Frequency dt:dt="r8">2441386</Frequency><Timestamp dt:dt="r8">18205880340</Timestamp><Current dt:dt="r8">0</Current><DateUtc dt:dt="string">2015-08-18T09:52:23Z</DateUtc></FrequencyChange></FrequencyChanges></Clock>\n	1 ver1_main_procedure-34-1	99.925	1.0.0.880	2	al	1026476501	prawa	1	2.0.10.356	08-18-2015	2015-08-18 09:52:23	11:52:23	kobieta	2.0.10.92	4	5	1	2																							l	{SPACE}		no	BlockProc2		BlockList									6	Cued	l	color_yellow.png		0	10	583896	461																			1					25	prime_left.png	0	583356	0	0	13	0	583356	0	583356	1	583356	20	0	-1	581857	583356	583355	0	prime_left.png	TrialProc1	right	0		0	10	583666	-583666		0	0	TrialList2	target_right.png	1	l	0	3	583406	260	l	479	583885															5	2	78	neut			450
1 ver1_main_procedure	34	1	33	<?xml version="1.0"?>\n<Clock xmlns:dt="urn:schemas-microsoft-com:datatypes"><Description dt:dt="string">E-Prime Primary Realtime Clock</Description><StartTime><Timestamp dt:dt="int">0</Timestamp><DateUtc dt:dt="string">2015-08-18T09:52:23Z</DateUtc></StartTime><FrequencyChanges><FrequencyChange><Frequency dt:dt="r8">2441386</Frequency><Timestamp dt:dt="r8">18205880340</Timestamp><Current dt:dt="r8">0</Current><DateUtc dt:dt="string">2015-08-18T09:52:23Z</DateUtc></FrequencyChange></FrequencyChanges></Clock>\n	1 ver1_main_procedure-34-1	99.925	1.0.0.880	2	al	1026476501	prawa	1	2.0.10.356	08-18-2015	2015-08-18 09:52:23	11:52:23	kobieta	2.0.10.92	4	5	1	2																							l	{SPACE}		no	BlockProc2		BlockList									7	Free	dl	color_green.png		0	5	586719	460																			2					25	prime_right.png	0	586168	0	0	13	0	586168	0	586168	1	586168	20	0	-1	584669	586168	586167	0	prime_right.png	TrialProc1	right	0		0	10	586478	-586478		0	0	TrialList2	target_both.png	0	dl	0	3	586218	260	d	495	586713															11	2	79	neut			450
1 ver1_main_procedure	34	1	33	<?xml version="1.0"?>\n<Clock xmlns:dt="urn:schemas-microsoft-com:datatypes"><Description dt:dt="string">E-Prime Primary Realtime Clock</Description><StartTime><Timestamp dt:dt="int">0</Timestamp><DateUtc dt:dt="string">2015-08-18T09:52:23Z</DateUtc></StartTime><FrequencyChanges><FrequencyChange><Frequency dt:dt="r8">2441386</Frequency><Timestamp dt:dt="r8">18205880340</Timestamp><Current dt:dt="r8">0</Current><DateUtc dt:dt="string">2015-08-18T09:52:23Z</DateUtc></FrequencyChange></FrequencyChanges></Clock>\n	1 ver1_main_procedure-34-1	99.925	1.0.0.880	2	al	1026476501	prawa	1	2.0.10.356	08-18-2015	2015-08-18 09:52:23	11:52:23	kobieta	2.0.10.92	4	5	1	2																							l	{SPACE}		no	BlockProc2		BlockList									8	Free	dl	color_red.png		0	7	589521	310																								25	prime_left.png	0	588990	0	0	13	0	588990	0	588990	1	588990	20	0	-1	587491	588990	588989	0		TrialProc1	right	0		1	10	589300	-589300		0	0	TrialList2	target_both.png	0	dl	0	3	589040	260	l	473	589513															12	2	80	incomp			300
1 ver1_main_procedure	34	1	33	<?xml version="1.0"?>\n<Clock xmlns:dt="urn:schemas-microsoft-com:datatypes"><Description dt:dt="string">E-Prime Primary Realtime Clock</Description><StartTime><Timestamp dt:dt="int">0</Timestamp><DateUtc dt:dt="string">2015-08-18T09:52:23Z</DateUtc></StartTime><FrequencyChanges><FrequencyChange><Frequency dt:dt="r8">2441386</Frequency><Timestamp dt:dt="r8">18205880340</Timestamp><Current dt:dt="r8">0</Current><DateUtc dt:dt="string">2015-08-18T09:52:23Z</DateUtc></FrequencyChange></FrequencyChanges></Clock>\n	1 ver1_main_procedure-34-1	99.925	1.0.0.880	2	al	1026476501	prawa	1	2.0.10.356	08-18-2015	2015-08-18 09:52:23	11:52:23	kobieta	2.0.10.92	4	5	1	2																							l	{SPACE}		no	BlockProc2		BlockList									9	Free	dl	color_yellow.png		0	9	592233	310																			1					25	prime_left.png	0	591642	0	0	13	0	591642	0	591642	1	591642	20	0	-1	590143	591642	591641	0	prime_left.png	TrialProc1	left	0		1	10	591952	-591952		0	0	TrialList2	target_both.png	0	dl	0	3	591692	260	l	531	592223															8	2	81	neut			300
