ExperimentName	Subject	Session	Age	Clock.Information	DataFile.Basename	Display.RefreshRate	ExperimentVersion	Group	Name	RandomSeed	Recznosc	ResearcherID	RuntimeVersion	SessionDate	SessionStartDateTimeUtc	SessionTime	Sex	StudioVersion	Block	BlockList	BlockList.Cycle	BlockList.Sample	BlockNumber	GoodBye.RESP	GoodBye2.RESP	GoodByeList	GoodByeList.Cycle	GoodByeList.Sample	InstrList	InstrList.Cycle	InstrList.Sample	Instructions3.RESP	Instructions4.RESP	Instructions5.RESP	kobieta_S1	kobieta_S2	kobieta_S3	kobieta_S4	kobieta_S5	mezczyzna_S1	mezczyzna_S2	mezczyzna_S3	mezczyzna_S4	mezczyzna_S5	NextBlock.RESP	NextBlock0.RESP	planowanie	PracticeMode	Procedure[Block]	proszenie	Running[Block]	TrainingList	TrainingList.Cycle	TrainingList.Sample	WordList	WordList1	wykonanie	zauwazenie	zrozumienie	Trial	ChoiceType	CorrectRespon	Effect	ErrorText	Fixation2.DurationError	Fixation2.OnsetDelay	Fixation2.OnsetTime	Fixation2.OnsetToOnsetTime	GoalRespInd1	GoalRespInd2	GoalRespInd3	GoalRespInd4	GoalRespInd5	GoalRespInd6	GoalRespName1	GoalRespName2	GoalRespName3	GoalRespName4	GoalRespName5	GoalRespName6	kol1	kol2	kol3	kol4	kol5	kol6	NeutralPrimeList1	Ocena	Ocena.Cycle	Ocena.Sample	OverallRT	Posit	Prime	Prime.ActionDelay	Prime.ActionTime	Prime.CustomOffsetTime	Prime.CustomOnsetTime	Prime.Duration	Prime.DurationError	Prime.FinishTime	Prime.OffsetDelay	Prime.OffsetTime	Prime.OnsetDelay	Prime.OnsetTime	Prime.OnsetToOnsetTime	Prime.PendingInputMasks	Prime.PreRelease	Prime.StartTime	Prime.TargetOffsetTime	Prime.TargetOnsetTime	Prime.TimingMode	PrimeChoice	Procedure[Trial]	Resp	RespWin.ACC	RespWin.CRESP	RespWin.DurationError	RespWin.OnsetDelay	RespWin.OnsetTime	RespWin.OnsetToOnsetTime	RespWin.RESP	RespWin.RT	RespWin.RTTime	Running[Trial]	Target	TargetSlide.ACC	TargetSlide.CRESP	TargetSlide.DurationError	TargetSlide.OnsetDelay	TargetSlide.OnsetTime	TargetSlide.OnsetToOnsetTime	TargetSlide.RESP	TargetSlide.RT	TargetSlide.RTTime	TargetTraining	TBox1	TBox2	TBox3	TBox4	TBox5	TBox6	TrainingList1	TrainingList1.Cycle	TrainingList1.Sample	TrCorrectResp	TrialList1	TrialList1.Cycle	TrialList1.Sample	TrialList2	TrialList2.Cycle	TrialList2.Sample	TrialType	TrPosit	TrWaitTime	WaitTime
1 ver1_main_procedure	35	1	21	<?xml version="1.0"?>\n<Clock xmlns:dt="urn:schemas-microsoft-com:datatypes"><Description dt:dt="string">E-Prime Primary Realtime Clock</Description><StartTime><Timestamp dt:dt="int">0</Timestamp><DateUtc dt:dt="string">2015-08-18T10:45:07Z</DateUtc></StartTime><FrequencyChanges><FrequencyChange><Frequency dt:dt="r8">2612294</Frequency><Timestamp dt:dt="r8">36532587688</Timestamp><Current dt:dt="r8">0</Current><DateUtc dt:dt="string">2015-08-18T10:45:07Z</DateUtc></FrequencyChange></FrequencyChanges></Clock>\n	1 ver1_main_procedure-35-1	99.938	1.0.0.880	1	MK	-2121624208	prawa	1	2.0.10.182	08-18-2015	2015-08-18 10:45:08	12:45:08	kobieta	2.0.10.92	1										1	1	1	{SPACE}	{SPACE}	d	poproszona	planowała	zrozumiałaś	wykonała		poproszony	planował	zrozumiałeś	wykonał				planowała		InstrProc	poproszona	InstrList				1		wykonała		zrozumiałaś																																																																																																
1 ver1_main_procedure	35	1	21	<?xml version="1.0"?>\n<Clock xmlns:dt="urn:schemas-microsoft-com:datatypes"><Description dt:dt="string">E-Prime Primary Realtime Clock</Description><StartTime><Timestamp dt:dt="int">0</Timestamp><DateUtc dt:dt="string">2015-08-18T10:45:07Z</DateUtc></StartTime><FrequencyChanges><FrequencyChange><Frequency dt:dt="r8">2612294</Frequency><Timestamp dt:dt="r8">36532587688</Timestamp><Current dt:dt="r8">0</Current><DateUtc dt:dt="string">2015-08-18T10:45:07Z</DateUtc></FrequencyChange></FrequencyChanges></Clock>\n	1 ver1_main_procedure-35-1	99.938	1.0.0.880	1	MK	-2121624208	prawa	1	2.0.10.182	08-18-2015	2015-08-18 10:45:08	12:45:08	kobieta	2.0.10.92	2																														TrainingProc1		TrainingList	1	1	1						1																																																					TrainProc											TrainingList1											target_both.png							3	1	1	dl								75	450	
1 ver1_main_procedure	35	1	21	<?xml version="1.0"?>\n<Clock xmlns:dt="urn:schemas-microsoft-com:datatypes"><Description dt:dt="string">E-Prime Primary Realtime Clock</Description><StartTime><Timestamp dt:dt="int">0</Timestamp><DateUtc dt:dt="string">2015-08-18T10:45:07Z</DateUtc></StartTime><FrequencyChanges><FrequencyChange><Frequency dt:dt="r8">2612294</Frequency><Timestamp dt:dt="r8">36532587688</Timestamp><Current dt:dt="r8">0</Current><DateUtc dt:dt="string">2015-08-18T10:45:07Z</DateUtc></FrequencyChange></FrequencyChanges></Clock>\n	1 ver1_main_procedure-35-1	99.938	1.0.0.880	1	MK	-2121624208	prawa	1	2.0.10.182	08-18-2015	2015-08-18 10:45:08	12:45:08	kobieta	2.0.10.92	2																														TrainingProc1		TrainingList	1	1	1						2																																																					TrainProc											TrainingList1											target_both.png							3	1	2	dl								25	150	
1 ver1_main_procedure	35	1	21	<?xml version="1.0"?>\n<Clock xmlns:dt="urn:schemas-microsoft-com:datatypes"><Description dt:dt="string">E-Prime Primary Realtime Clock</Description><StartTime><Timestamp dt:dt="int">0</Timestamp><DateUtc dt:dt="string">2015-08-18T10:45:07Z</DateUtc></StartTime><FrequencyChanges><FrequencyChange><Frequency dt:dt="r8">2612294</Frequency><Timestamp dt:dt="r8">36532587688</Timestamp><Current dt:dt="r8">0</Current><DateUtc dt:dt="string">2015-08-18T10:45:07Z</DateUtc></FrequencyChange></FrequencyChanges></Clock>\n	1 ver1_main_procedure-35-1	99.938	1.0.0.880	1	MK	-2121624208	prawa	1	2.0.10.182	08-18-2015	2015-08-18 10:45:08	12:45:08	kobieta	2.0.10.92	2																														TrainingProc1		TrainingList	1	1	1						3																																																					TrainProc											TrainingList1											target_left.png							1	1	3	d								75	450	
1 ver1_main_procedure	35	1	21	<?xml version="1.0"?>\n<Clock xmlns:dt="urn:schemas-microsoft-com:datatypes"><Description dt:dt="string">E-Prime Primary Realtime Clock</Description><StartTime><Timestamp dt:dt="int">0</Timestamp><DateUtc dt:dt="string">2015-08-18T10:45:07Z</DateUtc></StartTime><FrequencyChanges><FrequencyChange><Frequency dt:dt="r8">2612294</Frequency><Timestamp dt:dt="r8">36532587688</Timestamp><Current dt:dt="r8">0</Current><DateUtc dt:dt="string">2015-08-18T10:45:07Z</DateUtc></FrequencyChange></FrequencyChanges></Clock>\n	1 ver1_main_procedure-35-1	99.938	1.0.0.880	1	MK	-2121624208	prawa	1	2.0.10.182	08-18-2015	2015-08-18 10:45:08	12:45:08	kobieta	2.0.10.92	2																														TrainingProc1		TrainingList	1	1	1						4																																																					TrainProc											TrainingList1											target_both.png							3	1	4	dl								75	450	
1 ver1_main_procedure	35	1	21	<?xml version="1.0"?>\n<Clock xmlns:dt="urn:schemas-microsoft-com:datatypes"><Description dt:dt="string">E-Prime Primary Realtime Clock</Description><StartTime><Timestamp dt:dt="int">0</Timestamp><DateUtc dt:dt="string">2015-08-18T10:45:07Z</DateUtc></StartTime><FrequencyChanges><FrequencyChange><Frequency dt:dt="r8">2612294</Frequency><Timestamp dt:dt="r8">36532587688</Timestamp><Current dt:dt="r8">0</Current><DateUtc dt:dt="string">2015-08-18T10:45:07Z</DateUtc></FrequencyChange></FrequencyChanges></Clock>\n	1 ver1_main_procedure-35-1	99.938	1.0.0.880	1	MK	-2121624208	prawa	1	2.0.10.182	08-18-2015	2015-08-18 10:45:08	12:45:08	kobieta	2.0.10.92	2																														TrainingProc1		TrainingList	1	1	1						5																																																					TrainProc											TrainingList1											target_left.png							1	1	5	d								25	450	
1 ver1_main_procedure	35	1	21	<?xml version="1.0"?>\n<Clock xmlns:dt="urn:schemas-microsoft-com:datatypes"><Description dt:dt="string">E-Prime Primary Realtime Clock</Description><StartTime><Timestamp dt:dt="int">0</Timestamp><DateUtc dt:dt="string">2015-08-18T10:45:07Z</DateUtc></StartTime><FrequencyChanges><FrequencyChange><Frequency dt:dt="r8">2612294</Frequency><Timestamp dt:dt="r8">36532587688</Timestamp><Current dt:dt="r8">0</Current><DateUtc dt:dt="string">2015-08-18T10:45:07Z</DateUtc></FrequencyChange></FrequencyChanges></Clock>\n	1 ver1_main_procedure-35-1	99.938	1.0.0.880	1	MK	-2121624208	prawa	1	2.0.10.182	08-18-2015	2015-08-18 10:45:08	12:45:08	kobieta	2.0.10.92	2																														TrainingProc1		TrainingList	1	1	1						6																																																					TrainProc											TrainingList1											target_right.png							2	1	6	l								25	300	
1 ver1_main_procedure	35	1	21	<?xml version="1.0"?>\n<Clock xmlns:dt="urn:schemas-microsoft-com:datatypes"><Description dt:dt="string">E-Prime Primary Realtime Clock</Description><StartTime><Timestamp dt:dt="int">0</Timestamp><DateUtc dt:dt="string">2015-08-18T10:45:07Z</DateUtc></StartTime><FrequencyChanges><FrequencyChange><Frequency dt:dt="r8">2612294</Frequency><Timestamp dt:dt="r8">36532587688</Timestamp><Current dt:dt="r8">0</Current><DateUtc dt:dt="string">2015-08-18T10:45:07Z</DateUtc></FrequencyChange></FrequencyChanges></Clock>\n	1 ver1_main_procedure-35-1	99.938	1.0.0.880	1	MK	-2121624208	prawa	1	2.0.10.182	08-18-2015	2015-08-18 10:45:08	12:45:08	kobieta	2.0.10.92	2																														TrainingProc1		TrainingList	1	1	1						7																																																					TrainProc											TrainingList1											target_left.png							1	1	7	d								25	150	
1 ver1_main_procedure	35	1	21	<?xml version="1.0"?>\n<Clock xmlns:dt="urn:schemas-microsoft-com:datatypes"><Description dt:dt="string">E-Prime Primary Realtime Clock</Description><StartTime><Timestamp dt:dt="int">0</Timestamp><DateUtc dt:dt="string">2015-08-18T10:45:07Z</DateUtc></StartTime><FrequencyChanges><FrequencyChange><Frequency dt:dt="r8">2612294</Frequency><Timestamp dt:dt="r8">36532587688</Timestamp><Current dt:dt="r8">0</Current><DateUtc dt:dt="string">2015-08-18T10:45:07Z</DateUtc></FrequencyChange></FrequencyChanges></Clock>\n	1 ver1_main_procedure-35-1	99.938	1.0.0.880	1	MK	-2121624208	prawa	1	2.0.10.182	08-18-2015	2015-08-18 10:45:08	12:45:08	kobieta	2.0.10.92	2																														TrainingProc1		TrainingList	1	1	1						8																																																					TrainProc											TrainingList1											target_right.png							2	1	8	l								25	300	
1 ver1_main_procedure	35	1	21	<?xml version="1.0"?>\n<Clock xmlns:dt="urn:schemas-microsoft-com:datatypes"><Description dt:dt="string">E-Prime Primary Realtime Clock</Description><StartTime><Timestamp dt:dt="int">0</Timestamp><DateUtc dt:dt="string">2015-08-18T10:45:07Z</DateUtc></StartTime><FrequencyChanges><FrequencyChange><Frequency dt:dt="r8">2612294</Frequency><Timestamp dt:dt="r8">36532587688</Timestamp><Current dt:dt="r8">0</Current><DateUtc dt:dt="string">2015-08-18T10:45:07Z</DateUtc></FrequencyChange></FrequencyChanges></Clock>\n	1 ver1_main_procedure-35-1	99.938	1.0.0.880	1	MK	-2121624208	prawa	1	2.0.10.182	08-18-2015	2015-08-18 10:45:08	12:45:08	kobieta	2.0.10.92	2																														TrainingProc1		TrainingList	1	1	1						9																																																					TrainProc											TrainingList1											target_right.png							2	1	9	l								25	450	
1 ver1_main_procedure	35	1	21	<?xml version="1.0"?>\n<Clock xmlns:dt="urn:schemas-microsoft-com:datatypes"><Description dt:dt="string">E-Prime Primary Realtime Clock</Description><StartTime><Timestamp dt:dt="int">0</Timestamp><DateUtc dt:dt="string">2015-08-18T10:45:07Z</DateUtc></StartTime><FrequencyChanges><FrequencyChange><Frequency dt:dt="r8">2612294</Frequency><Timestamp dt:dt="r8">36532587688</Timestamp><Current dt:dt="r8">0</Current><DateUtc dt:dt="string">2015-08-18T10:45:07Z</DateUtc></FrequencyChange></FrequencyChanges></Clock>\n	1 ver1_main_procedure-35-1	99.938	1.0.0.880	1	MK	-2121624208	prawa	1	2.0.10.182	08-18-2015	2015-08-18 10:45:08	12:45:08	kobieta	2.0.10.92	3	6	1	1																							d	{SPACE}		no	BlockProc2		BlockList									1	Cued	l	color_yellow.png		-1	9	227917	461																			1					75	prime_left.png	0	227527	0	0	13	0	227527	0	227527	1	227527	20	0	-1	226028	227527	227526	0	prime_left.png	TrialProc1	right	0		0	20	227847	-227847		0	0	TrialList2	target_right.png	1	l	-1	3	227577	270	l	329	227906															5	1	1	neut			450
1 ver1_main_procedure	35	1	21	<?xml version="1.0"?>\n<Clock xmlns:dt="urn:schemas-microsoft-com:datatypes"><Description dt:dt="string">E-Prime Primary Realtime Clock</Description><StartTime><Timestamp dt:dt="int">0</Timestamp><DateUtc dt:dt="string">2015-08-18T10:45:07Z</DateUtc></StartTime><FrequencyChanges><FrequencyChange><Frequency dt:dt="r8">2612294</Frequency><Timestamp dt:dt="r8">36532587688</Timestamp><Current dt:dt="r8">0</Current><DateUtc dt:dt="string">2015-08-18T10:45:07Z</DateUtc></FrequencyChange></FrequencyChanges></Clock>\n	1 ver1_main_procedure-35-1	99.938	1.0.0.880	1	MK	-2121624208	prawa	1	2.0.10.182	08-18-2015	2015-08-18 10:45:08	12:45:08	kobieta	2.0.10.92	3	6	1	1																							d	{SPACE}		no	BlockProc2		BlockList									2	Cued	l	color_yellow.png		-1	6	230569	160																			2					75	prime_right.png	0	230189	0	0	13	0	230189	0	230189	1	230189	20	0	-1	228689	230189	230188	0	prime_right.png	TrialProc1	right	0		0	10	230499	-230499		0	0	TrialList2	target_right.png	1	l	-1	3	230239	260	l	323	230562															5	1	2	neut			150
1 ver1_main_procedure	35	1	21	<?xml version="1.0"?>\n<Clock xmlns:dt="urn:schemas-microsoft-com:datatypes"><Description dt:dt="string">E-Prime Primary Realtime Clock</Description><StartTime><Timestamp dt:dt="int">0</Timestamp><DateUtc dt:dt="string">2015-08-18T10:45:07Z</DateUtc></StartTime><FrequencyChanges><FrequencyChange><Frequency dt:dt="r8">2612294</Frequency><Timestamp dt:dt="r8">36532587688</Timestamp><Current dt:dt="r8">0</Current><DateUtc dt:dt="string">2015-08-18T10:45:07Z</DateUtc></FrequencyChange></FrequencyChanges></Clock>\n	1 ver1_main_procedure-35-1	99.938	1.0.0.880	1	MK	-2121624208	prawa	1	2.0.10.182	08-18-2015	2015-08-18 10:45:08	12:45:08	kobieta	2.0.10.92	3	6	1	1																							d	{SPACE}		no	BlockProc2		BlockList									3	Free	dl	color_purple.png		-1	9	233060	311																			1					25	prime_left.png	0	232540	0	0	13	0	232540	0	232540	1	232540	20	0	-1	231041	232540	232539	0	prime_left.png	TrialProc1	left	0		0	10	232850	-232850		0	0	TrialList2	target_both.png	0	dl	-1	3	232590	260	d	460	233050															8	1	3	neut			300
1 ver1_main_procedure	35	1	21	<?xml version="1.0"?>\n<Clock xmlns:dt="urn:schemas-microsoft-com:datatypes"><Description dt:dt="string">E-Prime Primary Realtime Clock</Description><StartTime><Timestamp dt:dt="int">0</Timestamp><DateUtc dt:dt="string">2015-08-18T10:45:07Z</DateUtc></StartTime><FrequencyChanges><FrequencyChange><Frequency dt:dt="r8">2612294</Frequency><Timestamp dt:dt="r8">36532587688</Timestamp><Current dt:dt="r8">0</Current><DateUtc dt:dt="string">2015-08-18T10:45:07Z</DateUtc></FrequencyChange></FrequencyChanges></Clock>\n	1 ver1_main_procedure-35-1	99.938	1.0.0.880	1	MK	-2121624208	prawa	1	2.0.10.182	08-18-2015	2015-08-18 10:45:08	12:45:08	kobieta	2.0.10.92	3	6	1	1																							d	{SPACE}		no	BlockProc2		BlockList									4	Cued	l	color_yellow.png		-1	7	235522	160																			2					75	prime_right.png	0	235182	0	0	13	0	235182	0	235182	1	235182	20	0	-1	233682	235182	235181	0	prime_right.png	TrialProc1	right	0		0	10	235492	-235492		0	0	TrialList2	target_right.png	1	l	-1	3	235232	260	l	282	235514															5	1	4	neut			150
1 ver1_main_procedure	35	1	21	<?xml version="1.0"?>\n<Clock xmlns:dt="urn:schemas-microsoft-com:datatypes"><Description dt:dt="string">E-Prime Primary Realtime Clock</Description><StartTime><Timestamp dt:dt="int">0</Timestamp><DateUtc dt:dt="string">2015-08-18T10:45:07Z</DateUtc></StartTime><FrequencyChanges><FrequencyChange><Frequency dt:dt="r8">2612294</Frequency><Timestamp dt:dt="r8">36532587688</Timestamp><Current dt:dt="r8">0</Current><DateUtc dt:dt="string">2015-08-18T10:45:07Z</DateUtc></FrequencyChange></FrequencyChanges></Clock>\n	1 ver1_main_procedure-35-1	99.938	1.0.0.880	1	MK	-2121624208	prawa	1	2.0.10.182	08-18-2015	2015-08-18 10:45:08	12:45:08	kobieta	2.0.10.92	3	6	1	1																							d	{SPACE}		no	BlockProc2		BlockList									5	Free	dl	color_red.png		-1	14	237833	310																								75	prime_left.png	0	237493	0	0	13	0	237493	0	237493	1	237493	20	0	-1	235994	237493	237492	0		TrialProc1	left	0		1	10	237803	-237803		0	0	TrialList2	target_both.png	0	dl	-1	3	237543	260	l	275	237818															7	1	5	comp			300
1 ver1_main_procedure	35	1	21	<?xml version="1.0"?>\n<Clock xmlns:dt="urn:schemas-microsoft-com:datatypes"><Description dt:dt="string">E-Prime Primary Realtime Clock</Description><StartTime><Timestamp dt:dt="int">0</Timestamp><DateUtc dt:dt="string">2015-08-18T10:45:07Z</DateUtc></StartTime><FrequencyChanges><FrequencyChange><Frequency dt:dt="r8">2612294</Frequency><Timestamp dt:dt="r8">36532587688</Timestamp><Current dt:dt="r8">0</Current><DateUtc dt:dt="string">2015-08-18T10:45:07Z</DateUtc></FrequencyChange></FrequencyChanges></Clock>\n	1 ver1_main_procedure-35-1	99.938	1.0.0.880	1	MK	-2121624208	prawa	1	2.0.10.182	08-18-2015	2015-08-18 10:45:08	12:45:08	kobieta	2.0.10.92	3	6	1	1																							d	{SPACE}		no	BlockProc2		BlockList									6	Free	dl	color_green.png		-1	6	240305	310																								75	prime_left.png	0	239955	0	0	13	0	239955	0	239955	1	239955	20	0	-1	238455	239955	239954	0		TrialProc1	right	0		0	10	240265	-240265		0	0	TrialList2	target_both.png	0	dl	-1	3	240005	260	d	293	240298															12	1	6	incomp			300
1 ver1_main_procedure	35	1	21	<?xml version="1.0"?>\n<Clock xmlns:dt="urn:schemas-microsoft-com:datatypes"><Description dt:dt="string">E-Prime Primary Realtime Clock</Description><StartTime><Timestamp dt:dt="int">0</Timestamp><DateUtc dt:dt="string">2015-08-18T10:45:07Z</DateUtc></StartTime><FrequencyChanges><FrequencyChange><Frequency dt:dt="r8">2612294</Frequency><Timestamp dt:dt="r8">36532587688</Timestamp><Current dt:dt="r8">0</Current><DateUtc dt:dt="string">2015-08-18T10:45:07Z</DateUtc></FrequencyChange></FrequencyChanges></Clock>\n	1 ver1_main_procedure-35-1	99.938	1.0.0.880	1	MK	-2121624208	prawa	1	2.0.10.182	08-18-2015	2015-08-18 10:45:08	12:45:08	kobieta	2.0.10.92	3	6	1	1																							d	{SPACE}		no	BlockProc2		BlockList									7	Cued	l	color_red.png		-1	5	242856	160																								25	prime_left.png	0	242426	0	0	13	0	242426	0	242426	1	242426	20	0	-1	240927	242426	242425	0		TrialProc1	right	0		0	10	242736	-242736		0	0	TrialList2	target_right.png	1	l	-1	3	242476	260	l	374	242850															6	1	7	incomp			150
1 ver1_main_procedure	35	1	21	<?xml version="1.0"?>\n<Clock xmlns:dt="urn:schemas-microsoft-com:datatypes"><Description dt:dt="string">E-Prime Primary Realtime Clock</Description><StartTime><Timestamp dt:dt="int">0</Timestamp><DateUtc dt:dt="string">2015-08-18T10:45:07Z</DateUtc></StartTime><FrequencyChanges><FrequencyChange><Frequency dt:dt="r8">2612294</Frequency><Timestamp dt:dt="r8">36532587688</Timestamp><Current dt:dt="r8">0</Current><DateUtc dt:dt="string">2015-08-18T10:45:07Z</DateUtc></FrequencyChange></FrequencyChanges></Clock>\n	1 ver1_main_procedure-35-1	99.938	1.0.0.880	1	MK	-2121624208	prawa	1	2.0.10.182	08-18-2015	2015-08-18 10:45:08	12:45:08	kobieta	2.0.10.92	3	6	1	1																							d	{SPACE}		no	BlockProc2		BlockList									8	Free	dl	color_yellow.png		-1	7	245098	310																			1					25	prime_left.png	0	244828	0	0	13	0	244828	0	244828	1	244828	19	0	-1	243328	244828	244827	0	prime_left.png	TrialProc1	right	0		0	0	0	0		0	0	TrialList2	target_both.png	0	dl	-999999	3	244877	0	l	213	245090															11	1	8	neut			300
1 ver1_main_procedure	35	1	21	<?xml version="1.0"?>\n<Clock xmlns:dt="urn:schemas-microsoft-com:datatypes"><Description dt:dt="string">E-Prime Primary Realtime Clock</Description><StartTime><Timestamp dt:dt="int">0</Timestamp><DateUtc dt:dt="string">2015-08-18T10:45:07Z</DateUtc></StartTime><FrequencyChanges><FrequencyChange><Frequency dt:dt="r8">2612294</Frequency><Timestamp dt:dt="r8">36532587688</Timestamp><Current dt:dt="r8">0</Current><DateUtc dt:dt="string">2015-08-18T10:45:07Z</DateUtc></FrequencyChange></FrequencyChanges></Clock>\n	1 ver1_main_procedure-35-1	99.938	1.0.0.880	1	MK	-2121624208	prawa	1	2.0.10.182	08-18-2015	2015-08-18 10:45:08	12:45:08	kobieta	2.0.10.92	3	6	1	1																							d	{SPACE}		no	BlockProc2		BlockList									9	Free	dl	color_yellow.png		-1	8	247499	460																			2					25	prime_right.png	0	247219	0	0	13	0	247219	0	247219	1	247219	20	0	-1	245720	247219	247218	0	prime_right.png	TrialProc1	left	0		0	0	0	0		0	0	TrialList2	target_both.png	0	dl	-999999	3	247269	0	l	221	247490															8	1	9	neut			450
1 ver1_main_procedure	35	1	21	<?xml version="1.0"?>\n<Clock xmlns:dt="urn:schemas-microsoft-com:datatypes"><Description dt:dt="string">E-Prime Primary Realtime Clock</Description><StartTime><Timestamp dt:dt="int">0</Timestamp><DateUtc dt:dt="string">2015-08-18T10:45:07Z</DateUtc></StartTime><FrequencyChanges><FrequencyChange><Frequency dt:dt="r8">2612294</Frequency><Timestamp dt:dt="r8">36532587688</Timestamp><Current dt:dt="r8">0</Current><DateUtc dt:dt="string">2015-08-18T10:45:07Z</DateUtc></FrequencyChange></FrequencyChanges></Clock>\n	1 ver1_main_procedure-35-1	99.938	1.0.0.880	1	MK	-2121624208	prawa	1	2.0.10.182	08-18-2015	2015-08-18 10:45:08	12:45:08	kobieta	2.0.10.92	3	6	1	1																							d	{SPACE}		no	BlockProc2		BlockList									10	Free	dl	color_blue.png		-1	8	250051	460																								25	prime_right.png	0	249770	0	0	13	1	249771	1	249771	0	249770	20	0	-1	248271	249770	249770	0		TrialProc1	left	0		0	0	0	0		0	0	TrialList2	target_both.png	0	dl	-999999	3	249820	0	l	222	250042															9	1	10	incomp			450
1 ver1_main_procedure	35	1	21	<?xml version="1.0"?>\n<Clock xmlns:dt="urn:schemas-microsoft-com:datatypes"><Description dt:dt="string">E-Prime Primary Realtime Clock</Description><StartTime><Timestamp dt:dt="int">0</Timestamp><DateUtc dt:dt="string">2015-08-18T10:45:07Z</DateUtc></StartTime><FrequencyChanges><FrequencyChange><Frequency dt:dt="r8">2612294</Frequency><Timestamp dt:dt="r8">36532587688</Timestamp><Current dt:dt="r8">0</Current><DateUtc dt:dt="string">2015-08-18T10:45:07Z</DateUtc></FrequencyChange></FrequencyChanges></Clock>\n	1 ver1_main_procedure-35-1	99.938	1.0.0.880	1	MK	-2121624208	prawa	1	2.0.10.182	08-18-2015	2015-08-18 10:45:08	12:45:08	kobieta	2.0.10.92	3	6	1	1																							d	{SPACE}		no	BlockProc2		BlockList									11	Free	dl	color_green.png		-1	10	252642	460																								25	prime_left.png	0	252322	0	0	13	0	252322	0	252322	1	252322	20	0	-1	250823	252322	252321	0		TrialProc1	right	0		-999999	10	252632	0		0	0	TrialList2	target_both.png	0	dl	-1	3	252372	0	d	254	252626															12	1	11	incomp			450
1 ver1_main_procedure	35	1	21	<?xml version="1.0"?>\n<Clock xmlns:dt="urn:schemas-microsoft-com:datatypes"><Description dt:dt="string">E-Prime Primary Realtime Clock</Description><StartTime><Timestamp dt:dt="int">0</Timestamp><DateUtc dt:dt="string">2015-08-18T10:45:07Z</DateUtc></StartTime><FrequencyChanges><FrequencyChange><Frequency dt:dt="r8">2612294</Frequency><Timestamp dt:dt="r8">36532587688</Timestamp><Current dt:dt="r8">0</Current><DateUtc dt:dt="string">2015-08-18T10:45:07Z</DateUtc></FrequencyChange></FrequencyChanges></Clock>\n	1 ver1_main_procedure-35-1	99.938	1.0.0.880	1	MK	-2121624208	prawa	1	2.0.10.182	08-18-2015	2015-08-18 10:45:08	12:45:08	kobieta	2.0.10.92	3	6	1	1																							d	{SPACE}		no	BlockProc2		BlockList									12	Free	dl	color_blue.png		-1	7	255274	460																								75	prime_right.png	1	254914	0	0	13	1	254914	1	254914	0	254913	20	0	-1	253414	254913	254913	0		TrialProc1	right	0		0	10	255224	-255224		0	0	TrialList2	target_both.png	0	dl	-1	4	254964	260	l	302	255266															10	1	12	comp			450
1 ver1_main_procedure	35	1	21	<?xml version="1.0"?>\n<Clock xmlns:dt="urn:schemas-microsoft-com:datatypes"><Description dt:dt="string">E-Prime Primary Realtime Clock</Description><StartTime><Timestamp dt:dt="int">0</Timestamp><DateUtc dt:dt="string">2015-08-18T10:45:07Z</DateUtc></StartTime><FrequencyChanges><FrequencyChange><Frequency dt:dt="r8">2612294</Frequency><Timestamp dt:dt="r8">36532587688</Timestamp><Current dt:dt="r8">0</Current><DateUtc dt:dt="string">2015-08-18T10:45:07Z</DateUtc></FrequencyChange></FrequencyChanges></Clock>\n	1 ver1_main_procedure-35-1	99.938	1.0.0.880	1	MK	-2121624208	prawa	1	2.0.10.182	08-18-2015	2015-08-18 10:45:08	12:45:08	kobieta	2.0.10.92	3	6	1	1																							d	{SPACE}		no	BlockProc2		BlockList									13	Free	dl	color_orange.png		-1	6	257825	461																								25	prime_right.png	0	257545	0	0	13	0	257545	0	257545	1	257545	20	0	-1	256046	257545	257544	0		TrialProc1	right	0		0	0	0	0		0	0	TrialList2	target_both.png	0	dl	-999999	3	257595	0	d	224	257819															10	1	13	comp			450
1 ver1_main_procedure	35	1	21	<?xml version="1.0"?>\n<Clock xmlns:dt="urn:schemas-microsoft-com:datatypes"><Description dt:dt="string">E-Prime Primary Realtime Clock</Description><StartTime><Timestamp dt:dt="int">0</Timestamp><DateUtc dt:dt="string">2015-08-18T10:45:07Z</DateUtc></StartTime><FrequencyChanges><FrequencyChange><Frequency dt:dt="r8">2612294</Frequency><Timestamp dt:dt="r8">36532587688</Timestamp><Current dt:dt="r8">0</Current><DateUtc dt:dt="string">2015-08-18T10:45:07Z</DateUtc></FrequencyChange></FrequencyChanges></Clock>\n	1 ver1_main_procedure-35-1	99.938	1.0.0.880	1	MK	-2121624208	prawa	1	2.0.10.182	08-18-2015	2015-08-18 10:45:08	12:45:08	kobieta	2.0.10.92	3	6	1	1																							d	{SPACE}		no	BlockProc2		BlockList									14	Free	dl	color_red.png		-1	14	260377	160																								75	prime_left.png	0	260097	0	0	13	0	260097	0	260097	1	260097	20	0	-1	258597	260097	260096	0		TrialProc1	left	0		0	0	0	0		0	0	TrialList2	target_both.png	0	dl	-999999	3	260147	0	l	216	260363															7	1	14	comp			150
1 ver1_main_procedure	35	1	21	<?xml version="1.0"?>\n<Clock xmlns:dt="urn:schemas-microsoft-com:datatypes"><Description dt:dt="string">E-Prime Primary Realtime Clock</Description><StartTime><Timestamp dt:dt="int">0</Timestamp><DateUtc dt:dt="string">2015-08-18T10:45:07Z</DateUtc></StartTime><FrequencyChanges><FrequencyChange><Frequency dt:dt="r8">2612294</Frequency><Timestamp dt:dt="r8">36532587688</Timestamp><Current dt:dt="r8">0</Current><DateUtc dt:dt="string">2015-08-18T10:45:07Z</DateUtc></FrequencyChange></FrequencyChanges></Clock>\n	1 ver1_main_procedure-35-1	99.938	1.0.0.880	1	MK	-2121624208	prawa	1	2.0.10.182	08-18-2015	2015-08-18 10:45:08	12:45:08	kobieta	2.0.10.92	3	6	1	1																							d	{SPACE}		no	BlockProc2		BlockList									15	Cued	d	color_green.png		-1	11	262598	160																								25	prime_left.png	0	262348	0	0	13	0	262348	0	262348	1	262348	20	0	-1	260849	262348	262347	0		TrialProc1	left	0		0	0	0	0		0	0	TrialList2	target_left.png	1	d	-999999	3	262398	0	d	189	262587															1	1	15	comp			150
1 ver1_main_procedure	35	1	21	<?xml version="1.0"?>\n<Clock xmlns:dt="urn:schemas-microsoft-com:datatypes"><Description dt:dt="string">E-Prime Primary Realtime Clock</Description><StartTime><Timestamp dt:dt="int">0</Timestamp><DateUtc dt:dt="string">2015-08-18T10:45:07Z</DateUtc></StartTime><FrequencyChanges><FrequencyChange><Frequency dt:dt="r8">2612294</Frequency><Timestamp dt:dt="r8">36532587688</Timestamp><Current dt:dt="r8">0</Current><DateUtc dt:dt="string">2015-08-18T10:45:07Z</DateUtc></FrequencyChange></FrequencyChanges></Clock>\n	1 ver1_main_procedure-35-1	99.938	1.0.0.880	1	MK	-2121624208	prawa	1	2.0.10.182	08-18-2015	2015-08-18 10:45:08	12:45:08	kobieta	2.0.10.92	3	6	1	1																							d	{SPACE}		no	BlockProc2		BlockList									16	Free	dl	color_yellow.png		-1	14	264809	461																			1					25	prime_left.png	0	264569	0	0	13	1	264570	1	264570	1	264569	20	0	-1	263070	264569	264568	0	prime_left.png	TrialProc1	left	0		0	0	0	0		0	0	TrialList2	target_both.png	0	dl	-999999	3	264619	0	l	176	264795															8	1	16	neut			450
1 ver1_main_procedure	35	1	21	<?xml version="1.0"?>\n<Clock xmlns:dt="urn:schemas-microsoft-com:datatypes"><Description dt:dt="string">E-Prime Primary Realtime Clock</Description><StartTime><Timestamp dt:dt="int">0</Timestamp><DateUtc dt:dt="string">2015-08-18T10:45:07Z</DateUtc></StartTime><FrequencyChanges><FrequencyChange><Frequency dt:dt="r8">2612294</Frequency><Timestamp dt:dt="r8">36532587688</Timestamp><Current dt:dt="r8">0</Current><DateUtc dt:dt="string">2015-08-18T10:45:07Z</DateUtc></FrequencyChange></FrequencyChanges></Clock>\n	1 ver1_main_procedure-35-1	99.938	1.0.0.880	1	MK	-2121624208	prawa	1	2.0.10.182	08-18-2015	2015-08-18 10:45:08	12:45:08	kobieta	2.0.10.92	3	6	1	1																							d	{SPACE}		no	BlockProc2		BlockList									17	Free	dl	color_purple.png		-1	12	267351	160																			2					25	prime_right.png	0	267081	0	0	13	0	267081	0	267081	1	267081	20	0	-1	265582	267081	267080	0	prime_right.png	TrialProc1	left	0		0	0	0	0		0	0	TrialList2	target_both.png	0	dl	-999999	3	267131	0	d	208	267339															8	1	17	neut			150
1 ver1_main_procedure	35	1	21	<?xml version="1.0"?>\n<Clock xmlns:dt="urn:schemas-microsoft-com:datatypes"><Description dt:dt="string">E-Prime Primary Realtime Clock</Description><StartTime><Timestamp dt:dt="int">0</Timestamp><DateUtc dt:dt="string">2015-08-18T10:45:07Z</DateUtc></StartTime><FrequencyChanges><FrequencyChange><Frequency dt:dt="r8">2612294</Frequency><Timestamp dt:dt="r8">36532587688</Timestamp><Current dt:dt="r8">0</Current><DateUtc dt:dt="string">2015-08-18T10:45:07Z</DateUtc></FrequencyChange></FrequencyChanges></Clock>\n	1 ver1_main_procedure-35-1	99.938	1.0.0.880	1	MK	-2121624208	prawa	1	2.0.10.182	08-18-2015	2015-08-18 10:45:08	12:45:08	kobieta	2.0.10.92	3	6	1	1																							d	{SPACE}		no	BlockProc2		BlockList									18	Free	dl	color_red.png		-1	9	269692	311																								75	prime_left.png	0	269322	0	0	13	0	269322	0	269322	1	269322	20	0	-1	267823	269322	269321	0		TrialProc1	right	0		0	10	269632	-269632		0	0	TrialList2	target_both.png	0	dl	-1	3	269372	260	l	311	269683															12	1	18	incomp			300
1 ver1_main_procedure	35	1	21	<?xml version="1.0"?>\n<Clock xmlns:dt="urn:schemas-microsoft-com:datatypes"><Description dt:dt="string">E-Prime Primary Realtime Clock</Description><StartTime><Timestamp dt:dt="int">0</Timestamp><DateUtc dt:dt="string">2015-08-18T10:45:07Z</DateUtc></StartTime><FrequencyChanges><FrequencyChange><Frequency dt:dt="r8">2612294</Frequency><Timestamp dt:dt="r8">36532587688</Timestamp><Current dt:dt="r8">0</Current><DateUtc dt:dt="string">2015-08-18T10:45:07Z</DateUtc></FrequencyChange></FrequencyChanges></Clock>\n	1 ver1_main_procedure-35-1	99.938	1.0.0.880	1	MK	-2121624208	prawa	1	2.0.10.182	08-18-2015	2015-08-18 10:45:08	12:45:08	kobieta	2.0.10.92	3	6	1	1																							d	{SPACE}		no	BlockProc2		BlockList									19	Free	dl	color_orange.png		-1	11	272014	160																								75	prime_right.png	0	271814	0	0	13	0	271814	0	271814	1	271814	20	0	-1	270314	271814	271813	0		TrialProc1	right	0		0	0	0	0		0	0	TrialList2	target_both.png	0	dl	-999999	3	271864	0	d	139	272003															10	1	19	comp			150
1 ver1_main_procedure	35	1	21	<?xml version="1.0"?>\n<Clock xmlns:dt="urn:schemas-microsoft-com:datatypes"><Description dt:dt="string">E-Prime Primary Realtime Clock</Description><StartTime><Timestamp dt:dt="int">0</Timestamp><DateUtc dt:dt="string">2015-08-18T10:45:07Z</DateUtc></StartTime><FrequencyChanges><FrequencyChange><Frequency dt:dt="r8">2612294</Frequency><Timestamp dt:dt="r8">36532587688</Timestamp><Current dt:dt="r8">0</Current><DateUtc dt:dt="string">2015-08-18T10:45:07Z</DateUtc></FrequencyChange></FrequencyChanges></Clock>\n	1 ver1_main_procedure-35-1	99.938	1.0.0.880	1	MK	-2121624208	prawa	1	2.0.10.182	08-18-2015	2015-08-18 10:45:08	12:45:08	kobieta	2.0.10.92	3	6	1	1																							d	{SPACE}		no	BlockProc2		BlockList									20	Free	dl	color_blue.png		-1	13	274265	460																								25	prime_right.png	0	273985	0	0	13	0	273985	0	273985	1	273985	20	0	-1	272486	273985	273984	0		TrialProc1	left	0		0	0	0	0		0	0	TrialList2	target_both.png	0	dl	-999999	3	274035	0	l	216	274251															9	1	20	incomp			450
1 ver1_main_procedure	35	1	21	<?xml version="1.0"?>\n<Clock xmlns:dt="urn:schemas-microsoft-com:datatypes"><Description dt:dt="string">E-Prime Primary Realtime Clock</Description><StartTime><Timestamp dt:dt="int">0</Timestamp><DateUtc dt:dt="string">2015-08-18T10:45:07Z</DateUtc></StartTime><FrequencyChanges><FrequencyChange><Frequency dt:dt="r8">2612294</Frequency><Timestamp dt:dt="r8">36532587688</Timestamp><Current dt:dt="r8">0</Current><DateUtc dt:dt="string">2015-08-18T10:45:07Z</DateUtc></FrequencyChange></FrequencyChanges></Clock>\n	1 ver1_main_procedure-35-1	99.938	1.0.0.880	1	MK	-2121624208	prawa	1	2.0.10.182	08-18-2015	2015-08-18 10:45:08	12:45:08	kobieta	2.0.10.92	3	6	1	1																							d	{SPACE}		no	BlockProc2		BlockList									21	Free	dl	color_orange.png		-1	15	276787	310																								75	prime_right.png	0	276536	0	0	13	1	276537	1	276537	0	276536	20	0	-1	275037	276536	276536	0		TrialProc1	right	0		0	0	0	0		0	0	TrialList2	target_both.png	0	dl	-999999	3	276586	0	d	185	276771															10	1	21	comp			300
1 ver1_main_procedure	35	1	21	<?xml version="1.0"?>\n<Clock xmlns:dt="urn:schemas-microsoft-com:datatypes"><Description dt:dt="string">E-Prime Primary Realtime Clock</Description><StartTime><Timestamp dt:dt="int">0</Timestamp><DateUtc dt:dt="string">2015-08-18T10:45:07Z</DateUtc></StartTime><FrequencyChanges><FrequencyChange><Frequency dt:dt="r8">2612294</Frequency><Timestamp dt:dt="r8">36532587688</Timestamp><Current dt:dt="r8">0</Current><DateUtc dt:dt="string">2015-08-18T10:45:07Z</DateUtc></FrequencyChange></FrequencyChanges></Clock>\n	1 ver1_main_procedure-35-1	99.938	1.0.0.880	1	MK	-2121624208	prawa	1	2.0.10.182	08-18-2015	2015-08-18 10:45:08	12:45:08	kobieta	2.0.10.92	3	6	1	1																							d	{SPACE}		no	BlockProc2		BlockList									22	Cued	l	color_blue.png		-1	14	279178	310																								25	prime_right.png	0	278908	0	0	13	0	278908	0	278908	1	278908	20	0	-1	277409	278908	278907	0		TrialProc1	right	0		0	0	0	0		0	0	TrialList2	target_right.png	1	l	-999999	3	278958	0	l	205	279163															4	1	22	comp			300
1 ver1_main_procedure	35	1	21	<?xml version="1.0"?>\n<Clock xmlns:dt="urn:schemas-microsoft-com:datatypes"><Description dt:dt="string">E-Prime Primary Realtime Clock</Description><StartTime><Timestamp dt:dt="int">0</Timestamp><DateUtc dt:dt="string">2015-08-18T10:45:07Z</DateUtc></StartTime><FrequencyChanges><FrequencyChange><Frequency dt:dt="r8">2612294</Frequency><Timestamp dt:dt="r8">36532587688</Timestamp><Current dt:dt="r8">0</Current><DateUtc dt:dt="string">2015-08-18T10:45:07Z</DateUtc></FrequencyChange></FrequencyChanges></Clock>\n	1 ver1_main_procedure-35-1	99.938	1.0.0.880	1	MK	-2121624208	prawa	1	2.0.10.182	08-18-2015	2015-08-18 10:45:08	12:45:08	kobieta	2.0.10.92	3	6	1	1																							d	{SPACE}		no	BlockProc2		BlockList									23	Free	dl	color_purple.png		-1	9	281549	461																			1					75	prime_left.png	0	281299	0	0	13	0	281299	0	281299	1	281299	20	0	-1	279800	281299	281298	0	prime_left.png	TrialProc1	right	0		0	0	0	0		0	0	TrialList2	target_both.png	0	dl	-999999	3	281349	0	d	190	281539															11	1	23	neut			450
1 ver1_main_procedure	35	1	21	<?xml version="1.0"?>\n<Clock xmlns:dt="urn:schemas-microsoft-com:datatypes"><Description dt:dt="string">E-Prime Primary Realtime Clock</Description><StartTime><Timestamp dt:dt="int">0</Timestamp><DateUtc dt:dt="string">2015-08-18T10:45:07Z</DateUtc></StartTime><FrequencyChanges><FrequencyChange><Frequency dt:dt="r8">2612294</Frequency><Timestamp dt:dt="r8">36532587688</Timestamp><Current dt:dt="r8">0</Current><DateUtc dt:dt="string">2015-08-18T10:45:07Z</DateUtc></FrequencyChange></FrequencyChanges></Clock>\n	1 ver1_main_procedure-35-1	99.938	1.0.0.880	1	MK	-2121624208	prawa	1	2.0.10.182	08-18-2015	2015-08-18 10:45:08	12:45:08	kobieta	2.0.10.92	3	6	1	1																							d	{SPACE}		no	BlockProc2		BlockList									24	Free	dl	color_red.png		-1	5	284161	460																								75	prime_left.png	0	283821	0	0	13	0	283821	0	283821	1	283821	20	0	-1	282322	283821	283820	0		TrialProc1	left	0		0	10	284131	-284131		0	0	TrialList2	target_both.png	0	dl	-1	3	283871	260	l	284	284155															7	1	24	comp			450
1 ver1_main_procedure	35	1	21	<?xml version="1.0"?>\n<Clock xmlns:dt="urn:schemas-microsoft-com:datatypes"><Description dt:dt="string">E-Prime Primary Realtime Clock</Description><StartTime><Timestamp dt:dt="int">0</Timestamp><DateUtc dt:dt="string">2015-08-18T10:45:07Z</DateUtc></StartTime><FrequencyChanges><FrequencyChange><Frequency dt:dt="r8">2612294</Frequency><Timestamp dt:dt="r8">36532587688</Timestamp><Current dt:dt="r8">0</Current><DateUtc dt:dt="string">2015-08-18T10:45:07Z</DateUtc></FrequencyChange></FrequencyChanges></Clock>\n	1 ver1_main_procedure-35-1	99.938	1.0.0.880	1	MK	-2121624208	prawa	1	2.0.10.182	08-18-2015	2015-08-18 10:45:08	12:45:08	kobieta	2.0.10.92	3	6	1	1																							d	{SPACE}		no	BlockProc2		BlockList									25	Free	dl	color_orange.png		-1	11	286823	310																								75	prime_right.png	1	286433	0	0	13	1	286433	1	286433	1	286432	20	0	-1	284933	286432	286431	0		TrialProc1	left	0		0	11	286743	-286743		0	0	TrialList2	target_both.png	0	dl	-1	3	286482	261	d	329	286811															9	1	25	incomp			300
1 ver1_main_procedure	35	1	21	<?xml version="1.0"?>\n<Clock xmlns:dt="urn:schemas-microsoft-com:datatypes"><Description dt:dt="string">E-Prime Primary Realtime Clock</Description><StartTime><Timestamp dt:dt="int">0</Timestamp><DateUtc dt:dt="string">2015-08-18T10:45:07Z</DateUtc></StartTime><FrequencyChanges><FrequencyChange><Frequency dt:dt="r8">2612294</Frequency><Timestamp dt:dt="r8">36532587688</Timestamp><Current dt:dt="r8">0</Current><DateUtc dt:dt="string">2015-08-18T10:45:07Z</DateUtc></FrequencyChange></FrequencyChanges></Clock>\n	1 ver1_main_procedure-35-1	99.938	1.0.0.880	1	MK	-2121624208	prawa	1	2.0.10.182	08-18-2015	2015-08-18 10:45:08	12:45:08	kobieta	2.0.10.92	3	6	1	1																							d	{SPACE}		no	BlockProc2		BlockList									26	Free	dl	color_orange.png		-1	8	289284	310																								75	prime_right.png	0	288944	0	0	13	0	288944	0	288944	1	288944	20	0	-1	287445	288944	288943	0		TrialProc1	right	0		0	10	289254	-289254		0	0	TrialList2	target_both.png	0	dl	-1	3	288994	260	d	281	289275															10	1	26	comp			300
1 ver1_main_procedure	35	1	21	<?xml version="1.0"?>\n<Clock xmlns:dt="urn:schemas-microsoft-com:datatypes"><Description dt:dt="string">E-Prime Primary Realtime Clock</Description><StartTime><Timestamp dt:dt="int">0</Timestamp><DateUtc dt:dt="string">2015-08-18T10:45:07Z</DateUtc></StartTime><FrequencyChanges><FrequencyChange><Frequency dt:dt="r8">2612294</Frequency><Timestamp dt:dt="r8">36532587688</Timestamp><Current dt:dt="r8">0</Current><DateUtc dt:dt="string">2015-08-18T10:45:07Z</DateUtc></FrequencyChange></FrequencyChanges></Clock>\n	1 ver1_main_procedure-35-1	99.938	1.0.0.880	1	MK	-2121624208	prawa	1	2.0.10.182	08-18-2015	2015-08-18 10:45:08	12:45:08	kobieta	2.0.10.92	3	6	1	1																							d	{SPACE}		no	BlockProc2		BlockList									27	Cued	d			-1	10	291846	160																								75	prime_left.png	0	291405	0	0	13	0	291406	0	291405	1	291405	20	0	-1	289906	291405	291404	0		TrialProc1	left	0		0	11	291716	-291716		0	0	TrialList2	target_left.png	0	d	-1	3	291455	261	l	380	291835															1	1	27	comp			150
1 ver1_main_procedure	35	1	21	<?xml version="1.0"?>\n<Clock xmlns:dt="urn:schemas-microsoft-com:datatypes"><Description dt:dt="string">E-Prime Primary Realtime Clock</Description><StartTime><Timestamp dt:dt="int">0</Timestamp><DateUtc dt:dt="string">2015-08-18T10:45:07Z</DateUtc></StartTime><FrequencyChanges><FrequencyChange><Frequency dt:dt="r8">2612294</Frequency><Timestamp dt:dt="r8">36532587688</Timestamp><Current dt:dt="r8">0</Current><DateUtc dt:dt="string">2015-08-18T10:45:07Z</DateUtc></FrequencyChange></FrequencyChanges></Clock>\n	1 ver1_main_procedure-35-1	99.938	1.0.0.880	1	MK	-2121624208	prawa	1	2.0.10.182	08-18-2015	2015-08-18 10:45:08	12:45:08	kobieta	2.0.10.92	3	6	1	1																							d	{SPACE}		no	BlockProc2		BlockList									28	Free	dl	color_yellow.png		-1	13	294497	460																			2					25	prime_right.png	0	293817	0	0	13	0	293817	0	293817	1	293817	20	0	-1	292318	293817	293816	0	prime_right.png	TrialProc1	right	0		0	10	294127	-294127		0	0	TrialList2	target_both.png	0	dl	-1	3	293867	260	l	616	294483															11	1	28	neut			450
1 ver1_main_procedure	35	1	21	<?xml version="1.0"?>\n<Clock xmlns:dt="urn:schemas-microsoft-com:datatypes"><Description dt:dt="string">E-Prime Primary Realtime Clock</Description><StartTime><Timestamp dt:dt="int">0</Timestamp><DateUtc dt:dt="string">2015-08-18T10:45:07Z</DateUtc></StartTime><FrequencyChanges><FrequencyChange><Frequency dt:dt="r8">2612294</Frequency><Timestamp dt:dt="r8">36532587688</Timestamp><Current dt:dt="r8">0</Current><DateUtc dt:dt="string">2015-08-18T10:45:07Z</DateUtc></FrequencyChange></FrequencyChanges></Clock>\n	1 ver1_main_procedure-35-1	99.938	1.0.0.880	1	MK	-2121624208	prawa	1	2.0.10.182	08-18-2015	2015-08-18 10:45:08	12:45:08	kobieta	2.0.10.92	3	6	1	1																							d	{SPACE}		no	BlockProc2		BlockList									29	Free	dl	color_red.png		-1	13	297209	160																								75	prime_left.png	0	296769	0	0	13	0	296769	0	296769	1	296769	20	0	-1	295269	296769	296768	0		TrialProc1	left	0		0	10	297079	-297079		0	0	TrialList2	target_both.png	0	dl	-1	3	296819	260	l	376	297195															7	1	29	comp			150
1 ver1_main_procedure	35	1	21	<?xml version="1.0"?>\n<Clock xmlns:dt="urn:schemas-microsoft-com:datatypes"><Description dt:dt="string">E-Prime Primary Realtime Clock</Description><StartTime><Timestamp dt:dt="int">0</Timestamp><DateUtc dt:dt="string">2015-08-18T10:45:07Z</DateUtc></StartTime><FrequencyChanges><FrequencyChange><Frequency dt:dt="r8">2612294</Frequency><Timestamp dt:dt="r8">36532587688</Timestamp><Current dt:dt="r8">0</Current><DateUtc dt:dt="string">2015-08-18T10:45:07Z</DateUtc></FrequencyChange></FrequencyChanges></Clock>\n	1 ver1_main_procedure-35-1	99.938	1.0.0.880	1	MK	-2121624208	prawa	1	2.0.10.182	08-18-2015	2015-08-18 10:45:08	12:45:08	kobieta	2.0.10.92	3	6	1	1																							d	{SPACE}		no	BlockProc2		BlockList									30	Free	dl	color_green.png		-1	12	299560	460																								25	prime_left.png	0	299180	0	0	13	0	299180	0	299180	1	299180	20	0	-1	297681	299180	299179	0		TrialProc1	right	0		0	10	299490	-299490		0	0	TrialList2	target_both.png	0	dl	-1	3	299230	260	d	318	299548															12	1	30	incomp			450
1 ver1_main_procedure	35	1	21	<?xml version="1.0"?>\n<Clock xmlns:dt="urn:schemas-microsoft-com:datatypes"><Description dt:dt="string">E-Prime Primary Realtime Clock</Description><StartTime><Timestamp dt:dt="int">0</Timestamp><DateUtc dt:dt="string">2015-08-18T10:45:07Z</DateUtc></StartTime><FrequencyChanges><FrequencyChange><Frequency dt:dt="r8">2612294</Frequency><Timestamp dt:dt="r8">36532587688</Timestamp><Current dt:dt="r8">0</Current><DateUtc dt:dt="string">2015-08-18T10:45:07Z</DateUtc></FrequencyChange></FrequencyChanges></Clock>\n	1 ver1_main_procedure-35-1	99.938	1.0.0.880	1	MK	-2121624208	prawa	1	2.0.10.182	08-18-2015	2015-08-18 10:45:08	12:45:08	kobieta	2.0.10.92	3	6	1	1																							d	{SPACE}		no	BlockProc2		BlockList									31	Free	dl	color_green.png		-1	6	302282	160																								75	prime_left.png	0	301832	0	0	13	0	301832	0	301832	1	301832	20	0	-1	300332	301832	301831	0		TrialProc1	right	0		0	10	302142	-302142		0	0	TrialList2	target_both.png	0	dl	-1	3	301882	260	d	394	302276															12	1	31	incomp			150
1 ver1_main_procedure	35	1	21	<?xml version="1.0"?>\n<Clock xmlns:dt="urn:schemas-microsoft-com:datatypes"><Description dt:dt="string">E-Prime Primary Realtime Clock</Description><StartTime><Timestamp dt:dt="int">0</Timestamp><DateUtc dt:dt="string">2015-08-18T10:45:07Z</DateUtc></StartTime><FrequencyChanges><FrequencyChange><Frequency dt:dt="r8">2612294</Frequency><Timestamp dt:dt="r8">36532587688</Timestamp><Current dt:dt="r8">0</Current><DateUtc dt:dt="string">2015-08-18T10:45:07Z</DateUtc></FrequencyChange></FrequencyChanges></Clock>\n	1 ver1_main_procedure-35-1	99.938	1.0.0.880	1	MK	-2121624208	prawa	1	2.0.10.182	08-18-2015	2015-08-18 10:45:08	12:45:08	kobieta	2.0.10.92	3	6	1	1																							d	{SPACE}		no	BlockProc2		BlockList									32	Free	dl	color_yellow.png		-1	13	304513	310																			1					75	prime_left.png	0	304253	0	0	13	0	304253	0	304253	1	304253	20	0	-1	302754	304253	304252	0	prime_left.png	TrialProc1	left	0		0	0	0	0		0	0	TrialList2	target_both.png	0	dl	-999999	3	304303	0	l	197	304500															8	1	32	neut			300
1 ver1_main_procedure	35	1	21	<?xml version="1.0"?>\n<Clock xmlns:dt="urn:schemas-microsoft-com:datatypes"><Description dt:dt="string">E-Prime Primary Realtime Clock</Description><StartTime><Timestamp dt:dt="int">0</Timestamp><DateUtc dt:dt="string">2015-08-18T10:45:07Z</DateUtc></StartTime><FrequencyChanges><FrequencyChange><Frequency dt:dt="r8">2612294</Frequency><Timestamp dt:dt="r8">36532587688</Timestamp><Current dt:dt="r8">0</Current><DateUtc dt:dt="string">2015-08-18T10:45:07Z</DateUtc></FrequencyChange></FrequencyChanges></Clock>\n	1 ver1_main_procedure-35-1	99.938	1.0.0.880	1	MK	-2121624208	prawa	1	2.0.10.182	08-18-2015	2015-08-18 10:45:08	12:45:08	kobieta	2.0.10.92	3	6	1	1																							d	{SPACE}		no	BlockProc2		BlockList									33	Cued	d	color_orange.png		-1	13	307065	160																								25	prime_right.png	1	306635	0	0	13	1	306635	1	306635	0	306634	20	0	-1	305135	306634	306634	0		TrialProc1	left	0		0	11	306945	-306945		0	0	TrialList2	target_left.png	1	d	-1	3	306684	261	d	368	307052															3	1	33	incomp			150
1 ver1_main_procedure	35	1	21	<?xml version="1.0"?>\n<Clock xmlns:dt="urn:schemas-microsoft-com:datatypes"><Description dt:dt="string">E-Prime Primary Realtime Clock</Description><StartTime><Timestamp dt:dt="int">0</Timestamp><DateUtc dt:dt="string">2015-08-18T10:45:07Z</DateUtc></StartTime><FrequencyChanges><FrequencyChange><Frequency dt:dt="r8">2612294</Frequency><Timestamp dt:dt="r8">36532587688</Timestamp><Current dt:dt="r8">0</Current><DateUtc dt:dt="string">2015-08-18T10:45:07Z</DateUtc></FrequencyChange></FrequencyChanges></Clock>\n	1 ver1_main_procedure-35-1	99.938	1.0.0.880	1	MK	-2121624208	prawa	1	2.0.10.182	08-18-2015	2015-08-18 10:45:08	12:45:08	kobieta	2.0.10.92	3	6	1	1																							d	{SPACE}		no	BlockProc2		BlockList									34	Free	dl	color_purple.png		-1	6	309386	310																			2					25	prime_right.png	0	309036	0	0	13	0	309036	0	309036	1	309036	20	0	-1	307537	309036	309035	0	prime_right.png	TrialProc1	right	0		0	10	309346	-309346		0	0	TrialList2	target_both.png	0	dl	-1	3	309086	260	d	294	309380															11	1	34	neut			300
1 ver1_main_procedure	35	1	21	<?xml version="1.0"?>\n<Clock xmlns:dt="urn:schemas-microsoft-com:datatypes"><Description dt:dt="string">E-Prime Primary Realtime Clock</Description><StartTime><Timestamp dt:dt="int">0</Timestamp><DateUtc dt:dt="string">2015-08-18T10:45:07Z</DateUtc></StartTime><FrequencyChanges><FrequencyChange><Frequency dt:dt="r8">2612294</Frequency><Timestamp dt:dt="r8">36532587688</Timestamp><Current dt:dt="r8">0</Current><DateUtc dt:dt="string">2015-08-18T10:45:07Z</DateUtc></FrequencyChange></FrequencyChanges></Clock>\n	1 ver1_main_procedure-35-1	99.938	1.0.0.880	1	MK	-2121624208	prawa	1	2.0.10.182	08-18-2015	2015-08-18 10:45:08	12:45:08	kobieta	2.0.10.92	3	6	1	1																							d	{SPACE}		no	BlockProc2		BlockList									35	Free	dl	color_orange.png		-1	10	311828	460																								25	prime_right.png	0	311507	0	0	13	1	311508	1	311508	1	311507	20	0	-1	310008	311507	311506	0		TrialProc1	left	0		-999999	11	311818	0		0	0	TrialList2	target_both.png	0	dl	-1	3	311557	0	d	255	311812															9	1	35	incomp			450
1 ver1_main_procedure	35	1	21	<?xml version="1.0"?>\n<Clock xmlns:dt="urn:schemas-microsoft-com:datatypes"><Description dt:dt="string">E-Prime Primary Realtime Clock</Description><StartTime><Timestamp dt:dt="int">0</Timestamp><DateUtc dt:dt="string">2015-08-18T10:45:07Z</DateUtc></StartTime><FrequencyChanges><FrequencyChange><Frequency dt:dt="r8">2612294</Frequency><Timestamp dt:dt="r8">36532587688</Timestamp><Current dt:dt="r8">0</Current><DateUtc dt:dt="string">2015-08-18T10:45:07Z</DateUtc></FrequencyChange></FrequencyChanges></Clock>\n	1 ver1_main_procedure-35-1	99.938	1.0.0.880	1	MK	-2121624208	prawa	1	2.0.10.182	08-18-2015	2015-08-18 10:45:08	12:45:08	kobieta	2.0.10.92	3	6	1	1																							d	{SPACE}		no	BlockProc2		BlockList									36	Free	dl	color_blue.png		-1	10	314359	160																								25	prime_right.png	0	314099	0	0	13	0	314099	0	314099	1	314099	20	0	-1	312600	314099	314098	0		TrialProc1	left	0		0	0	0	0		0	0	TrialList2	target_both.png	0	dl	-999999	3	314149	0	l	199	314348															9	1	36	incomp			150
1 ver1_main_procedure	35	1	21	<?xml version="1.0"?>\n<Clock xmlns:dt="urn:schemas-microsoft-com:datatypes"><Description dt:dt="string">E-Prime Primary Realtime Clock</Description><StartTime><Timestamp dt:dt="int">0</Timestamp><DateUtc dt:dt="string">2015-08-18T10:45:07Z</DateUtc></StartTime><FrequencyChanges><FrequencyChange><Frequency dt:dt="r8">2612294</Frequency><Timestamp dt:dt="r8">36532587688</Timestamp><Current dt:dt="r8">0</Current><DateUtc dt:dt="string">2015-08-18T10:45:07Z</DateUtc></FrequencyChange></FrequencyChanges></Clock>\n	1 ver1_main_procedure-35-1	99.938	1.0.0.880	1	MK	-2121624208	prawa	1	2.0.10.182	08-18-2015	2015-08-18 10:45:08	12:45:08	kobieta	2.0.10.92	3	6	1	1																							d	{SPACE}		no	BlockProc2		BlockList									37	Free	dl	color_purple.png		-1	9	316590	311																			1					75	prime_left.png	0	316330	0	0	13	0	316330	0	316330	1	316330	20	0	-1	314831	316330	316329	0	prime_left.png	TrialProc1	right	0		0	0	0	0		0	0	TrialList2	target_both.png	0	dl	-999999	3	316380	0	d	200	316580															11	1	37	neut			300
1 ver1_main_procedure	35	1	21	<?xml version="1.0"?>\n<Clock xmlns:dt="urn:schemas-microsoft-com:datatypes"><Description dt:dt="string">E-Prime Primary Realtime Clock</Description><StartTime><Timestamp dt:dt="int">0</Timestamp><DateUtc dt:dt="string">2015-08-18T10:45:07Z</DateUtc></StartTime><FrequencyChanges><FrequencyChange><Frequency dt:dt="r8">2612294</Frequency><Timestamp dt:dt="r8">36532587688</Timestamp><Current dt:dt="r8">0</Current><DateUtc dt:dt="string">2015-08-18T10:45:07Z</DateUtc></FrequencyChange></FrequencyChanges></Clock>\n	1 ver1_main_procedure-35-1	99.938	1.0.0.880	1	MK	-2121624208	prawa	1	2.0.10.182	08-18-2015	2015-08-18 10:45:08	12:45:08	kobieta	2.0.10.92	3	6	1	1																							d	{SPACE}		no	BlockProc2		BlockList									38	Free	dl	color_yellow.png		-1	10	319032	310																			2					25	prime_right.png	0	318712	0	0	13	0	318712	0	318712	1	318712	20	0	-1	317213	318712	318711	0	prime_right.png	TrialProc1	right	0		-999999	10	319022	0		0	0	TrialList2	target_both.png	0	dl	-1	3	318762	0	l	258	319020															11	1	38	neut			300
1 ver1_main_procedure	35	1	21	<?xml version="1.0"?>\n<Clock xmlns:dt="urn:schemas-microsoft-com:datatypes"><Description dt:dt="string">E-Prime Primary Realtime Clock</Description><StartTime><Timestamp dt:dt="int">0</Timestamp><DateUtc dt:dt="string">2015-08-18T10:45:07Z</DateUtc></StartTime><FrequencyChanges><FrequencyChange><Frequency dt:dt="r8">2612294</Frequency><Timestamp dt:dt="r8">36532587688</Timestamp><Current dt:dt="r8">0</Current><DateUtc dt:dt="string">2015-08-18T10:45:07Z</DateUtc></FrequencyChange></FrequencyChanges></Clock>\n	1 ver1_main_procedure-35-1	99.938	1.0.0.880	1	MK	-2121624208	prawa	1	2.0.10.182	08-18-2015	2015-08-18 10:45:08	12:45:08	kobieta	2.0.10.92	3	6	1	1																							d	{SPACE}		no	BlockProc2		BlockList									39	Cued	l			-1	8	321493	311																								75	prime_left.png	0	321153	0	0	13	0	321153	0	321153	1	321153	20	0	-1	319654	321153	321152	0		TrialProc1	right	0		1	10	321463	-321463		0	0	TrialList2	target_right.png	0	l	-1	3	321203	260	d	281	321484															6	1	39	incomp			300
1 ver1_main_procedure	35	1	21	<?xml version="1.0"?>\n<Clock xmlns:dt="urn:schemas-microsoft-com:datatypes"><Description dt:dt="string">E-Prime Primary Realtime Clock</Description><StartTime><Timestamp dt:dt="int">0</Timestamp><DateUtc dt:dt="string">2015-08-18T10:45:07Z</DateUtc></StartTime><FrequencyChanges><FrequencyChange><Frequency dt:dt="r8">2612294</Frequency><Timestamp dt:dt="r8">36532587688</Timestamp><Current dt:dt="r8">0</Current><DateUtc dt:dt="string">2015-08-18T10:45:07Z</DateUtc></FrequencyChange></FrequencyChanges></Clock>\n	1 ver1_main_procedure-35-1	99.938	1.0.0.880	1	MK	-2121624208	prawa	1	2.0.10.182	08-18-2015	2015-08-18 10:45:08	12:45:08	kobieta	2.0.10.92	3	6	1	1																							d	{SPACE}		no	BlockProc2		BlockList									40	Free	dl	color_green.png		-1	8	324085	310																								25	prime_left.png	0	323615	0	0	13	0	323615	0	323615	1	323615	20	0	-1	322116	323615	323614	0		TrialProc1	left	0		0	10	323925	-323925		0	0	TrialList2	target_both.png	0	dl	-1	3	323665	260	d	411	324076															7	1	40	comp			300
1 ver1_main_procedure	35	1	21	<?xml version="1.0"?>\n<Clock xmlns:dt="urn:schemas-microsoft-com:datatypes"><Description dt:dt="string">E-Prime Primary Realtime Clock</Description><StartTime><Timestamp dt:dt="int">0</Timestamp><DateUtc dt:dt="string">2015-08-18T10:45:07Z</DateUtc></StartTime><FrequencyChanges><FrequencyChange><Frequency dt:dt="r8">2612294</Frequency><Timestamp dt:dt="r8">36532587688</Timestamp><Current dt:dt="r8">0</Current><DateUtc dt:dt="string">2015-08-18T10:45:07Z</DateUtc></FrequencyChange></FrequencyChanges></Clock>\n	1 ver1_main_procedure-35-1	99.938	1.0.0.880	1	MK	-2121624208	prawa	1	2.0.10.182	08-18-2015	2015-08-18 10:45:08	12:45:08	kobieta	2.0.10.92	3	6	1	1																							d	{SPACE}		no	BlockProc2		BlockList									41	Free	dl	color_yellow.png		-1	15	326476	311																			1					25	prime_left.png	0	326206	0	0	13	0	326206	0	326206	1	326206	20	0	-1	324707	326206	326205	0	prime_left.png	TrialProc1	right	0		0	0	0	0		0	0	TrialList2	target_both.png	0	dl	-999999	3	326256	0	l	204	326460															11	1	41	neut			300
1 ver1_main_procedure	35	1	21	<?xml version="1.0"?>\n<Clock xmlns:dt="urn:schemas-microsoft-com:datatypes"><Description dt:dt="string">E-Prime Primary Realtime Clock</Description><StartTime><Timestamp dt:dt="int">0</Timestamp><DateUtc dt:dt="string">2015-08-18T10:45:07Z</DateUtc></StartTime><FrequencyChanges><FrequencyChange><Frequency dt:dt="r8">2612294</Frequency><Timestamp dt:dt="r8">36532587688</Timestamp><Current dt:dt="r8">0</Current><DateUtc dt:dt="string">2015-08-18T10:45:07Z</DateUtc></FrequencyChange></FrequencyChanges></Clock>\n	1 ver1_main_procedure-35-1	99.938	1.0.0.880	1	MK	-2121624208	prawa	1	2.0.10.182	08-18-2015	2015-08-18 10:45:08	12:45:08	kobieta	2.0.10.92	3	6	1	1																							d	{SPACE}		no	BlockProc2		BlockList									42	Free	dl	color_blue.png		-1	11	328888	310																								25	prime_right.png	0	328598	0	0	13	0	328598	0	328598	1	328598	20	0	-1	327098	328598	328597	0		TrialProc1	right	0		0	0	0	0		0	0	TrialList2	target_both.png	0	dl	-999999	3	328648	0	l	228	328876															10	1	42	comp			300
1 ver1_main_procedure	35	1	21	<?xml version="1.0"?>\n<Clock xmlns:dt="urn:schemas-microsoft-com:datatypes"><Description dt:dt="string">E-Prime Primary Realtime Clock</Description><StartTime><Timestamp dt:dt="int">0</Timestamp><DateUtc dt:dt="string">2015-08-18T10:45:07Z</DateUtc></StartTime><FrequencyChanges><FrequencyChange><Frequency dt:dt="r8">2612294</Frequency><Timestamp dt:dt="r8">36532587688</Timestamp><Current dt:dt="r8">0</Current><DateUtc dt:dt="string">2015-08-18T10:45:07Z</DateUtc></FrequencyChange></FrequencyChanges></Clock>\n	1 ver1_main_procedure-35-1	99.938	1.0.0.880	1	MK	-2121624208	prawa	1	2.0.10.182	08-18-2015	2015-08-18 10:45:08	12:45:08	kobieta	2.0.10.92	3	6	1	1																							d	{SPACE}		no	BlockProc2		BlockList									43	Free	dl	color_red.png		-1	10	331359	160																								75	prime_left.png	0	331009	0	0	13	0	331009	0	331009	1	331009	20	0	-1	329510	331009	331008	0		TrialProc1	right	0		1	10	331319	-331319		0	0	TrialList2	target_both.png	0	dl	-1	3	331059	260	l	289	331348															12	1	43	incomp			150
1 ver1_main_procedure	35	1	21	<?xml version="1.0"?>\n<Clock xmlns:dt="urn:schemas-microsoft-com:datatypes"><Description dt:dt="string">E-Prime Primary Realtime Clock</Description><StartTime><Timestamp dt:dt="int">0</Timestamp><DateUtc dt:dt="string">2015-08-18T10:45:07Z</DateUtc></StartTime><FrequencyChanges><FrequencyChange><Frequency dt:dt="r8">2612294</Frequency><Timestamp dt:dt="r8">36532587688</Timestamp><Current dt:dt="r8">0</Current><DateUtc dt:dt="string">2015-08-18T10:45:07Z</DateUtc></FrequencyChange></FrequencyChanges></Clock>\n	1 ver1_main_procedure-35-1	99.938	1.0.0.880	1	MK	-2121624208	prawa	1	2.0.10.182	08-18-2015	2015-08-18 10:45:08	12:45:08	kobieta	2.0.10.92	3	6	1	1																							d	{SPACE}		no	BlockProc2		BlockList									44	Cued	d			-1	12	333601	160																			2					25	prime_right.png	0	333330	0	0	13	1	333331	1	333331	0	333330	20	0	-1	331831	333330	333330	0	prime_right.png	TrialProc1	left	0		0	0	0	0		0	0	TrialList2	target_left.png	0	d	-999999	3	333380	0	l	208	333588															2	1	44	neut			150
1 ver1_main_procedure	35	1	21	<?xml version="1.0"?>\n<Clock xmlns:dt="urn:schemas-microsoft-com:datatypes"><Description dt:dt="string">E-Prime Primary Realtime Clock</Description><StartTime><Timestamp dt:dt="int">0</Timestamp><DateUtc dt:dt="string">2015-08-18T10:45:07Z</DateUtc></StartTime><FrequencyChanges><FrequencyChange><Frequency dt:dt="r8">2612294</Frequency><Timestamp dt:dt="r8">36532587688</Timestamp><Current dt:dt="r8">0</Current><DateUtc dt:dt="string">2015-08-18T10:45:07Z</DateUtc></FrequencyChange></FrequencyChanges></Clock>\n	1 ver1_main_procedure-35-1	99.938	1.0.0.880	1	MK	-2121624208	prawa	1	2.0.10.182	08-18-2015	2015-08-18 10:45:08	12:45:08	kobieta	2.0.10.92	3	6	1	1																							d	{SPACE}		no	BlockProc2		BlockList									45	Cued	d	color_orange.png		-1	9	335862	160																								25	prime_right.png	0	335572	0	0	13	0	335572	0	335572	1	335572	20	0	-1	334073	335572	335571	0		TrialProc1	left	0		0	0	0	0		0	0	TrialList2	target_left.png	1	d	-999999	3	335622	0	d	230	335852															3	1	45	incomp			150
1 ver1_main_procedure	35	1	21	<?xml version="1.0"?>\n<Clock xmlns:dt="urn:schemas-microsoft-com:datatypes"><Description dt:dt="string">E-Prime Primary Realtime Clock</Description><StartTime><Timestamp dt:dt="int">0</Timestamp><DateUtc dt:dt="string">2015-08-18T10:45:07Z</DateUtc></StartTime><FrequencyChanges><FrequencyChange><Frequency dt:dt="r8">2612294</Frequency><Timestamp dt:dt="r8">36532587688</Timestamp><Current dt:dt="r8">0</Current><DateUtc dt:dt="string">2015-08-18T10:45:07Z</DateUtc></FrequencyChange></FrequencyChanges></Clock>\n	1 ver1_main_procedure-35-1	99.938	1.0.0.880	1	MK	-2121624208	prawa	1	2.0.10.182	08-18-2015	2015-08-18 10:45:08	12:45:08	kobieta	2.0.10.92	3	6	1	1																							d	{SPACE}		no	BlockProc2		BlockList									46	Cued	l	color_blue.png		-1	8	338213	160																								75	prime_right.png	0	337833	0	0	13	0	337833	0	337833	1	337833	20	0	-1	336334	337833	337832	0		TrialProc1	right	0		0	10	338143	-338143		0	0	TrialList2	target_right.png	1	l	-1	3	337883	260	l	321	338204															4	1	46	comp			150
1 ver1_main_procedure	35	1	21	<?xml version="1.0"?>\n<Clock xmlns:dt="urn:schemas-microsoft-com:datatypes"><Description dt:dt="string">E-Prime Primary Realtime Clock</Description><StartTime><Timestamp dt:dt="int">0</Timestamp><DateUtc dt:dt="string">2015-08-18T10:45:07Z</DateUtc></StartTime><FrequencyChanges><FrequencyChange><Frequency dt:dt="r8">2612294</Frequency><Timestamp dt:dt="r8">36532587688</Timestamp><Current dt:dt="r8">0</Current><DateUtc dt:dt="string">2015-08-18T10:45:07Z</DateUtc></FrequencyChange></FrequencyChanges></Clock>\n	1 ver1_main_procedure-35-1	99.938	1.0.0.880	1	MK	-2121624208	prawa	1	2.0.10.182	08-18-2015	2015-08-18 10:45:08	12:45:08	kobieta	2.0.10.92	3	6	1	1																							d	{SPACE}		no	BlockProc2		BlockList									47	Free	dl	color_purple.png		-1	8	340445	310																			1					75	prime_left.png	0	340185	0	0	13	0	340185	0	340185	1	340185	20	0	-1	338685	340185	340184	0	prime_left.png	TrialProc1	left	0		0	0	0	0		0	0	TrialList2	target_both.png	0	dl	-999999	3	340235	0	d	202	340437															8	1	47	neut			300
1 ver1_main_procedure	35	1	21	<?xml version="1.0"?>\n<Clock xmlns:dt="urn:schemas-microsoft-com:datatypes"><Description dt:dt="string">E-Prime Primary Realtime Clock</Description><StartTime><Timestamp dt:dt="int">0</Timestamp><DateUtc dt:dt="string">2015-08-18T10:45:07Z</DateUtc></StartTime><FrequencyChanges><FrequencyChange><Frequency dt:dt="r8">2612294</Frequency><Timestamp dt:dt="r8">36532587688</Timestamp><Current dt:dt="r8">0</Current><DateUtc dt:dt="string">2015-08-18T10:45:07Z</DateUtc></FrequencyChange></FrequencyChanges></Clock>\n	1 ver1_main_procedure-35-1	99.938	1.0.0.880	1	MK	-2121624208	prawa	1	2.0.10.182	08-18-2015	2015-08-18 10:45:08	12:45:08	kobieta	2.0.10.92	3	6	1	1																							d	{SPACE}		no	BlockProc2		BlockList									48	Free	dl	color_green.png		-1	11	342856	460																								25	prime_left.png	0	342566	0	0	13	0	342566	0	342566	1	342566	20	0	-1	341067	342566	342565	0		TrialProc1	left	0		0	0	0	0		0	0	TrialList2	target_both.png	0	dl	-999999	3	342616	0	d	229	342845															7	1	48	comp			450
1 ver1_main_procedure	35	1	21	<?xml version="1.0"?>\n<Clock xmlns:dt="urn:schemas-microsoft-com:datatypes"><Description dt:dt="string">E-Prime Primary Realtime Clock</Description><StartTime><Timestamp dt:dt="int">0</Timestamp><DateUtc dt:dt="string">2015-08-18T10:45:07Z</DateUtc></StartTime><FrequencyChanges><FrequencyChange><Frequency dt:dt="r8">2612294</Frequency><Timestamp dt:dt="r8">36532587688</Timestamp><Current dt:dt="r8">0</Current><DateUtc dt:dt="string">2015-08-18T10:45:07Z</DateUtc></FrequencyChange></FrequencyChanges></Clock>\n	1 ver1_main_procedure-35-1	99.938	1.0.0.880	1	MK	-2121624208	prawa	1	2.0.10.182	08-18-2015	2015-08-18 10:45:08	12:45:08	kobieta	2.0.10.92	3	6	1	1																							d	{SPACE}		no	BlockProc2		BlockList									49	Free	dl	color_yellow.png		-1	7	345468	460																			2					75	prime_right.png	0	345128	0	0	13	0	345128	0	345128	1	345128	19	0	-1	343628	345128	345127	0	prime_right.png	TrialProc1	left	0		0	10	345438	-345438		0	0	TrialList2	target_both.png	0	dl	-1	4	345178	260	l	283	345461															8	1	49	neut			450
1 ver1_main_procedure	35	1	21	<?xml version="1.0"?>\n<Clock xmlns:dt="urn:schemas-microsoft-com:datatypes"><Description dt:dt="string">E-Prime Primary Realtime Clock</Description><StartTime><Timestamp dt:dt="int">0</Timestamp><DateUtc dt:dt="string">2015-08-18T10:45:07Z</DateUtc></StartTime><FrequencyChanges><FrequencyChange><Frequency dt:dt="r8">2612294</Frequency><Timestamp dt:dt="r8">36532587688</Timestamp><Current dt:dt="r8">0</Current><DateUtc dt:dt="string">2015-08-18T10:45:07Z</DateUtc></FrequencyChange></FrequencyChanges></Clock>\n	1 ver1_main_procedure-35-1	99.938	1.0.0.880	1	MK	-2121624208	prawa	1	2.0.10.182	08-18-2015	2015-08-18 10:45:08	12:45:08	kobieta	2.0.10.92	3	6	1	1																							d	{SPACE}		no	BlockProc2		BlockList									50	Free	dl	color_yellow.png		-1	9	348059	310																			1					25	prime_left.png	0	347739	0	0	13	0	347739	0	347739	1	347739	20	0	-1	346240	347739	347738	0	prime_left.png	TrialProc1	left	0		-999999	10	348049	0		0	0	TrialList2	target_both.png	0	dl	-1	3	347789	0	l	256	348045															8	1	50	neut			300
1 ver1_main_procedure	35	1	21	<?xml version="1.0"?>\n<Clock xmlns:dt="urn:schemas-microsoft-com:datatypes"><Description dt:dt="string">E-Prime Primary Realtime Clock</Description><StartTime><Timestamp dt:dt="int">0</Timestamp><DateUtc dt:dt="string">2015-08-18T10:45:07Z</DateUtc></StartTime><FrequencyChanges><FrequencyChange><Frequency dt:dt="r8">2612294</Frequency><Timestamp dt:dt="r8">36532587688</Timestamp><Current dt:dt="r8">0</Current><DateUtc dt:dt="string">2015-08-18T10:45:07Z</DateUtc></FrequencyChange></FrequencyChanges></Clock>\n	1 ver1_main_procedure-35-1	99.938	1.0.0.880	1	MK	-2121624208	prawa	1	2.0.10.182	08-18-2015	2015-08-18 10:45:08	12:45:08	kobieta	2.0.10.92	3	6	1	1																							d	{SPACE}		no	BlockProc2		BlockList									51	Free	dl	color_blue.png		-1	12	350641	310																								75	prime_right.png	0	350181	0	0	13	0	350181	0	350181	1	350181	20	0	-1	348681	350181	350180	0		TrialProc1	right	0		0	10	350491	-350491		0	0	TrialList2	target_both.png	0	dl	-1	3	350231	260	l	398	350629															10	1	51	comp			300
1 ver1_main_procedure	35	1	21	<?xml version="1.0"?>\n<Clock xmlns:dt="urn:schemas-microsoft-com:datatypes"><Description dt:dt="string">E-Prime Primary Realtime Clock</Description><StartTime><Timestamp dt:dt="int">0</Timestamp><DateUtc dt:dt="string">2015-08-18T10:45:07Z</DateUtc></StartTime><FrequencyChanges><FrequencyChange><Frequency dt:dt="r8">2612294</Frequency><Timestamp dt:dt="r8">36532587688</Timestamp><Current dt:dt="r8">0</Current><DateUtc dt:dt="string">2015-08-18T10:45:07Z</DateUtc></FrequencyChange></FrequencyChanges></Clock>\n	1 ver1_main_procedure-35-1	99.938	1.0.0.880	1	MK	-2121624208	prawa	1	2.0.10.182	08-18-2015	2015-08-18 10:45:08	12:45:08	kobieta	2.0.10.92	3	6	1	1																							d	{SPACE}		no	BlockProc2		BlockList									52	Free	dl	color_orange.png		-1	15	353092	160																								75	prime_right.png	0	352762	0	0	13	0	352762	0	352762	1	352762	20	0	-1	351263	352762	352761	0		TrialProc1	left	0		0	10	353072	-353072		0	0	TrialList2	target_both.png	0	dl	-1	3	352812	260	d	265	353077															9	1	52	incomp			150
1 ver1_main_procedure	35	1	21	<?xml version="1.0"?>\n<Clock xmlns:dt="urn:schemas-microsoft-com:datatypes"><Description dt:dt="string">E-Prime Primary Realtime Clock</Description><StartTime><Timestamp dt:dt="int">0</Timestamp><DateUtc dt:dt="string">2015-08-18T10:45:07Z</DateUtc></StartTime><FrequencyChanges><FrequencyChange><Frequency dt:dt="r8">2612294</Frequency><Timestamp dt:dt="r8">36532587688</Timestamp><Current dt:dt="r8">0</Current><DateUtc dt:dt="string">2015-08-18T10:45:07Z</DateUtc></FrequencyChange></FrequencyChanges></Clock>\n	1 ver1_main_procedure-35-1	99.938	1.0.0.880	1	MK	-2121624208	prawa	1	2.0.10.182	08-18-2015	2015-08-18 10:45:08	12:45:08	kobieta	2.0.10.92	3	6	1	1																							d	{SPACE}		no	BlockProc2		BlockList									53	Free	dl	color_blue.png		-1	8	355534	460																								25	prime_right.png	0	355064	0	0	13	0	355064	0	355064	1	355064	19	0	-1	353564	355064	355063	0		TrialProc1	left	0		0	11	355374	-355374		0	0	TrialList2	target_both.png	0	dl	-1	3	355113	261	l	412	355525															9	1	53	incomp			450
1 ver1_main_procedure	35	1	21	<?xml version="1.0"?>\n<Clock xmlns:dt="urn:schemas-microsoft-com:datatypes"><Description dt:dt="string">E-Prime Primary Realtime Clock</Description><StartTime><Timestamp dt:dt="int">0</Timestamp><DateUtc dt:dt="string">2015-08-18T10:45:07Z</DateUtc></StartTime><FrequencyChanges><FrequencyChange><Frequency dt:dt="r8">2612294</Frequency><Timestamp dt:dt="r8">36532587688</Timestamp><Current dt:dt="r8">0</Current><DateUtc dt:dt="string">2015-08-18T10:45:07Z</DateUtc></FrequencyChange></FrequencyChanges></Clock>\n	1 ver1_main_procedure-35-1	99.938	1.0.0.880	1	MK	-2121624208	prawa	1	2.0.10.182	08-18-2015	2015-08-18 10:45:08	12:45:08	kobieta	2.0.10.92	3	6	1	1																							d	{SPACE}		no	BlockProc2		BlockList									54	Free	dl	color_green.png		-1	9	358135	160																								75	prime_left.png	0	357805	0	0	13	0	357805	0	357805	1	357805	20	0	-1	356306	357805	357804	0		TrialProc1	right	0		0	10	358115	-358115		0	0	TrialList2	target_both.png	0	dl	-1	3	357855	260	d	270	358125															12	1	54	incomp			150
1 ver1_main_procedure	35	1	21	<?xml version="1.0"?>\n<Clock xmlns:dt="urn:schemas-microsoft-com:datatypes"><Description dt:dt="string">E-Prime Primary Realtime Clock</Description><StartTime><Timestamp dt:dt="int">0</Timestamp><DateUtc dt:dt="string">2015-08-18T10:45:07Z</DateUtc></StartTime><FrequencyChanges><FrequencyChange><Frequency dt:dt="r8">2612294</Frequency><Timestamp dt:dt="r8">36532587688</Timestamp><Current dt:dt="r8">0</Current><DateUtc dt:dt="string">2015-08-18T10:45:07Z</DateUtc></FrequencyChange></FrequencyChanges></Clock>\n	1 ver1_main_procedure-35-1	99.938	1.0.0.880	1	MK	-2121624208	prawa	1	2.0.10.182	08-18-2015	2015-08-18 10:45:08	12:45:08	kobieta	2.0.10.92	3	6	1	1																							d	{SPACE}		no	BlockProc2		BlockList									55	Free	dl	color_red.png		-1	9	360367	160																								75	prime_left.png	1	360107	0	0	13	1	360107	1	360107	0	360106	20	0	-1	358607	360106	360106	0		TrialProc1	right	0		0	0	0	0		0	0	TrialList2	target_both.png	0	dl	-999999	3	360156	0	l	201	360357															12	1	55	incomp			150
1 ver1_main_procedure	35	1	21	<?xml version="1.0"?>\n<Clock xmlns:dt="urn:schemas-microsoft-com:datatypes"><Description dt:dt="string">E-Prime Primary Realtime Clock</Description><StartTime><Timestamp dt:dt="int">0</Timestamp><DateUtc dt:dt="string">2015-08-18T10:45:07Z</DateUtc></StartTime><FrequencyChanges><FrequencyChange><Frequency dt:dt="r8">2612294</Frequency><Timestamp dt:dt="r8">36532587688</Timestamp><Current dt:dt="r8">0</Current><DateUtc dt:dt="string">2015-08-18T10:45:07Z</DateUtc></FrequencyChange></FrequencyChanges></Clock>\n	1 ver1_main_procedure-35-1	99.938	1.0.0.880	1	MK	-2121624208	prawa	1	2.0.10.182	08-18-2015	2015-08-18 10:45:08	12:45:08	kobieta	2.0.10.92	3	6	1	1																							d	{SPACE}		no	BlockProc2		BlockList									56	Free	dl	color_blue.png		-1	6	362748	160																								75	prime_right.png	0	362338	0	0	13	0	362338	0	362338	1	362338	20	0	-1	360839	362338	362337	0		TrialProc1	left	0		0	10	362648	-362648		0	0	TrialList2	target_both.png	0	dl	-1	3	362388	260	l	353	362741															9	1	56	incomp			150
1 ver1_main_procedure	35	1	21	<?xml version="1.0"?>\n<Clock xmlns:dt="urn:schemas-microsoft-com:datatypes"><Description dt:dt="string">E-Prime Primary Realtime Clock</Description><StartTime><Timestamp dt:dt="int">0</Timestamp><DateUtc dt:dt="string">2015-08-18T10:45:07Z</DateUtc></StartTime><FrequencyChanges><FrequencyChange><Frequency dt:dt="r8">2612294</Frequency><Timestamp dt:dt="r8">36532587688</Timestamp><Current dt:dt="r8">0</Current><DateUtc dt:dt="string">2015-08-18T10:45:07Z</DateUtc></FrequencyChange></FrequencyChanges></Clock>\n	1 ver1_main_procedure-35-1	99.938	1.0.0.880	1	MK	-2121624208	prawa	1	2.0.10.182	08-18-2015	2015-08-18 10:45:08	12:45:08	kobieta	2.0.10.92	3	6	1	1																							d	{SPACE}		no	BlockProc2		BlockList									57	Free	dl	color_green.png		-1	11	365169	311																								25	prime_left.png	0	364719	0	0	13	0	364719	0	364719	1	364719	20	0	-1	363220	364719	364718	0		TrialProc1	left	0		1	10	365029	-365029		0	0	TrialList2	target_both.png	0	dl	-1	3	364769	260	d	388	365157															7	1	57	comp			300
1 ver1_main_procedure	35	1	21	<?xml version="1.0"?>\n<Clock xmlns:dt="urn:schemas-microsoft-com:datatypes"><Description dt:dt="string">E-Prime Primary Realtime Clock</Description><StartTime><Timestamp dt:dt="int">0</Timestamp><DateUtc dt:dt="string">2015-08-18T10:45:07Z</DateUtc></StartTime><FrequencyChanges><FrequencyChange><Frequency dt:dt="r8">2612294</Frequency><Timestamp dt:dt="r8">36532587688</Timestamp><Current dt:dt="r8">0</Current><DateUtc dt:dt="string">2015-08-18T10:45:07Z</DateUtc></FrequencyChange></FrequencyChanges></Clock>\n	1 ver1_main_procedure-35-1	99.938	1.0.0.880	1	MK	-2121624208	prawa	1	2.0.10.182	08-18-2015	2015-08-18 10:45:08	12:45:08	kobieta	2.0.10.92	3	6	1	1																							d	{SPACE}		no	BlockProc2		BlockList									58	Free	dl	color_green.png		-1	5	367651	160																								75	prime_left.png	0	367291	0	0	13	0	367291	0	367291	1	367291	20	0	-1	365791	367291	367290	0		TrialProc1	left	0		0	10	367601	-367601		0	0	TrialList2	target_both.png	0	dl	-1	3	367341	260	d	304	367645															7	1	58	comp			150
1 ver1_main_procedure	35	1	21	<?xml version="1.0"?>\n<Clock xmlns:dt="urn:schemas-microsoft-com:datatypes"><Description dt:dt="string">E-Prime Primary Realtime Clock</Description><StartTime><Timestamp dt:dt="int">0</Timestamp><DateUtc dt:dt="string">2015-08-18T10:45:07Z</DateUtc></StartTime><FrequencyChanges><FrequencyChange><Frequency dt:dt="r8">2612294</Frequency><Timestamp dt:dt="r8">36532587688</Timestamp><Current dt:dt="r8">0</Current><DateUtc dt:dt="string">2015-08-18T10:45:07Z</DateUtc></FrequencyChange></FrequencyChanges></Clock>\n	1 ver1_main_procedure-35-1	99.938	1.0.0.880	1	MK	-2121624208	prawa	1	2.0.10.182	08-18-2015	2015-08-18 10:45:08	12:45:08	kobieta	2.0.10.92	3	6	1	1																							d	{SPACE}		no	BlockProc2		BlockList									59	Free	dl	color_purple.png		-1	12	369962	311																			2					25	prime_right.png	0	369622	0	0	13	0	369622	0	369622	1	369622	20	0	-1	368123	369622	369621	0	prime_right.png	TrialProc1	right	0		0	10	369932	-369932		0	0	TrialList2	target_both.png	0	dl	-1	3	369672	260	d	277	369949															11	1	59	neut			300
1 ver1_main_procedure	35	1	21	<?xml version="1.0"?>\n<Clock xmlns:dt="urn:schemas-microsoft-com:datatypes"><Description dt:dt="string">E-Prime Primary Realtime Clock</Description><StartTime><Timestamp dt:dt="int">0</Timestamp><DateUtc dt:dt="string">2015-08-18T10:45:07Z</DateUtc></StartTime><FrequencyChanges><FrequencyChange><Frequency dt:dt="r8">2612294</Frequency><Timestamp dt:dt="r8">36532587688</Timestamp><Current dt:dt="r8">0</Current><DateUtc dt:dt="string">2015-08-18T10:45:07Z</DateUtc></FrequencyChange></FrequencyChanges></Clock>\n	1 ver1_main_procedure-35-1	99.938	1.0.0.880	1	MK	-2121624208	prawa	1	2.0.10.182	08-18-2015	2015-08-18 10:45:08	12:45:08	kobieta	2.0.10.92	3	6	1	1																							d	{SPACE}		no	BlockProc2		BlockList									60	Cued	d	color_green.png		-1	10	372404	310																								75	prime_left.png	0	372084	0	0	13	0	372084	0	372084	1	372084	20	0	-1	370585	372084	372083	0		TrialProc1	left	0		-999999	10	372394	0		0	0	TrialList2	target_left.png	1	d	-1	3	372134	0	d	255	372389															1	1	60	comp			300
1 ver1_main_procedure	35	1	21	<?xml version="1.0"?>\n<Clock xmlns:dt="urn:schemas-microsoft-com:datatypes"><Description dt:dt="string">E-Prime Primary Realtime Clock</Description><StartTime><Timestamp dt:dt="int">0</Timestamp><DateUtc dt:dt="string">2015-08-18T10:45:07Z</DateUtc></StartTime><FrequencyChanges><FrequencyChange><Frequency dt:dt="r8">2612294</Frequency><Timestamp dt:dt="r8">36532587688</Timestamp><Current dt:dt="r8">0</Current><DateUtc dt:dt="string">2015-08-18T10:45:07Z</DateUtc></FrequencyChange></FrequencyChanges></Clock>\n	1 ver1_main_procedure-35-1	99.938	1.0.0.880	1	MK	-2121624208	prawa	1	2.0.10.182	08-18-2015	2015-08-18 10:45:08	12:45:08	kobieta	2.0.10.92	3	6	1	1																							d	{SPACE}		no	BlockProc2		BlockList									61	Cued	l	color_red.png		-1	13	374955	160																								25	prime_left.png	0	374525	0	0	13	0	374525	0	374525	1	374525	20	0	-1	373026	374525	374524	0		TrialProc1	right	0		0	10	374835	-374835		0	0	TrialList2	target_right.png	1	l	-1	3	374575	260	l	366	374941															6	1	61	incomp			150
1 ver1_main_procedure	35	1	21	<?xml version="1.0"?>\n<Clock xmlns:dt="urn:schemas-microsoft-com:datatypes"><Description dt:dt="string">E-Prime Primary Realtime Clock</Description><StartTime><Timestamp dt:dt="int">0</Timestamp><DateUtc dt:dt="string">2015-08-18T10:45:07Z</DateUtc></StartTime><FrequencyChanges><FrequencyChange><Frequency dt:dt="r8">2612294</Frequency><Timestamp dt:dt="r8">36532587688</Timestamp><Current dt:dt="r8">0</Current><DateUtc dt:dt="string">2015-08-18T10:45:07Z</DateUtc></FrequencyChange></FrequencyChanges></Clock>\n	1 ver1_main_procedure-35-1	99.938	1.0.0.880	1	MK	-2121624208	prawa	1	2.0.10.182	08-18-2015	2015-08-18 10:45:08	12:45:08	kobieta	2.0.10.92	3	6	1	1																							d	{SPACE}		no	BlockProc2		BlockList									62	Cued	d	color_purple.png		-1	15	377277	460																			1					75	prime_left.png	0	376927	0	0	13	0	376927	0	376927	1	376927	20	0	-1	375427	376927	376926	0	prime_left.png	TrialProc1	left	0		0	10	377237	-377237		0	0	TrialList2	target_left.png	1	d	-1	3	376977	260	d	284	377261															2	1	62	neut			450
1 ver1_main_procedure	35	1	21	<?xml version="1.0"?>\n<Clock xmlns:dt="urn:schemas-microsoft-com:datatypes"><Description dt:dt="string">E-Prime Primary Realtime Clock</Description><StartTime><Timestamp dt:dt="int">0</Timestamp><DateUtc dt:dt="string">2015-08-18T10:45:07Z</DateUtc></StartTime><FrequencyChanges><FrequencyChange><Frequency dt:dt="r8">2612294</Frequency><Timestamp dt:dt="r8">36532587688</Timestamp><Current dt:dt="r8">0</Current><DateUtc dt:dt="string">2015-08-18T10:45:07Z</DateUtc></FrequencyChange></FrequencyChanges></Clock>\n	1 ver1_main_procedure-35-1	99.938	1.0.0.880	1	MK	-2121624208	prawa	1	2.0.10.182	08-18-2015	2015-08-18 10:45:08	12:45:08	kobieta	2.0.10.92	3	6	1	1																							d	{SPACE}		no	BlockProc2		BlockList									63	Cued	d			-1	8	379878	310																			2					25	prime_right.png	0	379548	0	0	13	0	379548	0	379548	1	379548	20	0	-1	378049	379548	379547	0	prime_right.png	TrialProc1	left	0		0	10	379858	-379858		0	0	TrialList2	target_left.png	0	d	-1	3	379598	260	l	271	379869															2	1	63	neut			300
1 ver1_main_procedure	35	1	21	<?xml version="1.0"?>\n<Clock xmlns:dt="urn:schemas-microsoft-com:datatypes"><Description dt:dt="string">E-Prime Primary Realtime Clock</Description><StartTime><Timestamp dt:dt="int">0</Timestamp><DateUtc dt:dt="string">2015-08-18T10:45:07Z</DateUtc></StartTime><FrequencyChanges><FrequencyChange><Frequency dt:dt="r8">2612294</Frequency><Timestamp dt:dt="r8">36532587688</Timestamp><Current dt:dt="r8">0</Current><DateUtc dt:dt="string">2015-08-18T10:45:07Z</DateUtc></FrequencyChange></FrequencyChanges></Clock>\n	1 ver1_main_procedure-35-1	99.938	1.0.0.880	1	MK	-2121624208	prawa	1	2.0.10.182	08-18-2015	2015-08-18 10:45:08	12:45:08	kobieta	2.0.10.92	3	6	1	1																							d	{SPACE}		no	BlockProc2		BlockList									64	Free	dl	color_green.png		-1	12	382290	310																								75	prime_left.png	0	382000	0	0	13	0	382000	0	382000	1	382000	20	0	-1	380500	382000	381999	0		TrialProc1	right	0		0	0	0	0		0	0	TrialList2	target_both.png	0	dl	-999999	3	382050	0	d	228	382278															12	1	64	incomp			300
1 ver1_main_procedure	35	1	21	<?xml version="1.0"?>\n<Clock xmlns:dt="urn:schemas-microsoft-com:datatypes"><Description dt:dt="string">E-Prime Primary Realtime Clock</Description><StartTime><Timestamp dt:dt="int">0</Timestamp><DateUtc dt:dt="string">2015-08-18T10:45:07Z</DateUtc></StartTime><FrequencyChanges><FrequencyChange><Frequency dt:dt="r8">2612294</Frequency><Timestamp dt:dt="r8">36532587688</Timestamp><Current dt:dt="r8">0</Current><DateUtc dt:dt="string">2015-08-18T10:45:07Z</DateUtc></FrequencyChange></FrequencyChanges></Clock>\n	1 ver1_main_procedure-35-1	99.938	1.0.0.880	1	MK	-2121624208	prawa	1	2.0.10.182	08-18-2015	2015-08-18 10:45:08	12:45:08	kobieta	2.0.10.92	3	6	1	1																							d	{SPACE}		no	BlockProc2		BlockList									65	Cued	l			-1	9	384711	310																								75	prime_right.png	0	384411	0	0	13	0	384411	0	384411	1	384411	20	0	-1	382912	384411	384410	0		TrialProc1	right	0		0	0	0	0		0	0	TrialList2	target_right.png	0	l	-999999	3	384461	0	d	241	384702															4	1	65	comp			300
1 ver1_main_procedure	35	1	21	<?xml version="1.0"?>\n<Clock xmlns:dt="urn:schemas-microsoft-com:datatypes"><Description dt:dt="string">E-Prime Primary Realtime Clock</Description><StartTime><Timestamp dt:dt="int">0</Timestamp><DateUtc dt:dt="string">2015-08-18T10:45:07Z</DateUtc></StartTime><FrequencyChanges><FrequencyChange><Frequency dt:dt="r8">2612294</Frequency><Timestamp dt:dt="r8">36532587688</Timestamp><Current dt:dt="r8">0</Current><DateUtc dt:dt="string">2015-08-18T10:45:07Z</DateUtc></FrequencyChange></FrequencyChanges></Clock>\n	1 ver1_main_procedure-35-1	99.938	1.0.0.880	1	MK	-2121624208	prawa	1	2.0.10.182	08-18-2015	2015-08-18 10:45:08	12:45:08	kobieta	2.0.10.92	3	6	1	1																							d	{SPACE}		no	BlockProc2		BlockList									66	Free	dl	color_blue.png		-1	9	387223	310																								25	prime_right.png	1	386833	0	0	13	1	386833	1	386833	0	386832	20	0	-1	385333	386832	386832	0		TrialProc1	left	0		0	11	387143	-387143		0	0	TrialList2	target_both.png	0	dl	-1	3	386882	261	l	332	387214															9	1	66	incomp			300
1 ver1_main_procedure	35	1	21	<?xml version="1.0"?>\n<Clock xmlns:dt="urn:schemas-microsoft-com:datatypes"><Description dt:dt="string">E-Prime Primary Realtime Clock</Description><StartTime><Timestamp dt:dt="int">0</Timestamp><DateUtc dt:dt="string">2015-08-18T10:45:07Z</DateUtc></StartTime><FrequencyChanges><FrequencyChange><Frequency dt:dt="r8">2612294</Frequency><Timestamp dt:dt="r8">36532587688</Timestamp><Current dt:dt="r8">0</Current><DateUtc dt:dt="string">2015-08-18T10:45:07Z</DateUtc></FrequencyChange></FrequencyChanges></Clock>\n	1 ver1_main_procedure-35-1	99.938	1.0.0.880	1	MK	-2121624208	prawa	1	2.0.10.182	08-18-2015	2015-08-18 10:45:08	12:45:08	kobieta	2.0.10.92	3	6	1	1																							d	{SPACE}		no	BlockProc2		BlockList									67	Free	dl	color_blue.png		-1	6	389804	310																								25	prime_right.png	0	389344	0	0	13	0	389344	0	389344	1	389344	20	0	-1	387845	389344	389343	0		TrialProc1	right	0		0	10	389654	-389654		0	0	TrialList2	target_both.png	0	dl	-1	3	389394	260	l	404	389798															10	1	67	comp			300
1 ver1_main_procedure	35	1	21	<?xml version="1.0"?>\n<Clock xmlns:dt="urn:schemas-microsoft-com:datatypes"><Description dt:dt="string">E-Prime Primary Realtime Clock</Description><StartTime><Timestamp dt:dt="int">0</Timestamp><DateUtc dt:dt="string">2015-08-18T10:45:07Z</DateUtc></StartTime><FrequencyChanges><FrequencyChange><Frequency dt:dt="r8">2612294</Frequency><Timestamp dt:dt="r8">36532587688</Timestamp><Current dt:dt="r8">0</Current><DateUtc dt:dt="string">2015-08-18T10:45:07Z</DateUtc></FrequencyChange></FrequencyChanges></Clock>\n	1 ver1_main_procedure-35-1	99.938	1.0.0.880	1	MK	-2121624208	prawa	1	2.0.10.182	08-18-2015	2015-08-18 10:45:08	12:45:08	kobieta	2.0.10.92	3	6	1	1																							d	{SPACE}		no	BlockProc2		BlockList									68	Free	dl	color_purple.png		-1	14	392396	310																			1					25	prime_left.png	0	391926	0	0	13	0	391926	0	391926	1	391926	20	0	-1	390426	391926	391925	0	prime_left.png	TrialProc1	left	0		0	10	392236	-392236		0	0	TrialList2	target_both.png	0	dl	-1	3	391976	260	d	406	392382															8	1	68	neut			300
1 ver1_main_procedure	35	1	21	<?xml version="1.0"?>\n<Clock xmlns:dt="urn:schemas-microsoft-com:datatypes"><Description dt:dt="string">E-Prime Primary Realtime Clock</Description><StartTime><Timestamp dt:dt="int">0</Timestamp><DateUtc dt:dt="string">2015-08-18T10:45:07Z</DateUtc></StartTime><FrequencyChanges><FrequencyChange><Frequency dt:dt="r8">2612294</Frequency><Timestamp dt:dt="r8">36532587688</Timestamp><Current dt:dt="r8">0</Current><DateUtc dt:dt="string">2015-08-18T10:45:07Z</DateUtc></FrequencyChange></FrequencyChanges></Clock>\n	1 ver1_main_procedure-35-1	99.938	1.0.0.880	1	MK	-2121624208	prawa	1	2.0.10.182	08-18-2015	2015-08-18 10:45:08	12:45:08	kobieta	2.0.10.92	3	6	1	1																							d	{SPACE}		no	BlockProc2		BlockList									69	Free	dl	color_yellow.png		-1	13	395027	461																			2					75	prime_right.png	0	394517	0	0	13	0	394517	0	394517	1	394517	20	0	-1	393018	394517	394516	0	prime_right.png	TrialProc1	right	0		0	10	394827	-394827		0	0	TrialList2	target_both.png	0	dl	-1	3	394567	260	l	447	395014															11	1	69	neut			450
1 ver1_main_procedure	35	1	21	<?xml version="1.0"?>\n<Clock xmlns:dt="urn:schemas-microsoft-com:datatypes"><Description dt:dt="string">E-Prime Primary Realtime Clock</Description><StartTime><Timestamp dt:dt="int">0</Timestamp><DateUtc dt:dt="string">2015-08-18T10:45:07Z</DateUtc></StartTime><FrequencyChanges><FrequencyChange><Frequency dt:dt="r8">2612294</Frequency><Timestamp dt:dt="r8">36532587688</Timestamp><Current dt:dt="r8">0</Current><DateUtc dt:dt="string">2015-08-18T10:45:07Z</DateUtc></FrequencyChange></FrequencyChanges></Clock>\n	1 ver1_main_procedure-35-1	99.938	1.0.0.880	1	MK	-2121624208	prawa	1	2.0.10.182	08-18-2015	2015-08-18 10:45:08	12:45:08	kobieta	2.0.10.92	3	6	1	1																							d	{SPACE}		no	BlockProc2		BlockList									70	Cued	d	color_orange.png		-1	6	397709	460																								25	prime_right.png	0	397299	0	0	13	0	397299	0	397299	1	397299	20	0	-1	395800	397299	397298	0		TrialProc1	left	0		0	10	397609	-397609		0	0	TrialList2	target_left.png	1	d	-1	3	397349	260	d	353	397702															3	1	70	incomp			450
1 ver1_main_procedure	35	1	21	<?xml version="1.0"?>\n<Clock xmlns:dt="urn:schemas-microsoft-com:datatypes"><Description dt:dt="string">E-Prime Primary Realtime Clock</Description><StartTime><Timestamp dt:dt="int">0</Timestamp><DateUtc dt:dt="string">2015-08-18T10:45:07Z</DateUtc></StartTime><FrequencyChanges><FrequencyChange><Frequency dt:dt="r8">2612294</Frequency><Timestamp dt:dt="r8">36532587688</Timestamp><Current dt:dt="r8">0</Current><DateUtc dt:dt="string">2015-08-18T10:45:07Z</DateUtc></FrequencyChange></FrequencyChanges></Clock>\n	1 ver1_main_procedure-35-1	99.938	1.0.0.880	1	MK	-2121624208	prawa	1	2.0.10.182	08-18-2015	2015-08-18 10:45:08	12:45:08	kobieta	2.0.10.92	3	6	1	1																							d	{SPACE}		no	BlockProc2		BlockList									71	Free	dl	color_green.png		-1	8	400431	460																								75	prime_left.png	0	399980	0	0	13	0	399981	0	399980	1	399980	20	0	-1	398481	399980	399979	0		TrialProc1	left	0		0	11	400291	-400291		0	0	TrialList2	target_both.png	0	dl	-1	3	400030	261	d	392	400422															7	1	71	comp			450
1 ver1_main_procedure	35	1	21	<?xml version="1.0"?>\n<Clock xmlns:dt="urn:schemas-microsoft-com:datatypes"><Description dt:dt="string">E-Prime Primary Realtime Clock</Description><StartTime><Timestamp dt:dt="int">0</Timestamp><DateUtc dt:dt="string">2015-08-18T10:45:07Z</DateUtc></StartTime><FrequencyChanges><FrequencyChange><Frequency dt:dt="r8">2612294</Frequency><Timestamp dt:dt="r8">36532587688</Timestamp><Current dt:dt="r8">0</Current><DateUtc dt:dt="string">2015-08-18T10:45:07Z</DateUtc></FrequencyChange></FrequencyChanges></Clock>\n	1 ver1_main_procedure-35-1	99.938	1.0.0.880	1	MK	-2121624208	prawa	1	2.0.10.182	08-18-2015	2015-08-18 10:45:08	12:45:08	kobieta	2.0.10.92	3	6	1	1																							d	{SPACE}		no	BlockProc2		BlockList									72	Free	dl	color_blue.png		-1	11	403002	160																								75	prime_right.png	0	402702	0	0	13	0	402702	0	402702	1	402702	20	0	-1	401203	402702	402701	0		TrialProc1	right	0		0	0	0	0		0	0	TrialList2	target_both.png	0	dl	-999999	3	402752	0	l	238	402990															10	1	72	comp			150
1 ver1_main_procedure	35	1	21	<?xml version="1.0"?>\n<Clock xmlns:dt="urn:schemas-microsoft-com:datatypes"><Description dt:dt="string">E-Prime Primary Realtime Clock</Description><StartTime><Timestamp dt:dt="int">0</Timestamp><DateUtc dt:dt="string">2015-08-18T10:45:07Z</DateUtc></StartTime><FrequencyChanges><FrequencyChange><Frequency dt:dt="r8">2612294</Frequency><Timestamp dt:dt="r8">36532587688</Timestamp><Current dt:dt="r8">0</Current><DateUtc dt:dt="string">2015-08-18T10:45:07Z</DateUtc></FrequencyChange></FrequencyChanges></Clock>\n	1 ver1_main_procedure-35-1	99.938	1.0.0.880	1	MK	-2121624208	prawa	1	2.0.10.182	08-18-2015	2015-08-18 10:45:08	12:45:08	kobieta	2.0.10.92	3	6	1	1																							d	{SPACE}		no	BlockProc2		BlockList									73									6	4	3	1	2	5	color_yellow.png	color_purple.png	color_green.png	color_orange.png	color_blue.png	color_red.png	color_orange.png	color_blue.png	color_green.png	color_purple.png	color_red.png	color_yellow.png		1	1	1	55161																						DragProc											Ocena																															
1 ver1_main_procedure	35	1	21	<?xml version="1.0"?>\n<Clock xmlns:dt="urn:schemas-microsoft-com:datatypes"><Description dt:dt="string">E-Prime Primary Realtime Clock</Description><StartTime><Timestamp dt:dt="int">0</Timestamp><DateUtc dt:dt="string">2015-08-18T10:45:07Z</DateUtc></StartTime><FrequencyChanges><FrequencyChange><Frequency dt:dt="r8">2612294</Frequency><Timestamp dt:dt="r8">36532587688</Timestamp><Current dt:dt="r8">0</Current><DateUtc dt:dt="string">2015-08-18T10:45:07Z</DateUtc></FrequencyChange></FrequencyChanges></Clock>\n	1 ver1_main_procedure-35-1	99.938	1.0.0.880	1	MK	-2121624208	prawa	1	2.0.10.182	08-18-2015	2015-08-18 10:45:08	12:45:08	kobieta	2.0.10.92	3	6	1	1																							d	{SPACE}		no	BlockProc2		BlockList									74															color_yellow.png	color_purple.png	color_green.png	color_orange.png	color_blue.png	color_red.png								2	1	2																							EnterProc											Ocena												15	25	30	50	75	80														
1 ver1_main_procedure	35	1	21	<?xml version="1.0"?>\n<Clock xmlns:dt="urn:schemas-microsoft-com:datatypes"><Description dt:dt="string">E-Prime Primary Realtime Clock</Description><StartTime><Timestamp dt:dt="int">0</Timestamp><DateUtc dt:dt="string">2015-08-18T10:45:07Z</DateUtc></StartTime><FrequencyChanges><FrequencyChange><Frequency dt:dt="r8">2612294</Frequency><Timestamp dt:dt="r8">36532587688</Timestamp><Current dt:dt="r8">0</Current><DateUtc dt:dt="string">2015-08-18T10:45:07Z</DateUtc></FrequencyChange></FrequencyChanges></Clock>\n	1 ver1_main_procedure-35-1	99.938	1.0.0.880	1	MK	-2121624208	prawa	1	2.0.10.182	08-18-2015	2015-08-18 10:45:08	12:45:08	kobieta	2.0.10.92	4	1	1	2																							d	{SPACE}		no	BlockProc1		BlockList									1	Free	dl	color_purple.png		-1	11	569902	310																								75	prime_left.png	0	569352	0	0	13	0	569352	0	569352	1	569352	20	0	-1	567853	569352	569351	0		TrialProc1	left	0		0	10	569662	-569662		0	0	TrialList1	target_both.png	0	dl	-1	3	569402	260	d	488	569890												7	1	1				comp			300
1 ver1_main_procedure	35	1	21	<?xml version="1.0"?>\n<Clock xmlns:dt="urn:schemas-microsoft-com:datatypes"><Description dt:dt="string">E-Prime Primary Realtime Clock</Description><StartTime><Timestamp dt:dt="int">0</Timestamp><DateUtc dt:dt="string">2015-08-18T10:45:07Z</DateUtc></StartTime><FrequencyChanges><FrequencyChange><Frequency dt:dt="r8">2612294</Frequency><Timestamp dt:dt="r8">36532587688</Timestamp><Current dt:dt="r8">0</Current><DateUtc dt:dt="string">2015-08-18T10:45:07Z</DateUtc></FrequencyChange></FrequencyChanges></Clock>\n	1 ver1_main_procedure-35-1	99.938	1.0.0.880	1	MK	-2121624208	prawa	1	2.0.10.182	08-18-2015	2015-08-18 10:45:08	12:45:08	kobieta	2.0.10.92	4	1	1	2																							d	{SPACE}		no	BlockProc1		BlockList									2	Cued	d	color_purple.png		-1	5	572464	310																								25	prime_left.png	0	572023	0	0	13	0	572024	0	572023	0	572023	20	0	-1	570524	572023	572023	0		TrialProc1	left	0		0	11	572334	-572334		0	0	TrialList1	target_left.png	1	d	-1	3	572073	261	d	385	572458												1	1	2				comp			300
1 ver1_main_procedure	35	1	21	<?xml version="1.0"?>\n<Clock xmlns:dt="urn:schemas-microsoft-com:datatypes"><Description dt:dt="string">E-Prime Primary Realtime Clock</Description><StartTime><Timestamp dt:dt="int">0</Timestamp><DateUtc dt:dt="string">2015-08-18T10:45:07Z</DateUtc></StartTime><FrequencyChanges><FrequencyChange><Frequency dt:dt="r8">2612294</Frequency><Timestamp dt:dt="r8">36532587688</Timestamp><Current dt:dt="r8">0</Current><DateUtc dt:dt="string">2015-08-18T10:45:07Z</DateUtc></FrequencyChange></FrequencyChanges></Clock>\n	1 ver1_main_procedure-35-1	99.938	1.0.0.880	1	MK	-2121624208	prawa	1	2.0.10.182	08-18-2015	2015-08-18 10:45:08	12:45:08	kobieta	2.0.10.92	4	1	1	2																							d	{SPACE}		no	BlockProc1		BlockList									3	Cued	d			-1	10	574885	460																								75	prime_right.png	0	574585	0	0	13	0	574585	0	574585	1	574585	20	0	-1	573086	574585	574584	0		TrialProc1	left	0		0	0	0	0		0	0	TrialList1	target_left.png	0	d	-999999	3	574635	0	l	239	574874												3	1	3				incomp			450
1 ver1_main_procedure	35	1	21	<?xml version="1.0"?>\n<Clock xmlns:dt="urn:schemas-microsoft-com:datatypes"><Description dt:dt="string">E-Prime Primary Realtime Clock</Description><StartTime><Timestamp dt:dt="int">0</Timestamp><DateUtc dt:dt="string">2015-08-18T10:45:07Z</DateUtc></StartTime><FrequencyChanges><FrequencyChange><Frequency dt:dt="r8">2612294</Frequency><Timestamp dt:dt="r8">36532587688</Timestamp><Current dt:dt="r8">0</Current><DateUtc dt:dt="string">2015-08-18T10:45:07Z</DateUtc></FrequencyChange></FrequencyChanges></Clock>\n	1 ver1_main_procedure-35-1	99.938	1.0.0.880	1	MK	-2121624208	prawa	1	2.0.10.182	08-18-2015	2015-08-18 10:45:08	12:45:08	kobieta	2.0.10.92	4	1	1	2																							d	{SPACE}		no	BlockProc1		BlockList									4	Cued	l	color_yellow.png		-1	6	577537	460																								25	prime_left.png	0	577156	0	0	13	1	577157	1	577157	0	577156	20	0	-1	575657	577156	577156	0		TrialProc1	right	0		0	11	577467	-577467		0	0	TrialList1	target_right.png	1	l	-1	3	577206	261	l	324	577530												6	1	4				incomp			450
1 ver1_main_procedure	35	1	21	<?xml version="1.0"?>\n<Clock xmlns:dt="urn:schemas-microsoft-com:datatypes"><Description dt:dt="string">E-Prime Primary Realtime Clock</Description><StartTime><Timestamp dt:dt="int">0</Timestamp><DateUtc dt:dt="string">2015-08-18T10:45:07Z</DateUtc></StartTime><FrequencyChanges><FrequencyChange><Frequency dt:dt="r8">2612294</Frequency><Timestamp dt:dt="r8">36532587688</Timestamp><Current dt:dt="r8">0</Current><DateUtc dt:dt="string">2015-08-18T10:45:07Z</DateUtc></FrequencyChange></FrequencyChanges></Clock>\n	1 ver1_main_procedure-35-1	99.938	1.0.0.880	1	MK	-2121624208	prawa	1	2.0.10.182	08-18-2015	2015-08-18 10:45:08	12:45:08	kobieta	2.0.10.92	4	1	1	2																							d	{SPACE}		no	BlockProc1		BlockList									5	Cued	l	color_red.png		-1	5	580208	461																								25	prime_right.png	0	579808	0	0	13	0	579808	0	579808	1	579808	20	0	-1	578309	579808	579807	0		TrialProc1	right	0		0	10	580118	-580118		0	0	TrialList1	target_right.png	1	l	-1	3	579858	260	l	344	580202												4	1	5				comp			450
1 ver1_main_procedure	35	1	21	<?xml version="1.0"?>\n<Clock xmlns:dt="urn:schemas-microsoft-com:datatypes"><Description dt:dt="string">E-Prime Primary Realtime Clock</Description><StartTime><Timestamp dt:dt="int">0</Timestamp><DateUtc dt:dt="string">2015-08-18T10:45:07Z</DateUtc></StartTime><FrequencyChanges><FrequencyChange><Frequency dt:dt="r8">2612294</Frequency><Timestamp dt:dt="r8">36532587688</Timestamp><Current dt:dt="r8">0</Current><DateUtc dt:dt="string">2015-08-18T10:45:07Z</DateUtc></FrequencyChange></FrequencyChanges></Clock>\n	1 ver1_main_procedure-35-1	99.938	1.0.0.880	1	MK	-2121624208	prawa	1	2.0.10.182	08-18-2015	2015-08-18 10:45:08	12:45:08	kobieta	2.0.10.92	4	1	1	2																							d	{SPACE}		no	BlockProc1		BlockList									6	Cued	l			-1	11	582830	460																								75	prime_right.png	0	582480	0	0	13	0	582480	0	582480	1	582480	20	0	-1	580983	582480	582479	0		TrialProc1	right	0		0	10	582790	-582790		0	0	TrialList1	target_right.png	0	l	-1	3	582530	260	d	288	582818												4	1	6				comp			450
1 ver1_main_procedure	35	1	21	<?xml version="1.0"?>\n<Clock xmlns:dt="urn:schemas-microsoft-com:datatypes"><Description dt:dt="string">E-Prime Primary Realtime Clock</Description><StartTime><Timestamp dt:dt="int">0</Timestamp><DateUtc dt:dt="string">2015-08-18T10:45:07Z</DateUtc></StartTime><FrequencyChanges><FrequencyChange><Frequency dt:dt="r8">2612294</Frequency><Timestamp dt:dt="r8">36532587688</Timestamp><Current dt:dt="r8">0</Current><DateUtc dt:dt="string">2015-08-18T10:45:07Z</DateUtc></FrequencyChange></FrequencyChanges></Clock>\n	1 ver1_main_procedure-35-1	99.938	1.0.0.880	1	MK	-2121624208	prawa	1	2.0.10.182	08-18-2015	2015-08-18 10:45:08	12:45:08	kobieta	2.0.10.92	4	1	1	2																							d	{SPACE}		no	BlockProc1		BlockList									7	Cued	d	color_green.png		-1	8	585571	161																								75	prime_right.png	0	585101	0	0	13	0	585101	0	585101	1	585101	20	0	-1	583602	585101	585100	0		TrialProc1	left	0		1	10	585411	-585411		0	0	TrialList1	target_left.png	1	d	-1	3	585151	260	d	411	585562												3	1	7				incomp			150
1 ver1_main_procedure	35	1	21	<?xml version="1.0"?>\n<Clock xmlns:dt="urn:schemas-microsoft-com:datatypes"><Description dt:dt="string">E-Prime Primary Realtime Clock</Description><StartTime><Timestamp dt:dt="int">0</Timestamp><DateUtc dt:dt="string">2015-08-18T10:45:07Z</DateUtc></StartTime><FrequencyChanges><FrequencyChange><Frequency dt:dt="r8">2612294</Frequency><Timestamp dt:dt="r8">36532587688</Timestamp><Current dt:dt="r8">0</Current><DateUtc dt:dt="string">2015-08-18T10:45:07Z</DateUtc></FrequencyChange></FrequencyChanges></Clock>\n	1 ver1_main_procedure-35-1	99.938	1.0.0.880	1	MK	-2121624208	prawa	1	2.0.10.182	08-18-2015	2015-08-18 10:45:08	12:45:08	kobieta	2.0.10.92	4	1	1	2																							d	{SPACE}		no	BlockProc1		BlockList									8	Cued	l	color_red.png		-1	6	587993	460																								25	prime_right.png	0	587543	0	0	13	0	587543	0	587543	1	587543	20	0	-1	586043	587543	587542	0		TrialProc1	right	0		0	10	587853	-587853		0	0	TrialList1	target_right.png	1	l	-1	3	587593	260	l	393	587986												4	1	8				comp			450
1 ver1_main_procedure	35	1	21	<?xml version="1.0"?>\n<Clock xmlns:dt="urn:schemas-microsoft-com:datatypes"><Description dt:dt="string">E-Prime Primary Realtime Clock</Description><StartTime><Timestamp dt:dt="int">0</Timestamp><DateUtc dt:dt="string">2015-08-18T10:45:07Z</DateUtc></StartTime><FrequencyChanges><FrequencyChange><Frequency dt:dt="r8">2612294</Frequency><Timestamp dt:dt="r8">36532587688</Timestamp><Current dt:dt="r8">0</Current><DateUtc dt:dt="string">2015-08-18T10:45:07Z</DateUtc></FrequencyChange></FrequencyChanges></Clock>\n	1 ver1_main_procedure-35-1	99.938	1.0.0.880	1	MK	-2121624208	prawa	1	2.0.10.182	08-18-2015	2015-08-18 10:45:08	12:45:08	kobieta	2.0.10.92	4	1	1	2																							d	{SPACE}		no	BlockProc1		BlockList									9	Cued	d	color_green.png		-1	12	590735	160																								75	prime_right.png	0	590264	0	0	13	0	590264	0	590264	1	590264	20	0	-1	588765	590264	590263	0		TrialProc1	left	0		1	10	590574	-590574		0	0	TrialList1	target_left.png	1	d	-1	3	590314	260	d	409	590723												3	1	9				incomp			150
