ExperimentName	Subject	Session	Age	Clock.Information	DataFile.Basename	Display.RefreshRate	ExperimentVersion	Group	Name	RandomSeed	Recznosc	ResearcherID	RuntimeVersion	SessionDate	SessionStartDateTimeUtc	SessionTime	Sex	StudioVersion	Block	BlockList	BlockList.Cycle	BlockList.Sample	BlockNumber	GoodBye.RESP	GoodBye2.RESP	GoodByeList	GoodByeList.Cycle	GoodByeList.Sample	InstrList	InstrList.Cycle	InstrList.Sample	Instructions3.RESP	Instructions4.RESP	Instructions5.RESP	kobieta_S1	kobieta_S2	kobieta_S3	kobieta_S4	kobieta_S5	mezczyzna_S1	mezczyzna_S2	mezczyzna_S3	mezczyzna_S4	mezczyzna_S5	NextBlock.RESP	NextBlock0.RESP	planowanie	PracticeMode	Procedure[Block]	proszenie	Running[Block]	TrainingList	TrainingList.Cycle	TrainingList.Sample	WordList	WordList1	wykonanie	zauwazenie	zrozumienie	Trial	ChoiceType	CorrectRespon	Effect	ErrorText	Fixation2.DurationError	Fixation2.OnsetDelay	Fixation2.OnsetTime	Fixation2.OnsetToOnsetTime	GoalRespInd1	GoalRespInd2	GoalRespInd3	GoalRespInd4	GoalRespInd5	GoalRespInd6	GoalRespName1	GoalRespName2	GoalRespName3	GoalRespName4	GoalRespName5	GoalRespName6	kol1	kol2	kol3	kol4	kol5	kol6	NeutralPrimeList1	Ocena	Ocena.Cycle	Ocena.Sample	OverallRT	Posit	Prime	Prime.ActionDelay	Prime.ActionTime	Prime.CustomOffsetTime	Prime.CustomOnsetTime	Prime.Duration	Prime.DurationError	Prime.FinishTime	Prime.OffsetDelay	Prime.OffsetTime	Prime.OnsetDelay	Prime.OnsetTime	Prime.OnsetToOnsetTime	Prime.PendingInputMasks	Prime.PreRelease	Prime.StartTime	Prime.TargetOffsetTime	Prime.TargetOnsetTime	Prime.TimingMode	PrimeChoice	Procedure[Trial]	Resp	RespWin.ACC	RespWin.CRESP	RespWin.DurationError	RespWin.OnsetDelay	RespWin.OnsetTime	RespWin.OnsetToOnsetTime	RespWin.RESP	RespWin.RT	RespWin.RTTime	Running[Trial]	Target	TargetSlide.ACC	TargetSlide.CRESP	TargetSlide.DurationError	TargetSlide.OnsetDelay	TargetSlide.OnsetTime	TargetSlide.OnsetToOnsetTime	TargetSlide.RESP	TargetSlide.RT	TargetSlide.RTTime	TargetTraining	TBox1	TBox2	TBox3	TBox4	TBox5	TBox6	TrainingList1	TrainingList1.Cycle	TrainingList1.Sample	TrCorrectResp	TrialList1	TrialList1.Cycle	TrialList1.Sample	TrialList2	TrialList2.Cycle	TrialList2.Sample	TrialType	TrPosit	TrWaitTime	WaitTime
1 ver1_main_procedure	36	1	26	<?xml version="1.0"?>\n<Clock xmlns:dt="urn:schemas-microsoft-com:datatypes"><Description dt:dt="string">E-Prime Primary Realtime Clock</Description><StartTime><Timestamp dt:dt="int">0</Timestamp><DateUtc dt:dt="string">2015-08-18T12:22:22Z</DateUtc></StartTime><FrequencyChanges><FrequencyChange><Frequency dt:dt="r8">2612294</Frequency><Timestamp dt:dt="r8">51772813157</Timestamp><Current dt:dt="r8">0</Current><DateUtc dt:dt="string">2015-08-18T12:22:22Z</DateUtc></FrequencyChange></FrequencyChanges></Clock>\n	1 ver1_main_procedure-36-1	99.938	1.0.0.880	2	pg	233536811	prawa	1	2.0.10.182	08-18-2015	2015-08-18 12:22:22	14:22:22	mezczyzna	2.0.10.92	1										1	1	1	{SPACE}	{SPACE}	l	poproszona	planowała	zrozumiałaś	wykonała		poproszony	planował	zrozumiałeś	wykonał				planował		InstrProc	poproszony	InstrList				1		wykonał		zrozumiałeś																																																																																																
1 ver1_main_procedure	36	1	26	<?xml version="1.0"?>\n<Clock xmlns:dt="urn:schemas-microsoft-com:datatypes"><Description dt:dt="string">E-Prime Primary Realtime Clock</Description><StartTime><Timestamp dt:dt="int">0</Timestamp><DateUtc dt:dt="string">2015-08-18T12:22:22Z</DateUtc></StartTime><FrequencyChanges><FrequencyChange><Frequency dt:dt="r8">2612294</Frequency><Timestamp dt:dt="r8">51772813157</Timestamp><Current dt:dt="r8">0</Current><DateUtc dt:dt="string">2015-08-18T12:22:22Z</DateUtc></FrequencyChange></FrequencyChanges></Clock>\n	1 ver1_main_procedure-36-1	99.938	1.0.0.880	2	pg	233536811	prawa	1	2.0.10.182	08-18-2015	2015-08-18 12:22:22	14:22:22	mezczyzna	2.0.10.92	2																														TrainingProc1		TrainingList	1	1	1						1																																																					TrainProc											TrainingList1											target_right.png							2	1	1	l								75	150	
1 ver1_main_procedure	36	1	26	<?xml version="1.0"?>\n<Clock xmlns:dt="urn:schemas-microsoft-com:datatypes"><Description dt:dt="string">E-Prime Primary Realtime Clock</Description><StartTime><Timestamp dt:dt="int">0</Timestamp><DateUtc dt:dt="string">2015-08-18T12:22:22Z</DateUtc></StartTime><FrequencyChanges><FrequencyChange><Frequency dt:dt="r8">2612294</Frequency><Timestamp dt:dt="r8">51772813157</Timestamp><Current dt:dt="r8">0</Current><DateUtc dt:dt="string">2015-08-18T12:22:22Z</DateUtc></FrequencyChange></FrequencyChanges></Clock>\n	1 ver1_main_procedure-36-1	99.938	1.0.0.880	2	pg	233536811	prawa	1	2.0.10.182	08-18-2015	2015-08-18 12:22:22	14:22:22	mezczyzna	2.0.10.92	2																														TrainingProc1		TrainingList	1	1	1						2																																																					TrainProc											TrainingList1											target_right.png							2	1	2	l								75	150	
1 ver1_main_procedure	36	1	26	<?xml version="1.0"?>\n<Clock xmlns:dt="urn:schemas-microsoft-com:datatypes"><Description dt:dt="string">E-Prime Primary Realtime Clock</Description><StartTime><Timestamp dt:dt="int">0</Timestamp><DateUtc dt:dt="string">2015-08-18T12:22:22Z</DateUtc></StartTime><FrequencyChanges><FrequencyChange><Frequency dt:dt="r8">2612294</Frequency><Timestamp dt:dt="r8">51772813157</Timestamp><Current dt:dt="r8">0</Current><DateUtc dt:dt="string">2015-08-18T12:22:22Z</DateUtc></FrequencyChange></FrequencyChanges></Clock>\n	1 ver1_main_procedure-36-1	99.938	1.0.0.880	2	pg	233536811	prawa	1	2.0.10.182	08-18-2015	2015-08-18 12:22:22	14:22:22	mezczyzna	2.0.10.92	2																														TrainingProc1		TrainingList	1	1	1						3																																																					TrainProc											TrainingList1											target_left.png							1	1	3	d								25	300	
1 ver1_main_procedure	36	1	26	<?xml version="1.0"?>\n<Clock xmlns:dt="urn:schemas-microsoft-com:datatypes"><Description dt:dt="string">E-Prime Primary Realtime Clock</Description><StartTime><Timestamp dt:dt="int">0</Timestamp><DateUtc dt:dt="string">2015-08-18T12:22:22Z</DateUtc></StartTime><FrequencyChanges><FrequencyChange><Frequency dt:dt="r8">2612294</Frequency><Timestamp dt:dt="r8">51772813157</Timestamp><Current dt:dt="r8">0</Current><DateUtc dt:dt="string">2015-08-18T12:22:22Z</DateUtc></FrequencyChange></FrequencyChanges></Clock>\n	1 ver1_main_procedure-36-1	99.938	1.0.0.880	2	pg	233536811	prawa	1	2.0.10.182	08-18-2015	2015-08-18 12:22:22	14:22:22	mezczyzna	2.0.10.92	2																														TrainingProc1		TrainingList	1	1	1						4																																																					TrainProc											TrainingList1											target_both.png							3	1	4	dl								25	150	
1 ver1_main_procedure	36	1	26	<?xml version="1.0"?>\n<Clock xmlns:dt="urn:schemas-microsoft-com:datatypes"><Description dt:dt="string">E-Prime Primary Realtime Clock</Description><StartTime><Timestamp dt:dt="int">0</Timestamp><DateUtc dt:dt="string">2015-08-18T12:22:22Z</DateUtc></StartTime><FrequencyChanges><FrequencyChange><Frequency dt:dt="r8">2612294</Frequency><Timestamp dt:dt="r8">51772813157</Timestamp><Current dt:dt="r8">0</Current><DateUtc dt:dt="string">2015-08-18T12:22:22Z</DateUtc></FrequencyChange></FrequencyChanges></Clock>\n	1 ver1_main_procedure-36-1	99.938	1.0.0.880	2	pg	233536811	prawa	1	2.0.10.182	08-18-2015	2015-08-18 12:22:22	14:22:22	mezczyzna	2.0.10.92	2																														TrainingProc1		TrainingList	1	1	1						5																																																					TrainProc											TrainingList1											target_right.png							2	1	5	l								75	150	
1 ver1_main_procedure	36	1	26	<?xml version="1.0"?>\n<Clock xmlns:dt="urn:schemas-microsoft-com:datatypes"><Description dt:dt="string">E-Prime Primary Realtime Clock</Description><StartTime><Timestamp dt:dt="int">0</Timestamp><DateUtc dt:dt="string">2015-08-18T12:22:22Z</DateUtc></StartTime><FrequencyChanges><FrequencyChange><Frequency dt:dt="r8">2612294</Frequency><Timestamp dt:dt="r8">51772813157</Timestamp><Current dt:dt="r8">0</Current><DateUtc dt:dt="string">2015-08-18T12:22:22Z</DateUtc></FrequencyChange></FrequencyChanges></Clock>\n	1 ver1_main_procedure-36-1	99.938	1.0.0.880	2	pg	233536811	prawa	1	2.0.10.182	08-18-2015	2015-08-18 12:22:22	14:22:22	mezczyzna	2.0.10.92	2																														TrainingProc1		TrainingList	1	1	1						6																																																					TrainProc											TrainingList1											target_left.png							1	1	6	d								75	450	
1 ver1_main_procedure	36	1	26	<?xml version="1.0"?>\n<Clock xmlns:dt="urn:schemas-microsoft-com:datatypes"><Description dt:dt="string">E-Prime Primary Realtime Clock</Description><StartTime><Timestamp dt:dt="int">0</Timestamp><DateUtc dt:dt="string">2015-08-18T12:22:22Z</DateUtc></StartTime><FrequencyChanges><FrequencyChange><Frequency dt:dt="r8">2612294</Frequency><Timestamp dt:dt="r8">51772813157</Timestamp><Current dt:dt="r8">0</Current><DateUtc dt:dt="string">2015-08-18T12:22:22Z</DateUtc></FrequencyChange></FrequencyChanges></Clock>\n	1 ver1_main_procedure-36-1	99.938	1.0.0.880	2	pg	233536811	prawa	1	2.0.10.182	08-18-2015	2015-08-18 12:22:22	14:22:22	mezczyzna	2.0.10.92	2																														TrainingProc1		TrainingList	1	1	1						7																																																					TrainProc											TrainingList1											target_both.png							3	1	7	dl								75	150	
1 ver1_main_procedure	36	1	26	<?xml version="1.0"?>\n<Clock xmlns:dt="urn:schemas-microsoft-com:datatypes"><Description dt:dt="string">E-Prime Primary Realtime Clock</Description><StartTime><Timestamp dt:dt="int">0</Timestamp><DateUtc dt:dt="string">2015-08-18T12:22:22Z</DateUtc></StartTime><FrequencyChanges><FrequencyChange><Frequency dt:dt="r8">2612294</Frequency><Timestamp dt:dt="r8">51772813157</Timestamp><Current dt:dt="r8">0</Current><DateUtc dt:dt="string">2015-08-18T12:22:22Z</DateUtc></FrequencyChange></FrequencyChanges></Clock>\n	1 ver1_main_procedure-36-1	99.938	1.0.0.880	2	pg	233536811	prawa	1	2.0.10.182	08-18-2015	2015-08-18 12:22:22	14:22:22	mezczyzna	2.0.10.92	2																														TrainingProc1		TrainingList	1	1	1						8																																																					TrainProc											TrainingList1											target_both.png							3	1	8	dl								25	150	
1 ver1_main_procedure	36	1	26	<?xml version="1.0"?>\n<Clock xmlns:dt="urn:schemas-microsoft-com:datatypes"><Description dt:dt="string">E-Prime Primary Realtime Clock</Description><StartTime><Timestamp dt:dt="int">0</Timestamp><DateUtc dt:dt="string">2015-08-18T12:22:22Z</DateUtc></StartTime><FrequencyChanges><FrequencyChange><Frequency dt:dt="r8">2612294</Frequency><Timestamp dt:dt="r8">51772813157</Timestamp><Current dt:dt="r8">0</Current><DateUtc dt:dt="string">2015-08-18T12:22:22Z</DateUtc></FrequencyChange></FrequencyChanges></Clock>\n	1 ver1_main_procedure-36-1	99.938	1.0.0.880	2	pg	233536811	prawa	1	2.0.10.182	08-18-2015	2015-08-18 12:22:22	14:22:22	mezczyzna	2.0.10.92	2																														TrainingProc1		TrainingList	1	1	1						9																																																					TrainProc											TrainingList1											target_left.png							1	1	9	d								75	150	
1 ver1_main_procedure	36	1	26	<?xml version="1.0"?>\n<Clock xmlns:dt="urn:schemas-microsoft-com:datatypes"><Description dt:dt="string">E-Prime Primary Realtime Clock</Description><StartTime><Timestamp dt:dt="int">0</Timestamp><DateUtc dt:dt="string">2015-08-18T12:22:22Z</DateUtc></StartTime><FrequencyChanges><FrequencyChange><Frequency dt:dt="r8">2612294</Frequency><Timestamp dt:dt="r8">51772813157</Timestamp><Current dt:dt="r8">0</Current><DateUtc dt:dt="string">2015-08-18T12:22:22Z</DateUtc></FrequencyChange></FrequencyChanges></Clock>\n	1 ver1_main_procedure-36-1	99.938	1.0.0.880	2	pg	233536811	prawa	1	2.0.10.182	08-18-2015	2015-08-18 12:22:22	14:22:22	mezczyzna	2.0.10.92	3	3	1	1																							l	{SPACE}		no	BlockProc1		BlockList									1	Cued	d	color_blue.png		-1	15	156293	310																								75	prime_left.png	0	155463	0	0	13	0	155463	0	155463	1	155463	20	0	-1	153964	155463	155462	0		TrialProc1	left	0		0	20	155783	-155783		0	0	TrialList1	target_left.png	1	d	-1	3	155513	270	d	764	156277												1	1	1				comp			300
1 ver1_main_procedure	36	1	26	<?xml version="1.0"?>\n<Clock xmlns:dt="urn:schemas-microsoft-com:datatypes"><Description dt:dt="string">E-Prime Primary Realtime Clock</Description><StartTime><Timestamp dt:dt="int">0</Timestamp><DateUtc dt:dt="string">2015-08-18T12:22:22Z</DateUtc></StartTime><FrequencyChanges><FrequencyChange><Frequency dt:dt="r8">2612294</Frequency><Timestamp dt:dt="r8">51772813157</Timestamp><Current dt:dt="r8">0</Current><DateUtc dt:dt="string">2015-08-18T12:22:22Z</DateUtc></FrequencyChange></FrequencyChanges></Clock>\n	1 ver1_main_procedure-36-1	99.938	1.0.0.880	2	pg	233536811	prawa	1	2.0.10.182	08-18-2015	2015-08-18 12:22:22	14:22:22	mezczyzna	2.0.10.92	3	3	1	1																							l	{SPACE}		no	BlockProc1		BlockList									2	Cued	d	color_blue.png		-1	10	159135	310																								25	prime_left.png	1	158415	0	0	13	1	158415	1	158415	0	158414	20	0	-1	156915	158414	158414	0		TrialProc1	left	0		0	11	158725	-158725		0	0	TrialList1	target_left.png	1	d	-1	3	158464	261	d	661	159125												1	1	2				comp			300
1 ver1_main_procedure	36	1	26	<?xml version="1.0"?>\n<Clock xmlns:dt="urn:schemas-microsoft-com:datatypes"><Description dt:dt="string">E-Prime Primary Realtime Clock</Description><StartTime><Timestamp dt:dt="int">0</Timestamp><DateUtc dt:dt="string">2015-08-18T12:22:22Z</DateUtc></StartTime><FrequencyChanges><FrequencyChange><Frequency dt:dt="r8">2612294</Frequency><Timestamp dt:dt="r8">51772813157</Timestamp><Current dt:dt="r8">0</Current><DateUtc dt:dt="string">2015-08-18T12:22:22Z</DateUtc></FrequencyChange></FrequencyChanges></Clock>\n	1 ver1_main_procedure-36-1	99.938	1.0.0.880	2	pg	233536811	prawa	1	2.0.10.182	08-18-2015	2015-08-18 12:22:22	14:22:22	mezczyzna	2.0.10.92	3	3	1	1																							l	{SPACE}		no	BlockProc1		BlockList									3	Cued	l	color_orange.png		-1	9	161847	460																								25	prime_left.png	0	161256	0	0	13	0	161256	0	161256	1	161256	20	0	-1	159757	161256	161255	0		TrialProc1	right	0		0	10	161566	-161566		0	0	TrialList1	target_right.png	1	l	-1	3	161306	260	l	531	161837												6	1	3				incomp			450
1 ver1_main_procedure	36	1	26	<?xml version="1.0"?>\n<Clock xmlns:dt="urn:schemas-microsoft-com:datatypes"><Description dt:dt="string">E-Prime Primary Realtime Clock</Description><StartTime><Timestamp dt:dt="int">0</Timestamp><DateUtc dt:dt="string">2015-08-18T12:22:22Z</DateUtc></StartTime><FrequencyChanges><FrequencyChange><Frequency dt:dt="r8">2612294</Frequency><Timestamp dt:dt="r8">51772813157</Timestamp><Current dt:dt="r8">0</Current><DateUtc dt:dt="string">2015-08-18T12:22:22Z</DateUtc></FrequencyChange></FrequencyChanges></Clock>\n	1 ver1_main_procedure-36-1	99.938	1.0.0.880	2	pg	233536811	prawa	1	2.0.10.182	08-18-2015	2015-08-18 12:22:22	14:22:22	mezczyzna	2.0.10.92	3	3	1	1																							l	{SPACE}		no	BlockProc1		BlockList									4	Cued	l	color_orange.png		-1	8	164798	310																								25	prime_left.png	0	164118	0	0	13	0	164118	0	164118	1	164118	20	0	-1	162619	164118	164117	0		TrialProc1	right	0		0	10	164428	-164428		0	0	TrialList1	target_right.png	1	l	-1	3	164168	260	l	621	164789												6	1	4				incomp			300
1 ver1_main_procedure	36	1	26	<?xml version="1.0"?>\n<Clock xmlns:dt="urn:schemas-microsoft-com:datatypes"><Description dt:dt="string">E-Prime Primary Realtime Clock</Description><StartTime><Timestamp dt:dt="int">0</Timestamp><DateUtc dt:dt="string">2015-08-18T12:22:22Z</DateUtc></StartTime><FrequencyChanges><FrequencyChange><Frequency dt:dt="r8">2612294</Frequency><Timestamp dt:dt="r8">51772813157</Timestamp><Current dt:dt="r8">0</Current><DateUtc dt:dt="string">2015-08-18T12:22:22Z</DateUtc></FrequencyChange></FrequencyChanges></Clock>\n	1 ver1_main_procedure-36-1	99.938	1.0.0.880	2	pg	233536811	prawa	1	2.0.10.182	08-18-2015	2015-08-18 12:22:22	14:22:22	mezczyzna	2.0.10.92	3	3	1	1																							l	{SPACE}		no	BlockProc1		BlockList									5	Free	dl	color_yellow.png		-1	6	167580	310																								75	prime_right.png	0	166920	0	0	13	0	166920	0	166920	1	166920	20	0	-1	165420	166920	166919	0		TrialProc1	right	0		0	10	167230	-167230		0	0	TrialList1	target_both.png	0	dl	-1	3	166970	260	l	603	167573												10	1	5				comp			300
1 ver1_main_procedure	36	1	26	<?xml version="1.0"?>\n<Clock xmlns:dt="urn:schemas-microsoft-com:datatypes"><Description dt:dt="string">E-Prime Primary Realtime Clock</Description><StartTime><Timestamp dt:dt="int">0</Timestamp><DateUtc dt:dt="string">2015-08-18T12:22:22Z</DateUtc></StartTime><FrequencyChanges><FrequencyChange><Frequency dt:dt="r8">2612294</Frequency><Timestamp dt:dt="r8">51772813157</Timestamp><Current dt:dt="r8">0</Current><DateUtc dt:dt="string">2015-08-18T12:22:22Z</DateUtc></FrequencyChange></FrequencyChanges></Clock>\n	1 ver1_main_procedure-36-1	99.938	1.0.0.880	2	pg	233536811	prawa	1	2.0.10.182	08-18-2015	2015-08-18 12:22:22	14:22:22	mezczyzna	2.0.10.92	3	3	1	1																							l	{SPACE}		no	BlockProc1		BlockList									6	Cued	d	color_blue.png		-1	8	170502	310																								25	prime_left.png	0	169701	0	0	13	0	169701	0	169701	1	169701	20	0	-1	168202	169701	169700	0		TrialProc1	left	0		1	10	170011	-170011		0	0	TrialList1	target_left.png	1	d	-1	3	169751	260	d	742	170493												1	1	6				comp			300
1 ver1_main_procedure	36	1	26	<?xml version="1.0"?>\n<Clock xmlns:dt="urn:schemas-microsoft-com:datatypes"><Description dt:dt="string">E-Prime Primary Realtime Clock</Description><StartTime><Timestamp dt:dt="int">0</Timestamp><DateUtc dt:dt="string">2015-08-18T12:22:22Z</DateUtc></StartTime><FrequencyChanges><FrequencyChange><Frequency dt:dt="r8">2612294</Frequency><Timestamp dt:dt="r8">51772813157</Timestamp><Current dt:dt="r8">0</Current><DateUtc dt:dt="string">2015-08-18T12:22:22Z</DateUtc></FrequencyChange></FrequencyChanges></Clock>\n	1 ver1_main_procedure-36-1	99.938	1.0.0.880	2	pg	233536811	prawa	1	2.0.10.182	08-18-2015	2015-08-18 12:22:22	14:22:22	mezczyzna	2.0.10.92	3	3	1	1																							l	{SPACE}		no	BlockProc1		BlockList									7	Free	dl	color_blue.png		-1	14	173373	311																								25	prime_left.png	0	172623	0	0	13	0	172623	0	172623	1	172623	20	0	-1	171124	172623	172622	0		TrialProc1	right	0		0	10	172933	-172933		0	0	TrialList1	target_both.png	0	dl	-1	3	172673	260	d	685	173358												12	1	7				incomp			300
1 ver1_main_procedure	36	1	26	<?xml version="1.0"?>\n<Clock xmlns:dt="urn:schemas-microsoft-com:datatypes"><Description dt:dt="string">E-Prime Primary Realtime Clock</Description><StartTime><Timestamp dt:dt="int">0</Timestamp><DateUtc dt:dt="string">2015-08-18T12:22:22Z</DateUtc></StartTime><FrequencyChanges><FrequencyChange><Frequency dt:dt="r8">2612294</Frequency><Timestamp dt:dt="r8">51772813157</Timestamp><Current dt:dt="r8">0</Current><DateUtc dt:dt="string">2015-08-18T12:22:22Z</DateUtc></FrequencyChange></FrequencyChanges></Clock>\n	1 ver1_main_procedure-36-1	99.938	1.0.0.880	2	pg	233536811	prawa	1	2.0.10.182	08-18-2015	2015-08-18 12:22:22	14:22:22	mezczyzna	2.0.10.92	3	3	1	1																							l	{SPACE}		no	BlockProc1		BlockList									8	Free	dl	color_orange.png		-1	13	176395	311																								25	prime_left.png	0	175495	0	0	13	0	175495	0	175495	1	175495	20	0	-1	173996	175495	175494	0		TrialProc1	right	0		0	10	175805	-175805		0	0	TrialList1	target_both.png	0	dl	-1	3	175545	260	l	836	176381												12	1	8				incomp			300
1 ver1_main_procedure	36	1	26	<?xml version="1.0"?>\n<Clock xmlns:dt="urn:schemas-microsoft-com:datatypes"><Description dt:dt="string">E-Prime Primary Realtime Clock</Description><StartTime><Timestamp dt:dt="int">0</Timestamp><DateUtc dt:dt="string">2015-08-18T12:22:22Z</DateUtc></StartTime><FrequencyChanges><FrequencyChange><Frequency dt:dt="r8">2612294</Frequency><Timestamp dt:dt="r8">51772813157</Timestamp><Current dt:dt="r8">0</Current><DateUtc dt:dt="string">2015-08-18T12:22:22Z</DateUtc></FrequencyChange></FrequencyChanges></Clock>\n	1 ver1_main_procedure-36-1	99.938	1.0.0.880	2	pg	233536811	prawa	1	2.0.10.182	08-18-2015	2015-08-18 12:22:22	14:22:22	mezczyzna	2.0.10.92	3	3	1	1																							l	{SPACE}		no	BlockProc1		BlockList									9	Cued	l	color_red.png		-1	11	178977	460																			2					75	prime_right.png	1	178517	0	0	13	1	178517	1	178517	0	178516	21	0	-1	177017	178516	178516	0	prime_right.png	TrialProc1	right	0		0	10	178827	-178827		0	0	TrialList1	target_right.png	1	l	-1	3	178567	260	l	398	178965												5	1	9				neut			450
1 ver1_main_procedure	36	1	26	<?xml version="1.0"?>\n<Clock xmlns:dt="urn:schemas-microsoft-com:datatypes"><Description dt:dt="string">E-Prime Primary Realtime Clock</Description><StartTime><Timestamp dt:dt="int">0</Timestamp><DateUtc dt:dt="string">2015-08-18T12:22:22Z</DateUtc></StartTime><FrequencyChanges><FrequencyChange><Frequency dt:dt="r8">2612294</Frequency><Timestamp dt:dt="r8">51772813157</Timestamp><Current dt:dt="r8">0</Current><DateUtc dt:dt="string">2015-08-18T12:22:22Z</DateUtc></FrequencyChange></FrequencyChanges></Clock>\n	1 ver1_main_procedure-36-1	99.938	1.0.0.880	2	pg	233536811	prawa	1	2.0.10.182	08-18-2015	2015-08-18 12:22:22	14:22:22	mezczyzna	2.0.10.92	3	3	1	1																							l	{SPACE}		no	BlockProc1		BlockList									10	Cued	l	color_yellow.png		-1	13	181899	160																								75	prime_right.png	0	181248	0	0	13	0	181248	0	181248	1	181248	20	0	-1	179749	181248	181247	0		TrialProc1	right	0		1	10	181558	-181558		0	0	TrialList1	target_right.png	1	l	-1	3	181298	260	l	587	181885												4	1	10				comp			150
1 ver1_main_procedure	36	1	26	<?xml version="1.0"?>\n<Clock xmlns:dt="urn:schemas-microsoft-com:datatypes"><Description dt:dt="string">E-Prime Primary Realtime Clock</Description><StartTime><Timestamp dt:dt="int">0</Timestamp><DateUtc dt:dt="string">2015-08-18T12:22:22Z</DateUtc></StartTime><FrequencyChanges><FrequencyChange><Frequency dt:dt="r8">2612294</Frequency><Timestamp dt:dt="r8">51772813157</Timestamp><Current dt:dt="r8">0</Current><DateUtc dt:dt="string">2015-08-18T12:22:22Z</DateUtc></FrequencyChange></FrequencyChanges></Clock>\n	1 ver1_main_procedure-36-1	99.938	1.0.0.880	2	pg	233536811	prawa	1	2.0.10.182	08-18-2015	2015-08-18 12:22:22	14:22:22	mezczyzna	2.0.10.92	3	3	1	1																							l	{SPACE}		no	BlockProc1		BlockList									11	Cued	d	color_green.png		-1	10	184480	460																			1					75	prime_left.png	0	183870	0	0	13	0	183870	0	183870	1	183870	20	0	-1	182371	183870	183869	0	prime_left.png	TrialProc1	left	0		0	10	184180	-184180		0	0	TrialList1	target_left.png	1	d	-1	3	183920	260	d	549	184469												2	1	11				neut			450
1 ver1_main_procedure	36	1	26	<?xml version="1.0"?>\n<Clock xmlns:dt="urn:schemas-microsoft-com:datatypes"><Description dt:dt="string">E-Prime Primary Realtime Clock</Description><StartTime><Timestamp dt:dt="int">0</Timestamp><DateUtc dt:dt="string">2015-08-18T12:22:22Z</DateUtc></StartTime><FrequencyChanges><FrequencyChange><Frequency dt:dt="r8">2612294</Frequency><Timestamp dt:dt="r8">51772813157</Timestamp><Current dt:dt="r8">0</Current><DateUtc dt:dt="string">2015-08-18T12:22:22Z</DateUtc></FrequencyChange></FrequencyChanges></Clock>\n	1 ver1_main_procedure-36-1	99.938	1.0.0.880	2	pg	233536811	prawa	1	2.0.10.182	08-18-2015	2015-08-18 12:22:22	14:22:22	mezczyzna	2.0.10.92	3	3	1	1																							l	{SPACE}		no	BlockProc1		BlockList									12	Cued	l	color_red.png		-1	8	187382	310																			2					75	prime_right.png	1	186752	0	0	13	1	186752	1	186752	0	186751	20	0	-1	185252	186751	186751	0	prime_right.png	TrialProc1	right	0		0	11	187062	-187062		0	0	TrialList1	target_right.png	1	l	-1	3	186801	261	l	572	187373												5	1	12				neut			300
1 ver1_main_procedure	36	1	26	<?xml version="1.0"?>\n<Clock xmlns:dt="urn:schemas-microsoft-com:datatypes"><Description dt:dt="string">E-Prime Primary Realtime Clock</Description><StartTime><Timestamp dt:dt="int">0</Timestamp><DateUtc dt:dt="string">2015-08-18T12:22:22Z</DateUtc></StartTime><FrequencyChanges><FrequencyChange><Frequency dt:dt="r8">2612294</Frequency><Timestamp dt:dt="r8">51772813157</Timestamp><Current dt:dt="r8">0</Current><DateUtc dt:dt="string">2015-08-18T12:22:22Z</DateUtc></FrequencyChange></FrequencyChanges></Clock>\n	1 ver1_main_procedure-36-1	99.938	1.0.0.880	2	pg	233536811	prawa	1	2.0.10.182	08-18-2015	2015-08-18 12:22:22	14:22:22	mezczyzna	2.0.10.92	3	3	1	1																							l	{SPACE}		no	BlockProc1		BlockList									13	Free	dl	color_purple.png		-1	8	190374	310																								75	prime_right.png	0	189503	0	0	13	0	189503	0	189503	1	189503	20	0	-1	188004	189503	189502	0		TrialProc1	right	0		0	10	189813	-189813		0	0	TrialList1	target_both.png	0	dl	-1	3	189553	260	d	813	190366												10	1	13				comp			300
1 ver1_main_procedure	36	1	26	<?xml version="1.0"?>\n<Clock xmlns:dt="urn:schemas-microsoft-com:datatypes"><Description dt:dt="string">E-Prime Primary Realtime Clock</Description><StartTime><Timestamp dt:dt="int">0</Timestamp><DateUtc dt:dt="string">2015-08-18T12:22:22Z</DateUtc></StartTime><FrequencyChanges><FrequencyChange><Frequency dt:dt="r8">2612294</Frequency><Timestamp dt:dt="r8">51772813157</Timestamp><Current dt:dt="r8">0</Current><DateUtc dt:dt="string">2015-08-18T12:22:22Z</DateUtc></FrequencyChange></FrequencyChanges></Clock>\n	1 ver1_main_procedure-36-1	99.938	1.0.0.880	2	pg	233536811	prawa	1	2.0.10.182	08-18-2015	2015-08-18 12:22:22	14:22:22	mezczyzna	2.0.10.92	3	3	1	1																							l	{SPACE}		no	BlockProc1		BlockList									14	Cued	d	color_purple.png		-1	5	193435	311																								75	prime_right.png	0	192495	0	0	13	0	192495	0	192495	1	192495	20	0	-1	190996	192495	192494	0		TrialProc1	left	0		0	10	192805	-192805		0	0	TrialList1	target_left.png	1	d	-1	3	192545	260	d	885	193430												3	1	14				incomp			300
1 ver1_main_procedure	36	1	26	<?xml version="1.0"?>\n<Clock xmlns:dt="urn:schemas-microsoft-com:datatypes"><Description dt:dt="string">E-Prime Primary Realtime Clock</Description><StartTime><Timestamp dt:dt="int">0</Timestamp><DateUtc dt:dt="string">2015-08-18T12:22:22Z</DateUtc></StartTime><FrequencyChanges><FrequencyChange><Frequency dt:dt="r8">2612294</Frequency><Timestamp dt:dt="r8">51772813157</Timestamp><Current dt:dt="r8">0</Current><DateUtc dt:dt="string">2015-08-18T12:22:22Z</DateUtc></FrequencyChange></FrequencyChanges></Clock>\n	1 ver1_main_procedure-36-1	99.938	1.0.0.880	2	pg	233536811	prawa	1	2.0.10.182	08-18-2015	2015-08-18 12:22:22	14:22:22	mezczyzna	2.0.10.92	3	3	1	1																							l	{SPACE}		no	BlockProc1		BlockList									15	Cued	l	color_yellow.png		-1	9	196167	310																								75	prime_right.png	0	195557	0	0	13	0	195557	0	195557	1	195557	20	0	-1	194057	195557	195556	0		TrialProc1	right	0		0	10	195867	-195867		0	0	TrialList1	target_right.png	1	l	-1	3	195607	260	l	551	196158												4	1	15				comp			300
1 ver1_main_procedure	36	1	26	<?xml version="1.0"?>\n<Clock xmlns:dt="urn:schemas-microsoft-com:datatypes"><Description dt:dt="string">E-Prime Primary Realtime Clock</Description><StartTime><Timestamp dt:dt="int">0</Timestamp><DateUtc dt:dt="string">2015-08-18T12:22:22Z</DateUtc></StartTime><FrequencyChanges><FrequencyChange><Frequency dt:dt="r8">2612294</Frequency><Timestamp dt:dt="r8">51772813157</Timestamp><Current dt:dt="r8">0</Current><DateUtc dt:dt="string">2015-08-18T12:22:22Z</DateUtc></FrequencyChange></FrequencyChanges></Clock>\n	1 ver1_main_procedure-36-1	99.938	1.0.0.880	2	pg	233536811	prawa	1	2.0.10.182	08-18-2015	2015-08-18 12:22:22	14:22:22	mezczyzna	2.0.10.92	3	3	1	1																							l	{SPACE}		no	BlockProc1		BlockList									16	Free	dl	color_yellow.png		-1	7	198949	160																								75	prime_right.png	0	198288	0	0	13	0	198288	0	198288	0	198288	20	0	-1	196789	198288	198288	0		TrialProc1	left	0		0	11	198599	-198599		0	0	TrialList1	target_both.png	0	dl	-1	3	198338	261	l	604	198942												9	1	16				incomp			150
1 ver1_main_procedure	36	1	26	<?xml version="1.0"?>\n<Clock xmlns:dt="urn:schemas-microsoft-com:datatypes"><Description dt:dt="string">E-Prime Primary Realtime Clock</Description><StartTime><Timestamp dt:dt="int">0</Timestamp><DateUtc dt:dt="string">2015-08-18T12:22:22Z</DateUtc></StartTime><FrequencyChanges><FrequencyChange><Frequency dt:dt="r8">2612294</Frequency><Timestamp dt:dt="r8">51772813157</Timestamp><Current dt:dt="r8">0</Current><DateUtc dt:dt="string">2015-08-18T12:22:22Z</DateUtc></FrequencyChange></FrequencyChanges></Clock>\n	1 ver1_main_procedure-36-1	99.938	1.0.0.880	2	pg	233536811	prawa	1	2.0.10.182	08-18-2015	2015-08-18 12:22:22	14:22:22	mezczyzna	2.0.10.92	3	3	1	1																							l	{SPACE}		no	BlockProc1		BlockList									17	Free	dl	color_orange.png		-1	11	201490	160																								75	prime_left.png	0	200920	0	0	13	0	200920	0	200920	1	200920	20	0	-1	199421	200920	200919	0		TrialProc1	left	0		0	10	201230	-201230		0	0	TrialList1	target_both.png	0	dl	-1	3	200970	260	l	508	201478												7	1	17				comp			150
1 ver1_main_procedure	36	1	26	<?xml version="1.0"?>\n<Clock xmlns:dt="urn:schemas-microsoft-com:datatypes"><Description dt:dt="string">E-Prime Primary Realtime Clock</Description><StartTime><Timestamp dt:dt="int">0</Timestamp><DateUtc dt:dt="string">2015-08-18T12:22:22Z</DateUtc></StartTime><FrequencyChanges><FrequencyChange><Frequency dt:dt="r8">2612294</Frequency><Timestamp dt:dt="r8">51772813157</Timestamp><Current dt:dt="r8">0</Current><DateUtc dt:dt="string">2015-08-18T12:22:22Z</DateUtc></FrequencyChange></FrequencyChanges></Clock>\n	1 ver1_main_procedure-36-1	99.938	1.0.0.880	2	pg	233536811	prawa	1	2.0.10.182	08-18-2015	2015-08-18 12:22:22	14:22:22	mezczyzna	2.0.10.92	3	3	1	1																							l	{SPACE}		no	BlockProc1		BlockList									18	Free	dl	color_yellow.png		-1	8	204062	310																								25	prime_right.png	1	203462	0	0	13	1	203462	1	203462	0	203461	20	0	-1	201962	203461	203461	0		TrialProc1	right	0		0	11	203772	-203772		0	0	TrialList1	target_both.png	0	dl	-1	3	203511	261	l	543	204054												10	1	18				comp			300
1 ver1_main_procedure	36	1	26	<?xml version="1.0"?>\n<Clock xmlns:dt="urn:schemas-microsoft-com:datatypes"><Description dt:dt="string">E-Prime Primary Realtime Clock</Description><StartTime><Timestamp dt:dt="int">0</Timestamp><DateUtc dt:dt="string">2015-08-18T12:22:22Z</DateUtc></StartTime><FrequencyChanges><FrequencyChange><Frequency dt:dt="r8">2612294</Frequency><Timestamp dt:dt="r8">51772813157</Timestamp><Current dt:dt="r8">0</Current><DateUtc dt:dt="string">2015-08-18T12:22:22Z</DateUtc></FrequencyChange></FrequencyChanges></Clock>\n	1 ver1_main_procedure-36-1	99.938	1.0.0.880	2	pg	233536811	prawa	1	2.0.10.182	08-18-2015	2015-08-18 12:22:22	14:22:22	mezczyzna	2.0.10.92	3	3	1	1																							l	{SPACE}		no	BlockProc1		BlockList									19	Cued	d	color_blue.png		-1	5	207084	160																								75	prime_left.png	0	206183	0	0	13	0	206183	0	206183	1	206183	20	0	-1	204684	206183	206182	0		TrialProc1	left	0		0	10	206493	-206493		0	0	TrialList1	target_left.png	1	d	-1	3	206233	260	d	845	207078												1	1	19				comp			150
1 ver1_main_procedure	36	1	26	<?xml version="1.0"?>\n<Clock xmlns:dt="urn:schemas-microsoft-com:datatypes"><Description dt:dt="string">E-Prime Primary Realtime Clock</Description><StartTime><Timestamp dt:dt="int">0</Timestamp><DateUtc dt:dt="string">2015-08-18T12:22:22Z</DateUtc></StartTime><FrequencyChanges><FrequencyChange><Frequency dt:dt="r8">2612294</Frequency><Timestamp dt:dt="r8">51772813157</Timestamp><Current dt:dt="r8">0</Current><DateUtc dt:dt="string">2015-08-18T12:22:22Z</DateUtc></FrequencyChange></FrequencyChanges></Clock>\n	1 ver1_main_procedure-36-1	99.938	1.0.0.880	2	pg	233536811	prawa	1	2.0.10.182	08-18-2015	2015-08-18 12:22:22	14:22:22	mezczyzna	2.0.10.92	3	3	1	1																							l	{SPACE}		no	BlockProc1		BlockList									20	Cued	d	color_blue.png		-1	14	209725	310																								75	prime_left.png	0	209055	0	0	13	0	209055	0	209055	1	209055	20	0	-1	207556	209055	209054	0		TrialProc1	left	0		0	10	209365	-209365		0	0	TrialList1	target_left.png	1	d	-1	3	209105	260	d	605	209710												1	1	20				comp			300
1 ver1_main_procedure	36	1	26	<?xml version="1.0"?>\n<Clock xmlns:dt="urn:schemas-microsoft-com:datatypes"><Description dt:dt="string">E-Prime Primary Realtime Clock</Description><StartTime><Timestamp dt:dt="int">0</Timestamp><DateUtc dt:dt="string">2015-08-18T12:22:22Z</DateUtc></StartTime><FrequencyChanges><FrequencyChange><Frequency dt:dt="r8">2612294</Frequency><Timestamp dt:dt="r8">51772813157</Timestamp><Current dt:dt="r8">0</Current><DateUtc dt:dt="string">2015-08-18T12:22:22Z</DateUtc></FrequencyChange></FrequencyChanges></Clock>\n	1 ver1_main_procedure-36-1	99.938	1.0.0.880	2	pg	233536811	prawa	1	2.0.10.182	08-18-2015	2015-08-18 12:22:22	14:22:22	mezczyzna	2.0.10.92	3	3	1	1																							l	{SPACE}		no	BlockProc1		BlockList									21	Cued	l	color_red.png		-1	10	212697	310																			1					25	prime_left.png	1	211847	0	0	13	1	211847	1	211847	0	211846	20	0	-1	210347	211846	211846	0	prime_left.png	TrialProc1	right	0		0	11	212157	-212157		0	0	TrialList1	target_right.png	1	l	-1	3	211896	261	l	790	212686												5	1	21				neut			300
1 ver1_main_procedure	36	1	26	<?xml version="1.0"?>\n<Clock xmlns:dt="urn:schemas-microsoft-com:datatypes"><Description dt:dt="string">E-Prime Primary Realtime Clock</Description><StartTime><Timestamp dt:dt="int">0</Timestamp><DateUtc dt:dt="string">2015-08-18T12:22:22Z</DateUtc></StartTime><FrequencyChanges><FrequencyChange><Frequency dt:dt="r8">2612294</Frequency><Timestamp dt:dt="r8">51772813157</Timestamp><Current dt:dt="r8">0</Current><DateUtc dt:dt="string">2015-08-18T12:22:22Z</DateUtc></FrequencyChange></FrequencyChanges></Clock>\n	1 ver1_main_procedure-36-1	99.938	1.0.0.880	2	pg	233536811	prawa	1	2.0.10.182	08-18-2015	2015-08-18 12:22:22	14:22:22	mezczyzna	2.0.10.92	3	3	1	1																							l	{SPACE}		no	BlockProc1		BlockList									22	Cued	d	color_purple.png		-1	10	215569	160																								25	prime_right.png	0	214818	0	0	13	0	214818	0	214818	1	214818	20	0	-1	213319	214818	214817	0		TrialProc1	left	0		1	10	215128	-215128		0	0	TrialList1	target_left.png	1	d	-1	3	214868	260	d	690	215558												3	1	22				incomp			150
1 ver1_main_procedure	36	1	26	<?xml version="1.0"?>\n<Clock xmlns:dt="urn:schemas-microsoft-com:datatypes"><Description dt:dt="string">E-Prime Primary Realtime Clock</Description><StartTime><Timestamp dt:dt="int">0</Timestamp><DateUtc dt:dt="string">2015-08-18T12:22:22Z</DateUtc></StartTime><FrequencyChanges><FrequencyChange><Frequency dt:dt="r8">2612294</Frequency><Timestamp dt:dt="r8">51772813157</Timestamp><Current dt:dt="r8">0</Current><DateUtc dt:dt="string">2015-08-18T12:22:22Z</DateUtc></FrequencyChange></FrequencyChanges></Clock>\n	1 ver1_main_procedure-36-1	99.938	1.0.0.880	2	pg	233536811	prawa	1	2.0.10.182	08-18-2015	2015-08-18 12:22:22	14:22:22	mezczyzna	2.0.10.92	3	3	1	1																							l	{SPACE}		no	BlockProc1		BlockList									23	Cued	l	color_orange.png		-1	5	218220	310																								25	prime_left.png	0	217540	0	0	13	0	217540	0	217540	1	217540	20	0	-1	216041	217540	217539	0		TrialProc1	right	0		0	10	217850	-217850		0	0	TrialList1	target_right.png	1	l	-1	3	217590	260	l	624	218214												6	1	23				incomp			300
1 ver1_main_procedure	36	1	26	<?xml version="1.0"?>\n<Clock xmlns:dt="urn:schemas-microsoft-com:datatypes"><Description dt:dt="string">E-Prime Primary Realtime Clock</Description><StartTime><Timestamp dt:dt="int">0</Timestamp><DateUtc dt:dt="string">2015-08-18T12:22:22Z</DateUtc></StartTime><FrequencyChanges><FrequencyChange><Frequency dt:dt="r8">2612294</Frequency><Timestamp dt:dt="r8">51772813157</Timestamp><Current dt:dt="r8">0</Current><DateUtc dt:dt="string">2015-08-18T12:22:22Z</DateUtc></FrequencyChange></FrequencyChanges></Clock>\n	1 ver1_main_procedure-36-1	99.938	1.0.0.880	2	pg	233536811	prawa	1	2.0.10.182	08-18-2015	2015-08-18 12:22:22	14:22:22	mezczyzna	2.0.10.92	3	3	1	1																							l	{SPACE}		no	BlockProc1		BlockList									24	Cued	l	color_red.png		-1	11	221282	160																			2					75	prime_right.png	0	220342	0	0	13	0	220342	0	220342	1	220342	20	0	-1	218842	220342	220341	0	prime_right.png	TrialProc1	right	0		0	10	220652	-220652		0	0	TrialList1	target_right.png	1	l	-1	3	220392	260	l	878	221270												5	1	24				neut			150
1 ver1_main_procedure	36	1	26	<?xml version="1.0"?>\n<Clock xmlns:dt="urn:schemas-microsoft-com:datatypes"><Description dt:dt="string">E-Prime Primary Realtime Clock</Description><StartTime><Timestamp dt:dt="int">0</Timestamp><DateUtc dt:dt="string">2015-08-18T12:22:22Z</DateUtc></StartTime><FrequencyChanges><FrequencyChange><Frequency dt:dt="r8">2612294</Frequency><Timestamp dt:dt="r8">51772813157</Timestamp><Current dt:dt="r8">0</Current><DateUtc dt:dt="string">2015-08-18T12:22:22Z</DateUtc></FrequencyChange></FrequencyChanges></Clock>\n	1 ver1_main_procedure-36-1	99.938	1.0.0.880	2	pg	233536811	prawa	1	2.0.10.182	08-18-2015	2015-08-18 12:22:22	14:22:22	mezczyzna	2.0.10.92	3	3	1	1																							l	{SPACE}		no	BlockProc1		BlockList									25	Cued	d	color_purple.png		-1	9	223784	160																								25	prime_right.png	0	223253	0	0	13	1	223254	1	223254	1	223253	20	0	-1	221754	223253	223252	0		TrialProc1	left	0		1	10	223563	-223563		0	0	TrialList1	target_left.png	1	d	-1	3	223303	260	d	471	223774												3	1	25				incomp			150
1 ver1_main_procedure	36	1	26	<?xml version="1.0"?>\n<Clock xmlns:dt="urn:schemas-microsoft-com:datatypes"><Description dt:dt="string">E-Prime Primary Realtime Clock</Description><StartTime><Timestamp dt:dt="int">0</Timestamp><DateUtc dt:dt="string">2015-08-18T12:22:22Z</DateUtc></StartTime><FrequencyChanges><FrequencyChange><Frequency dt:dt="r8">2612294</Frequency><Timestamp dt:dt="r8">51772813157</Timestamp><Current dt:dt="r8">0</Current><DateUtc dt:dt="string">2015-08-18T12:22:22Z</DateUtc></FrequencyChange></FrequencyChanges></Clock>\n	1 ver1_main_procedure-36-1	99.938	1.0.0.880	2	pg	233536811	prawa	1	2.0.10.182	08-18-2015	2015-08-18 12:22:22	14:22:22	mezczyzna	2.0.10.92	3	3	1	1																							l	{SPACE}		no	BlockProc1		BlockList									26	Cued	d	color_green.png		-1	8	226455	160																			1					75	prime_left.png	0	225755	0	0	13	0	225755	0	225755	1	225755	20	0	-1	224256	225755	225754	0	prime_left.png	TrialProc1	left	0		0	10	226065	-226065		0	0	TrialList1	target_left.png	1	d	-1	3	225805	260	d	641	226446												2	1	26				neut			150
1 ver1_main_procedure	36	1	26	<?xml version="1.0"?>\n<Clock xmlns:dt="urn:schemas-microsoft-com:datatypes"><Description dt:dt="string">E-Prime Primary Realtime Clock</Description><StartTime><Timestamp dt:dt="int">0</Timestamp><DateUtc dt:dt="string">2015-08-18T12:22:22Z</DateUtc></StartTime><FrequencyChanges><FrequencyChange><Frequency dt:dt="r8">2612294</Frequency><Timestamp dt:dt="r8">51772813157</Timestamp><Current dt:dt="r8">0</Current><DateUtc dt:dt="string">2015-08-18T12:22:22Z</DateUtc></FrequencyChange></FrequencyChanges></Clock>\n	1 ver1_main_procedure-36-1	99.938	1.0.0.880	2	pg	233536811	prawa	1	2.0.10.182	08-18-2015	2015-08-18 12:22:22	14:22:22	mezczyzna	2.0.10.92	3	3	1	1																							l	{SPACE}		no	BlockProc1		BlockList									27	Cued	d	color_purple.png		-1	10	229097	160																								25	prime_right.png	0	228426	0	0	13	1	228427	1	228427	0	228426	20	0	-1	226927	228426	228426	0		TrialProc1	left	0		0	11	228737	-228737		0	0	TrialList1	target_left.png	1	d	-1	3	228476	261	d	610	229086												3	1	27				incomp			150
1 ver1_main_procedure	36	1	26	<?xml version="1.0"?>\n<Clock xmlns:dt="urn:schemas-microsoft-com:datatypes"><Description dt:dt="string">E-Prime Primary Realtime Clock</Description><StartTime><Timestamp dt:dt="int">0</Timestamp><DateUtc dt:dt="string">2015-08-18T12:22:22Z</DateUtc></StartTime><FrequencyChanges><FrequencyChange><Frequency dt:dt="r8">2612294</Frequency><Timestamp dt:dt="r8">51772813157</Timestamp><Current dt:dt="r8">0</Current><DateUtc dt:dt="string">2015-08-18T12:22:22Z</DateUtc></FrequencyChange></FrequencyChanges></Clock>\n	1 ver1_main_procedure-36-1	99.938	1.0.0.880	2	pg	233536811	prawa	1	2.0.10.182	08-18-2015	2015-08-18 12:22:22	14:22:22	mezczyzna	2.0.10.92	3	3	1	1																							l	{SPACE}		no	BlockProc1		BlockList									28	Cued	l	color_yellow.png		-1	11	231618	160																								25	prime_right.png	0	231068	0	0	13	0	231068	0	231068	1	231068	20	0	-1	229569	231068	231067	0		TrialProc1	right	0		0	10	231378	-231378		0	0	TrialList1	target_right.png	1	l	-1	3	231118	260	l	489	231607												4	1	28				comp			150
1 ver1_main_procedure	36	1	26	<?xml version="1.0"?>\n<Clock xmlns:dt="urn:schemas-microsoft-com:datatypes"><Description dt:dt="string">E-Prime Primary Realtime Clock</Description><StartTime><Timestamp dt:dt="int">0</Timestamp><DateUtc dt:dt="string">2015-08-18T12:22:22Z</DateUtc></StartTime><FrequencyChanges><FrequencyChange><Frequency dt:dt="r8">2612294</Frequency><Timestamp dt:dt="r8">51772813157</Timestamp><Current dt:dt="r8">0</Current><DateUtc dt:dt="string">2015-08-18T12:22:22Z</DateUtc></FrequencyChange></FrequencyChanges></Clock>\n	1 ver1_main_procedure-36-1	99.938	1.0.0.880	2	pg	233536811	prawa	1	2.0.10.182	08-18-2015	2015-08-18 12:22:22	14:22:22	mezczyzna	2.0.10.92	3	3	1	1																							l	{SPACE}		no	BlockProc1		BlockList									29	Cued	d	color_purple.png		-1	11	234090	310																								25	prime_right.png	1	233590	0	0	13	1	233590	1	233590	0	233589	20	0	-1	232090	233589	233589	0		TrialProc1	left	0		0	11	233900	-233900		0	0	TrialList1	target_left.png	1	d	-1	3	233639	261	d	440	234079												3	1	29				incomp			300
1 ver1_main_procedure	36	1	26	<?xml version="1.0"?>\n<Clock xmlns:dt="urn:schemas-microsoft-com:datatypes"><Description dt:dt="string">E-Prime Primary Realtime Clock</Description><StartTime><Timestamp dt:dt="int">0</Timestamp><DateUtc dt:dt="string">2015-08-18T12:22:22Z</DateUtc></StartTime><FrequencyChanges><FrequencyChange><Frequency dt:dt="r8">2612294</Frequency><Timestamp dt:dt="r8">51772813157</Timestamp><Current dt:dt="r8">0</Current><DateUtc dt:dt="string">2015-08-18T12:22:22Z</DateUtc></FrequencyChange></FrequencyChanges></Clock>\n	1 ver1_main_procedure-36-1	99.938	1.0.0.880	2	pg	233536811	prawa	1	2.0.10.182	08-18-2015	2015-08-18 12:22:22	14:22:22	mezczyzna	2.0.10.92	3	3	1	1																							l	{SPACE}		no	BlockProc1		BlockList									30	Cued	d	color_green.png		-1	7	237022	160																			2					25	prime_right.png	0	236211	0	0	13	0	236211	0	236211	1	236211	20	0	-1	234712	236211	236210	0	prime_right.png	TrialProc1	left	0		0	10	236521	-236521		0	0	TrialList1	target_left.png	1	d	-1	3	236261	260	d	754	237015												2	1	30				neut			150
1 ver1_main_procedure	36	1	26	<?xml version="1.0"?>\n<Clock xmlns:dt="urn:schemas-microsoft-com:datatypes"><Description dt:dt="string">E-Prime Primary Realtime Clock</Description><StartTime><Timestamp dt:dt="int">0</Timestamp><DateUtc dt:dt="string">2015-08-18T12:22:22Z</DateUtc></StartTime><FrequencyChanges><FrequencyChange><Frequency dt:dt="r8">2612294</Frequency><Timestamp dt:dt="r8">51772813157</Timestamp><Current dt:dt="r8">0</Current><DateUtc dt:dt="string">2015-08-18T12:22:22Z</DateUtc></FrequencyChange></FrequencyChanges></Clock>\n	1 ver1_main_procedure-36-1	99.938	1.0.0.880	2	pg	233536811	prawa	1	2.0.10.182	08-18-2015	2015-08-18 12:22:22	14:22:22	mezczyzna	2.0.10.92	3	3	1	1																							l	{SPACE}		no	BlockProc1		BlockList									31	Cued	d	color_green.png		-1	14	239573	160																			1					75	prime_left.png	0	238993	0	0	13	0	238993	0	238993	1	238993	20	0	-1	237493	238993	238992	0	prime_left.png	TrialProc1	left	0		0	10	239303	-239303		0	0	TrialList1	target_left.png	1	d	-1	3	239043	260	d	516	239559												2	1	31				neut			150
1 ver1_main_procedure	36	1	26	<?xml version="1.0"?>\n<Clock xmlns:dt="urn:schemas-microsoft-com:datatypes"><Description dt:dt="string">E-Prime Primary Realtime Clock</Description><StartTime><Timestamp dt:dt="int">0</Timestamp><DateUtc dt:dt="string">2015-08-18T12:22:22Z</DateUtc></StartTime><FrequencyChanges><FrequencyChange><Frequency dt:dt="r8">2612294</Frequency><Timestamp dt:dt="r8">51772813157</Timestamp><Current dt:dt="r8">0</Current><DateUtc dt:dt="string">2015-08-18T12:22:22Z</DateUtc></FrequencyChange></FrequencyChanges></Clock>\n	1 ver1_main_procedure-36-1	99.938	1.0.0.880	2	pg	233536811	prawa	1	2.0.10.182	08-18-2015	2015-08-18 12:22:22	14:22:22	mezczyzna	2.0.10.92	3	3	1	1																							l	{SPACE}		no	BlockProc1		BlockList									32	Cued	l	color_orange.png		-1	6	242165	310																								75	prime_left.png	0	241544	0	0	13	0	241545	0	241544	1	241544	20	0	-1	240045	241544	241543	0		TrialProc1	right	0		1	10	241854	-241854		0	0	TrialList1	target_right.png	1	l	-1	3	241594	260	l	565	242159												6	1	32				incomp			300
1 ver1_main_procedure	36	1	26	<?xml version="1.0"?>\n<Clock xmlns:dt="urn:schemas-microsoft-com:datatypes"><Description dt:dt="string">E-Prime Primary Realtime Clock</Description><StartTime><Timestamp dt:dt="int">0</Timestamp><DateUtc dt:dt="string">2015-08-18T12:22:22Z</DateUtc></StartTime><FrequencyChanges><FrequencyChange><Frequency dt:dt="r8">2612294</Frequency><Timestamp dt:dt="r8">51772813157</Timestamp><Current dt:dt="r8">0</Current><DateUtc dt:dt="string">2015-08-18T12:22:22Z</DateUtc></FrequencyChange></FrequencyChanges></Clock>\n	1 ver1_main_procedure-36-1	99.938	1.0.0.880	2	pg	233536811	prawa	1	2.0.10.182	08-18-2015	2015-08-18 12:22:22	14:22:22	mezczyzna	2.0.10.92	3	3	1	1																							l	{SPACE}		no	BlockProc1		BlockList									33	Cued	l	color_red.png		-1	10	244946	160																			2					25	prime_right.png	0	244286	0	0	13	0	244286	0	244286	1	244286	20	0	-1	242787	244286	244285	0	prime_right.png	TrialProc1	right	0		0	10	244596	-244596		0	0	TrialList1	target_right.png	1	l	-1	3	244336	260	l	599	244935												5	1	33				neut			150
1 ver1_main_procedure	36	1	26	<?xml version="1.0"?>\n<Clock xmlns:dt="urn:schemas-microsoft-com:datatypes"><Description dt:dt="string">E-Prime Primary Realtime Clock</Description><StartTime><Timestamp dt:dt="int">0</Timestamp><DateUtc dt:dt="string">2015-08-18T12:22:22Z</DateUtc></StartTime><FrequencyChanges><FrequencyChange><Frequency dt:dt="r8">2612294</Frequency><Timestamp dt:dt="r8">51772813157</Timestamp><Current dt:dt="r8">0</Current><DateUtc dt:dt="string">2015-08-18T12:22:22Z</DateUtc></FrequencyChange></FrequencyChanges></Clock>\n	1 ver1_main_procedure-36-1	99.938	1.0.0.880	2	pg	233536811	prawa	1	2.0.10.182	08-18-2015	2015-08-18 12:22:22	14:22:22	mezczyzna	2.0.10.92	3	3	1	1																							l	{SPACE}		no	BlockProc1		BlockList									34	Cued	d	color_green.png		-1	14	247558	310																			1					75	prime_left.png	1	246918	0	0	13	1	246918	1	246918	0	246917	20	0	-1	245418	246917	246917	0	prime_left.png	TrialProc1	left	0		0	11	247228	-247228		0	0	TrialList1	target_left.png	1	d	-1	3	246967	261	d	576	247543												2	1	34				neut			300
1 ver1_main_procedure	36	1	26	<?xml version="1.0"?>\n<Clock xmlns:dt="urn:schemas-microsoft-com:datatypes"><Description dt:dt="string">E-Prime Primary Realtime Clock</Description><StartTime><Timestamp dt:dt="int">0</Timestamp><DateUtc dt:dt="string">2015-08-18T12:22:22Z</DateUtc></StartTime><FrequencyChanges><FrequencyChange><Frequency dt:dt="r8">2612294</Frequency><Timestamp dt:dt="r8">51772813157</Timestamp><Current dt:dt="r8">0</Current><DateUtc dt:dt="string">2015-08-18T12:22:22Z</DateUtc></FrequencyChange></FrequencyChanges></Clock>\n	1 ver1_main_procedure-36-1	99.938	1.0.0.880	2	pg	233536811	prawa	1	2.0.10.182	08-18-2015	2015-08-18 12:22:22	14:22:22	mezczyzna	2.0.10.92	3	3	1	1																							l	{SPACE}		no	BlockProc1		BlockList									35	Free	dl	color_orange.png		-1	6	251110	460																								25	prime_left.png	0	249679	0	0	13	0	249679	0	249679	1	249679	20	0	-1	248180	249679	249678	0		TrialProc1	left	0		0	10	249989	-249989		0	0	TrialList1	target_both.png	0	dl	-1	3	249729	260	l	1374	251103												7	1	35				comp			450
1 ver1_main_procedure	36	1	26	<?xml version="1.0"?>\n<Clock xmlns:dt="urn:schemas-microsoft-com:datatypes"><Description dt:dt="string">E-Prime Primary Realtime Clock</Description><StartTime><Timestamp dt:dt="int">0</Timestamp><DateUtc dt:dt="string">2015-08-18T12:22:22Z</DateUtc></StartTime><FrequencyChanges><FrequencyChange><Frequency dt:dt="r8">2612294</Frequency><Timestamp dt:dt="r8">51772813157</Timestamp><Current dt:dt="r8">0</Current><DateUtc dt:dt="string">2015-08-18T12:22:22Z</DateUtc></FrequencyChange></FrequencyChanges></Clock>\n	1 ver1_main_procedure-36-1	99.938	1.0.0.880	2	pg	233536811	prawa	1	2.0.10.182	08-18-2015	2015-08-18 12:22:22	14:22:22	mezczyzna	2.0.10.92	3	3	1	1																							l	{SPACE}		no	BlockProc1		BlockList									36	Free	dl	color_purple.png		-1	8	254232	310																								75	prime_right.png	0	253381	0	0	13	1	253382	1	253382	0	253381	20	0	-1	251882	253381	253381	0		TrialProc1	left	0		0	11	253692	-253692		0	0	TrialList1	target_both.png	0	dl	-1	3	253431	261	d	792	254223												9	1	36				incomp			300
1 ver1_main_procedure	36	1	26	<?xml version="1.0"?>\n<Clock xmlns:dt="urn:schemas-microsoft-com:datatypes"><Description dt:dt="string">E-Prime Primary Realtime Clock</Description><StartTime><Timestamp dt:dt="int">0</Timestamp><DateUtc dt:dt="string">2015-08-18T12:22:22Z</DateUtc></StartTime><FrequencyChanges><FrequencyChange><Frequency dt:dt="r8">2612294</Frequency><Timestamp dt:dt="r8">51772813157</Timestamp><Current dt:dt="r8">0</Current><DateUtc dt:dt="string">2015-08-18T12:22:22Z</DateUtc></FrequencyChange></FrequencyChanges></Clock>\n	1 ver1_main_procedure-36-1	99.938	1.0.0.880	2	pg	233536811	prawa	1	2.0.10.182	08-18-2015	2015-08-18 12:22:22	14:22:22	mezczyzna	2.0.10.92	3	3	1	1																							l	{SPACE}		no	BlockProc1		BlockList									37	Cued	l	color_orange.png		-1	9	256993	461																								25	prime_left.png	0	256353	0	0	13	0	256353	0	256353	1	256353	20	0	-1	254854	256353	256352	0		TrialProc1	right	0		0	10	256663	-256663		0	0	TrialList1	target_right.png	1	l	-1	3	256403	260	l	580	256983												6	1	37				incomp			450
1 ver1_main_procedure	36	1	26	<?xml version="1.0"?>\n<Clock xmlns:dt="urn:schemas-microsoft-com:datatypes"><Description dt:dt="string">E-Prime Primary Realtime Clock</Description><StartTime><Timestamp dt:dt="int">0</Timestamp><DateUtc dt:dt="string">2015-08-18T12:22:22Z</DateUtc></StartTime><FrequencyChanges><FrequencyChange><Frequency dt:dt="r8">2612294</Frequency><Timestamp dt:dt="r8">51772813157</Timestamp><Current dt:dt="r8">0</Current><DateUtc dt:dt="string">2015-08-18T12:22:22Z</DateUtc></FrequencyChange></FrequencyChanges></Clock>\n	1 ver1_main_procedure-36-1	99.938	1.0.0.880	2	pg	233536811	prawa	1	2.0.10.182	08-18-2015	2015-08-18 12:22:22	14:22:22	mezczyzna	2.0.10.92	3	3	1	1																							l	{SPACE}		no	BlockProc1		BlockList									38	Cued	l	color_orange.png		-1	13	259965	160																								75	prime_left.png	0	259265	0	0	13	0	259265	0	259265	1	259265	20	0	-1	257766	259265	259264	0		TrialProc1	right	0		0	10	259575	-259575		0	0	TrialList1	target_right.png	1	l	-1	3	259315	260	l	636	259951												6	1	38				incomp			150
1 ver1_main_procedure	36	1	26	<?xml version="1.0"?>\n<Clock xmlns:dt="urn:schemas-microsoft-com:datatypes"><Description dt:dt="string">E-Prime Primary Realtime Clock</Description><StartTime><Timestamp dt:dt="int">0</Timestamp><DateUtc dt:dt="string">2015-08-18T12:22:22Z</DateUtc></StartTime><FrequencyChanges><FrequencyChange><Frequency dt:dt="r8">2612294</Frequency><Timestamp dt:dt="r8">51772813157</Timestamp><Current dt:dt="r8">0</Current><DateUtc dt:dt="string">2015-08-18T12:22:22Z</DateUtc></FrequencyChange></FrequencyChanges></Clock>\n	1 ver1_main_procedure-36-1	99.938	1.0.0.880	2	pg	233536811	prawa	1	2.0.10.182	08-18-2015	2015-08-18 12:22:22	14:22:22	mezczyzna	2.0.10.92	3	3	1	1																							l	{SPACE}		no	BlockProc1		BlockList									39	Cued	d	color_green.png		-1	7	262527	310																			2					75	prime_right.png	1	261937	0	0	13	1	261937	1	261937	0	261936	20	0	-1	260437	261936	261936	0	prime_right.png	TrialProc1	left	0		0	11	262247	-262247		0	0	TrialList1	target_left.png	1	d	-1	3	261986	261	d	533	262519												2	1	39				neut			300
1 ver1_main_procedure	36	1	26	<?xml version="1.0"?>\n<Clock xmlns:dt="urn:schemas-microsoft-com:datatypes"><Description dt:dt="string">E-Prime Primary Realtime Clock</Description><StartTime><Timestamp dt:dt="int">0</Timestamp><DateUtc dt:dt="string">2015-08-18T12:22:22Z</DateUtc></StartTime><FrequencyChanges><FrequencyChange><Frequency dt:dt="r8">2612294</Frequency><Timestamp dt:dt="r8">51772813157</Timestamp><Current dt:dt="r8">0</Current><DateUtc dt:dt="string">2015-08-18T12:22:22Z</DateUtc></FrequencyChange></FrequencyChanges></Clock>\n	1 ver1_main_procedure-36-1	99.938	1.0.0.880	2	pg	233536811	prawa	1	2.0.10.182	08-18-2015	2015-08-18 12:22:22	14:22:22	mezczyzna	2.0.10.92	3	3	1	1																							l	{SPACE}		no	BlockProc1		BlockList									40	Cued	d	color_blue.png		-1	14	265078	310																								75	prime_left.png	0	264648	0	0	13	0	264648	0	264648	1	264648	20	0	-1	263149	264648	264647	0		TrialProc1	left	0		0	10	264958	-264958		0	0	TrialList1	target_left.png	1	d	-1	3	264698	260	d	365	265063												1	1	40				comp			300
1 ver1_main_procedure	36	1	26	<?xml version="1.0"?>\n<Clock xmlns:dt="urn:schemas-microsoft-com:datatypes"><Description dt:dt="string">E-Prime Primary Realtime Clock</Description><StartTime><Timestamp dt:dt="int">0</Timestamp><DateUtc dt:dt="string">2015-08-18T12:22:22Z</DateUtc></StartTime><FrequencyChanges><FrequencyChange><Frequency dt:dt="r8">2612294</Frequency><Timestamp dt:dt="r8">51772813157</Timestamp><Current dt:dt="r8">0</Current><DateUtc dt:dt="string">2015-08-18T12:22:22Z</DateUtc></FrequencyChange></FrequencyChanges></Clock>\n	1 ver1_main_procedure-36-1	99.938	1.0.0.880	2	pg	233536811	prawa	1	2.0.10.182	08-18-2015	2015-08-18 12:22:22	14:22:22	mezczyzna	2.0.10.92	3	3	1	1																							l	{SPACE}		no	BlockProc1		BlockList									41	Free	dl	color_green.png		-1	10	268290	460																			1					25	prime_left.png	0	267200	0	0	13	0	267200	0	267200	1	267200	20	0	-1	265700	267200	267199	0	prime_left.png	TrialProc1	right	0		0	10	267510	-267510		0	0	TrialList1	target_both.png	0	dl	-1	3	267250	260	d	1029	268279												11	1	41				neut			450
1 ver1_main_procedure	36	1	26	<?xml version="1.0"?>\n<Clock xmlns:dt="urn:schemas-microsoft-com:datatypes"><Description dt:dt="string">E-Prime Primary Realtime Clock</Description><StartTime><Timestamp dt:dt="int">0</Timestamp><DateUtc dt:dt="string">2015-08-18T12:22:22Z</DateUtc></StartTime><FrequencyChanges><FrequencyChange><Frequency dt:dt="r8">2612294</Frequency><Timestamp dt:dt="r8">51772813157</Timestamp><Current dt:dt="r8">0</Current><DateUtc dt:dt="string">2015-08-18T12:22:22Z</DateUtc></FrequencyChange></FrequencyChanges></Clock>\n	1 ver1_main_procedure-36-1	99.938	1.0.0.880	2	pg	233536811	prawa	1	2.0.10.182	08-18-2015	2015-08-18 12:22:22	14:22:22	mezczyzna	2.0.10.92	3	3	1	1																							l	{SPACE}		no	BlockProc1		BlockList									42	Free	dl	color_green.png		-1	12	271252	160																			2					75	prime_right.png	0	270562	0	0	13	0	270562	0	270562	1	270562	20	0	-1	269062	270562	270561	0	prime_right.png	TrialProc1	left	0		0	10	270872	-270872		0	0	TrialList1	target_both.png	0	dl	-1	3	270612	260	d	627	271239												8	1	42				neut			150
1 ver1_main_procedure	36	1	26	<?xml version="1.0"?>\n<Clock xmlns:dt="urn:schemas-microsoft-com:datatypes"><Description dt:dt="string">E-Prime Primary Realtime Clock</Description><StartTime><Timestamp dt:dt="int">0</Timestamp><DateUtc dt:dt="string">2015-08-18T12:22:22Z</DateUtc></StartTime><FrequencyChanges><FrequencyChange><Frequency dt:dt="r8">2612294</Frequency><Timestamp dt:dt="r8">51772813157</Timestamp><Current dt:dt="r8">0</Current><DateUtc dt:dt="string">2015-08-18T12:22:22Z</DateUtc></FrequencyChange></FrequencyChanges></Clock>\n	1 ver1_main_procedure-36-1	99.938	1.0.0.880	2	pg	233536811	prawa	1	2.0.10.182	08-18-2015	2015-08-18 12:22:22	14:22:22	mezczyzna	2.0.10.92	3	3	1	1																							l	{SPACE}		no	BlockProc1		BlockList									43	Free	dl	color_blue.png		-1	8	274024	460																								25	prime_left.png	0	273223	0	0	13	0	273223	0	273223	1	273223	20	0	-1	271724	273223	273222	0		TrialProc1	left	0		1	10	273533	-273533		0	0	TrialList1	target_both.png	0	dl	-1	3	273273	260	d	743	274016												7	1	43				comp			450
1 ver1_main_procedure	36	1	26	<?xml version="1.0"?>\n<Clock xmlns:dt="urn:schemas-microsoft-com:datatypes"><Description dt:dt="string">E-Prime Primary Realtime Clock</Description><StartTime><Timestamp dt:dt="int">0</Timestamp><DateUtc dt:dt="string">2015-08-18T12:22:22Z</DateUtc></StartTime><FrequencyChanges><FrequencyChange><Frequency dt:dt="r8">2612294</Frequency><Timestamp dt:dt="r8">51772813157</Timestamp><Current dt:dt="r8">0</Current><DateUtc dt:dt="string">2015-08-18T12:22:22Z</DateUtc></FrequencyChange></FrequencyChanges></Clock>\n	1 ver1_main_procedure-36-1	99.938	1.0.0.880	2	pg	233536811	prawa	1	2.0.10.182	08-18-2015	2015-08-18 12:22:22	14:22:22	mezczyzna	2.0.10.92	3	3	1	1																							l	{SPACE}		no	BlockProc1		BlockList									44	Cued	d	color_green.png		-1	10	277466	310																			1					25	prime_left.png	0	276295	0	0	13	0	276295	0	276295	1	276295	20	0	-1	274796	276295	276294	0	prime_left.png	TrialProc1	left	0		0	10	276605	-276605		0	0	TrialList1	target_left.png	1	d	-1	3	276345	260	d	1111	277456												2	1	44				neut			300
1 ver1_main_procedure	36	1	26	<?xml version="1.0"?>\n<Clock xmlns:dt="urn:schemas-microsoft-com:datatypes"><Description dt:dt="string">E-Prime Primary Realtime Clock</Description><StartTime><Timestamp dt:dt="int">0</Timestamp><DateUtc dt:dt="string">2015-08-18T12:22:22Z</DateUtc></StartTime><FrequencyChanges><FrequencyChange><Frequency dt:dt="r8">2612294</Frequency><Timestamp dt:dt="r8">51772813157</Timestamp><Current dt:dt="r8">0</Current><DateUtc dt:dt="string">2015-08-18T12:22:22Z</DateUtc></FrequencyChange></FrequencyChanges></Clock>\n	1 ver1_main_procedure-36-1	99.938	1.0.0.880	2	pg	233536811	prawa	1	2.0.10.182	08-18-2015	2015-08-18 12:22:22	14:22:22	mezczyzna	2.0.10.92	3	3	1	1																							l	{SPACE}		no	BlockProc1		BlockList									45	Free	dl	color_green.png		-1	5	280357	161																			2					75	prime_right.png	0	279587	0	0	13	0	279587	0	279587	1	279587	20	0	-1	278088	279587	279586	0	prime_right.png	TrialProc1	left	0		0	10	279897	-279897		0	0	TrialList1	target_both.png	0	dl	-1	3	279637	260	d	715	280352												8	1	45				neut			150
1 ver1_main_procedure	36	1	26	<?xml version="1.0"?>\n<Clock xmlns:dt="urn:schemas-microsoft-com:datatypes"><Description dt:dt="string">E-Prime Primary Realtime Clock</Description><StartTime><Timestamp dt:dt="int">0</Timestamp><DateUtc dt:dt="string">2015-08-18T12:22:22Z</DateUtc></StartTime><FrequencyChanges><FrequencyChange><Frequency dt:dt="r8">2612294</Frequency><Timestamp dt:dt="r8">51772813157</Timestamp><Current dt:dt="r8">0</Current><DateUtc dt:dt="string">2015-08-18T12:22:22Z</DateUtc></FrequencyChange></FrequencyChanges></Clock>\n	1 ver1_main_procedure-36-1	99.938	1.0.0.880	2	pg	233536811	prawa	1	2.0.10.182	08-18-2015	2015-08-18 12:22:22	14:22:22	mezczyzna	2.0.10.92	3	3	1	1																							l	{SPACE}		no	BlockProc1		BlockList									46	Cued	d	color_purple.png		-1	13	284030	460																								25	prime_right.png	0	282329	0	0	13	0	282329	0	282329	1	282329	20	0	-1	280829	282329	282328	0		TrialProc1	left	0		0	10	282639	-282639		0	0	TrialList1	target_left.png	1	d	-1	3	282379	260	d	1637	284016												3	1	46				incomp			450
1 ver1_main_procedure	36	1	26	<?xml version="1.0"?>\n<Clock xmlns:dt="urn:schemas-microsoft-com:datatypes"><Description dt:dt="string">E-Prime Primary Realtime Clock</Description><StartTime><Timestamp dt:dt="int">0</Timestamp><DateUtc dt:dt="string">2015-08-18T12:22:22Z</DateUtc></StartTime><FrequencyChanges><FrequencyChange><Frequency dt:dt="r8">2612294</Frequency><Timestamp dt:dt="r8">51772813157</Timestamp><Current dt:dt="r8">0</Current><DateUtc dt:dt="string">2015-08-18T12:22:22Z</DateUtc></FrequencyChange></FrequencyChanges></Clock>\n	1 ver1_main_procedure-36-1	99.938	1.0.0.880	2	pg	233536811	prawa	1	2.0.10.182	08-18-2015	2015-08-18 12:22:22	14:22:22	mezczyzna	2.0.10.92	3	3	1	1																							l	{SPACE}		no	BlockProc1		BlockList									47	Cued	l	color_red.png		-1	8	286841	160																			1					25	prime_left.png	0	286301	0	0	13	0	286301	0	286301	1	286301	20	0	-1	284802	286301	286300	0	prime_left.png	TrialProc1	right	0		0	10	286611	-286611		0	0	TrialList1	target_right.png	1	l	-1	3	286351	260	l	481	286832												5	1	47				neut			150
1 ver1_main_procedure	36	1	26	<?xml version="1.0"?>\n<Clock xmlns:dt="urn:schemas-microsoft-com:datatypes"><Description dt:dt="string">E-Prime Primary Realtime Clock</Description><StartTime><Timestamp dt:dt="int">0</Timestamp><DateUtc dt:dt="string">2015-08-18T12:22:22Z</DateUtc></StartTime><FrequencyChanges><FrequencyChange><Frequency dt:dt="r8">2612294</Frequency><Timestamp dt:dt="r8">51772813157</Timestamp><Current dt:dt="r8">0</Current><DateUtc dt:dt="string">2015-08-18T12:22:22Z</DateUtc></FrequencyChange></FrequencyChanges></Clock>\n	1 ver1_main_procedure-36-1	99.938	1.0.0.880	2	pg	233536811	prawa	1	2.0.10.182	08-18-2015	2015-08-18 12:22:22	14:22:22	mezczyzna	2.0.10.92	3	3	1	1																							l	{SPACE}		no	BlockProc1		BlockList									48	Cued	l	color_red.png		-1	14	289303	310																			2					25	prime_right.png	0	288813	0	0	13	0	288813	0	288813	1	288813	20	0	-1	287313	288813	288812	0	prime_right.png	TrialProc1	right	0		0	10	289123	-289123		0	0	TrialList1	target_right.png	1	l	-1	3	288863	260	l	425	289288												5	1	48				neut			300
1 ver1_main_procedure	36	1	26	<?xml version="1.0"?>\n<Clock xmlns:dt="urn:schemas-microsoft-com:datatypes"><Description dt:dt="string">E-Prime Primary Realtime Clock</Description><StartTime><Timestamp dt:dt="int">0</Timestamp><DateUtc dt:dt="string">2015-08-18T12:22:22Z</DateUtc></StartTime><FrequencyChanges><FrequencyChange><Frequency dt:dt="r8">2612294</Frequency><Timestamp dt:dt="r8">51772813157</Timestamp><Current dt:dt="r8">0</Current><DateUtc dt:dt="string">2015-08-18T12:22:22Z</DateUtc></FrequencyChange></FrequencyChanges></Clock>\n	1 ver1_main_procedure-36-1	99.938	1.0.0.880	2	pg	233536811	prawa	1	2.0.10.182	08-18-2015	2015-08-18 12:22:22	14:22:22	mezczyzna	2.0.10.92	3	3	1	1																							l	{SPACE}		no	BlockProc1		BlockList									49	Cued	d	color_purple.png		-1	13	291974	311																								75	prime_right.png	0	291424	0	0	13	0	291424	0	291424	1	291424	20	0	-1	289925	291424	291423	0		TrialProc1	left	0		0	10	291734	-291734		0	0	TrialList1	target_left.png	1	d	-1	3	291474	260	d	486	291960												3	1	49				incomp			300
1 ver1_main_procedure	36	1	26	<?xml version="1.0"?>\n<Clock xmlns:dt="urn:schemas-microsoft-com:datatypes"><Description dt:dt="string">E-Prime Primary Realtime Clock</Description><StartTime><Timestamp dt:dt="int">0</Timestamp><DateUtc dt:dt="string">2015-08-18T12:22:22Z</DateUtc></StartTime><FrequencyChanges><FrequencyChange><Frequency dt:dt="r8">2612294</Frequency><Timestamp dt:dt="r8">51772813157</Timestamp><Current dt:dt="r8">0</Current><DateUtc dt:dt="string">2015-08-18T12:22:22Z</DateUtc></FrequencyChange></FrequencyChanges></Clock>\n	1 ver1_main_procedure-36-1	99.938	1.0.0.880	2	pg	233536811	prawa	1	2.0.10.182	08-18-2015	2015-08-18 12:22:22	14:22:22	mezczyzna	2.0.10.92	3	3	1	1																							l	{SPACE}		no	BlockProc1		BlockList									50	Cued	d	color_purple.png		-1	11	294596	160																								75	prime_right.png	0	294096	0	0	13	0	294096	0	294096	1	294096	20	0	-1	292597	294096	294095	0		TrialProc1	left	0		0	10	294406	-294406		0	0	TrialList1	target_left.png	1	d	-1	3	294146	260	d	438	294584												3	1	50				incomp			150
1 ver1_main_procedure	36	1	26	<?xml version="1.0"?>\n<Clock xmlns:dt="urn:schemas-microsoft-com:datatypes"><Description dt:dt="string">E-Prime Primary Realtime Clock</Description><StartTime><Timestamp dt:dt="int">0</Timestamp><DateUtc dt:dt="string">2015-08-18T12:22:22Z</DateUtc></StartTime><FrequencyChanges><FrequencyChange><Frequency dt:dt="r8">2612294</Frequency><Timestamp dt:dt="r8">51772813157</Timestamp><Current dt:dt="r8">0</Current><DateUtc dt:dt="string">2015-08-18T12:22:22Z</DateUtc></FrequencyChange></FrequencyChanges></Clock>\n	1 ver1_main_procedure-36-1	99.938	1.0.0.880	2	pg	233536811	prawa	1	2.0.10.182	08-18-2015	2015-08-18 12:22:22	14:22:22	mezczyzna	2.0.10.92	3	3	1	1																							l	{SPACE}		no	BlockProc1		BlockList									51	Free	dl	color_red.png		-1	13	297318	460																			1					75	prime_left.png	0	296567	0	0	13	0	296567	0	296567	1	296567	20	0	-1	295068	296567	296566	0	prime_left.png	TrialProc1	left	0		1	10	296877	-296877		0	0	TrialList1	target_both.png	0	dl	-1	3	296617	260	l	687	297304												8	1	51				neut			450
1 ver1_main_procedure	36	1	26	<?xml version="1.0"?>\n<Clock xmlns:dt="urn:schemas-microsoft-com:datatypes"><Description dt:dt="string">E-Prime Primary Realtime Clock</Description><StartTime><Timestamp dt:dt="int">0</Timestamp><DateUtc dt:dt="string">2015-08-18T12:22:22Z</DateUtc></StartTime><FrequencyChanges><FrequencyChange><Frequency dt:dt="r8">2612294</Frequency><Timestamp dt:dt="r8">51772813157</Timestamp><Current dt:dt="r8">0</Current><DateUtc dt:dt="string">2015-08-18T12:22:22Z</DateUtc></FrequencyChange></FrequencyChanges></Clock>\n	1 ver1_main_procedure-36-1	99.938	1.0.0.880	2	pg	233536811	prawa	1	2.0.10.182	08-18-2015	2015-08-18 12:22:22	14:22:22	mezczyzna	2.0.10.92	3	3	1	1																							l	{SPACE}		no	BlockProc1		BlockList									52	Cued	d	color_green.png		-1	10	300099	461																			2					75	prime_right.png	0	299589	0	0	13	0	299589	0	299589	1	299589	20	0	-1	298090	299589	299588	0	prime_right.png	TrialProc1	left	0		0	10	299899	-299899		0	0	TrialList1	target_left.png	1	d	-1	3	299639	260	d	449	300088												2	1	52				neut			450
1 ver1_main_procedure	36	1	26	<?xml version="1.0"?>\n<Clock xmlns:dt="urn:schemas-microsoft-com:datatypes"><Description dt:dt="string">E-Prime Primary Realtime Clock</Description><StartTime><Timestamp dt:dt="int">0</Timestamp><DateUtc dt:dt="string">2015-08-18T12:22:22Z</DateUtc></StartTime><FrequencyChanges><FrequencyChange><Frequency dt:dt="r8">2612294</Frequency><Timestamp dt:dt="r8">51772813157</Timestamp><Current dt:dt="r8">0</Current><DateUtc dt:dt="string">2015-08-18T12:22:22Z</DateUtc></FrequencyChange></FrequencyChanges></Clock>\n	1 ver1_main_procedure-36-1	99.938	1.0.0.880	2	pg	233536811	prawa	1	2.0.10.182	08-18-2015	2015-08-18 12:22:22	14:22:22	mezczyzna	2.0.10.92	3	3	1	1																							l	{SPACE}		no	BlockProc1		BlockList									53	Cued	d	color_blue.png		-1	6	302911	310																								75	prime_left.png	0	302371	0	0	13	0	302371	0	302371	1	302371	20	0	-1	300872	302371	302370	0		TrialProc1	left	0		0	10	302681	-302681		0	0	TrialList1	target_left.png	1	d	-1	3	302421	260	d	483	302904												1	1	53				comp			300
1 ver1_main_procedure	36	1	26	<?xml version="1.0"?>\n<Clock xmlns:dt="urn:schemas-microsoft-com:datatypes"><Description dt:dt="string">E-Prime Primary Realtime Clock</Description><StartTime><Timestamp dt:dt="int">0</Timestamp><DateUtc dt:dt="string">2015-08-18T12:22:22Z</DateUtc></StartTime><FrequencyChanges><FrequencyChange><Frequency dt:dt="r8">2612294</Frequency><Timestamp dt:dt="r8">51772813157</Timestamp><Current dt:dt="r8">0</Current><DateUtc dt:dt="string">2015-08-18T12:22:22Z</DateUtc></FrequencyChange></FrequencyChanges></Clock>\n	1 ver1_main_procedure-36-1	99.938	1.0.0.880	2	pg	233536811	prawa	1	2.0.10.182	08-18-2015	2015-08-18 12:22:22	14:22:22	mezczyzna	2.0.10.92	3	3	1	1																							l	{SPACE}		no	BlockProc1		BlockList									54	Cued	l	color_orange.png		-1	12	305733	310																								75	prime_left.png	0	305032	0	0	13	0	305032	0	305032	1	305032	20	0	-1	303533	305032	305031	0		TrialProc1	right	0		1	10	305342	-305342		0	0	TrialList1	target_right.png	1	l	-1	3	305082	260	l	638	305720												6	1	54				incomp			300
1 ver1_main_procedure	36	1	26	<?xml version="1.0"?>\n<Clock xmlns:dt="urn:schemas-microsoft-com:datatypes"><Description dt:dt="string">E-Prime Primary Realtime Clock</Description><StartTime><Timestamp dt:dt="int">0</Timestamp><DateUtc dt:dt="string">2015-08-18T12:22:22Z</DateUtc></StartTime><FrequencyChanges><FrequencyChange><Frequency dt:dt="r8">2612294</Frequency><Timestamp dt:dt="r8">51772813157</Timestamp><Current dt:dt="r8">0</Current><DateUtc dt:dt="string">2015-08-18T12:22:22Z</DateUtc></FrequencyChange></FrequencyChanges></Clock>\n	1 ver1_main_procedure-36-1	99.938	1.0.0.880	2	pg	233536811	prawa	1	2.0.10.182	08-18-2015	2015-08-18 12:22:22	14:22:22	mezczyzna	2.0.10.92	3	3	1	1																							l	{SPACE}		no	BlockProc1		BlockList									55	Cued	l	color_yellow.png		-1	10	308875	160																								25	prime_right.png	0	307854	0	0	13	0	307854	0	307854	1	307854	20	0	-1	306355	307854	307853	0		TrialProc1	right	0		0	10	308164	-308164		0	0	TrialList1	target_right.png	1	l	-1	3	307904	260	l	960	308864												4	1	55				comp			150
1 ver1_main_procedure	36	1	26	<?xml version="1.0"?>\n<Clock xmlns:dt="urn:schemas-microsoft-com:datatypes"><Description dt:dt="string">E-Prime Primary Realtime Clock</Description><StartTime><Timestamp dt:dt="int">0</Timestamp><DateUtc dt:dt="string">2015-08-18T12:22:22Z</DateUtc></StartTime><FrequencyChanges><FrequencyChange><Frequency dt:dt="r8">2612294</Frequency><Timestamp dt:dt="r8">51772813157</Timestamp><Current dt:dt="r8">0</Current><DateUtc dt:dt="string">2015-08-18T12:22:22Z</DateUtc></FrequencyChange></FrequencyChanges></Clock>\n	1 ver1_main_procedure-36-1	99.938	1.0.0.880	2	pg	233536811	prawa	1	2.0.10.182	08-18-2015	2015-08-18 12:22:22	14:22:22	mezczyzna	2.0.10.92	3	3	1	1																							l	{SPACE}		no	BlockProc1		BlockList									56	Cued	d	color_blue.png		-1	5	311286	160																								75	prime_left.png	0	310846	0	0	13	0	310846	0	310846	1	310846	20	0	-1	309347	310846	310845	0		TrialProc1	left	0		0	10	311156	-311156		0	0	TrialList1	target_left.png	1	d	-1	3	310896	260	d	384	311280												1	1	56				comp			150
1 ver1_main_procedure	36	1	26	<?xml version="1.0"?>\n<Clock xmlns:dt="urn:schemas-microsoft-com:datatypes"><Description dt:dt="string">E-Prime Primary Realtime Clock</Description><StartTime><Timestamp dt:dt="int">0</Timestamp><DateUtc dt:dt="string">2015-08-18T12:22:22Z</DateUtc></StartTime><FrequencyChanges><FrequencyChange><Frequency dt:dt="r8">2612294</Frequency><Timestamp dt:dt="r8">51772813157</Timestamp><Current dt:dt="r8">0</Current><DateUtc dt:dt="string">2015-08-18T12:22:22Z</DateUtc></FrequencyChange></FrequencyChanges></Clock>\n	1 ver1_main_procedure-36-1	99.938	1.0.0.880	2	pg	233536811	prawa	1	2.0.10.182	08-18-2015	2015-08-18 12:22:22	14:22:22	mezczyzna	2.0.10.92	3	3	1	1																							l	{SPACE}		no	BlockProc1		BlockList									57	Cued	l	color_yellow.png		-1	14	313727	161																								25	prime_right.png	0	313257	0	0	13	0	313257	0	313257	1	313257	20	0	-1	311758	313257	313256	0		TrialProc1	right	0		1	10	313567	-313567		0	0	TrialList1	target_right.png	1	l	-1	3	313307	260	l	406	313713												4	1	57				comp			150
1 ver1_main_procedure	36	1	26	<?xml version="1.0"?>\n<Clock xmlns:dt="urn:schemas-microsoft-com:datatypes"><Description dt:dt="string">E-Prime Primary Realtime Clock</Description><StartTime><Timestamp dt:dt="int">0</Timestamp><DateUtc dt:dt="string">2015-08-18T12:22:22Z</DateUtc></StartTime><FrequencyChanges><FrequencyChange><Frequency dt:dt="r8">2612294</Frequency><Timestamp dt:dt="r8">51772813157</Timestamp><Current dt:dt="r8">0</Current><DateUtc dt:dt="string">2015-08-18T12:22:22Z</DateUtc></FrequencyChange></FrequencyChanges></Clock>\n	1 ver1_main_procedure-36-1	99.938	1.0.0.880	2	pg	233536811	prawa	1	2.0.10.182	08-18-2015	2015-08-18 12:22:22	14:22:22	mezczyzna	2.0.10.92	3	3	1	1																							l	{SPACE}		no	BlockProc1		BlockList									58	Free	dl	color_yellow.png		-1	6	316359	310																								75	prime_right.png	0	315699	0	0	13	0	315699	0	315699	1	315699	20	0	-1	314199	315699	315698	0		TrialProc1	left	0		0	10	316009	-316009		0	0	TrialList1	target_both.png	0	dl	-1	3	315749	260	l	604	316353												9	1	58				incomp			300
1 ver1_main_procedure	36	1	26	<?xml version="1.0"?>\n<Clock xmlns:dt="urn:schemas-microsoft-com:datatypes"><Description dt:dt="string">E-Prime Primary Realtime Clock</Description><StartTime><Timestamp dt:dt="int">0</Timestamp><DateUtc dt:dt="string">2015-08-18T12:22:22Z</DateUtc></StartTime><FrequencyChanges><FrequencyChange><Frequency dt:dt="r8">2612294</Frequency><Timestamp dt:dt="r8">51772813157</Timestamp><Current dt:dt="r8">0</Current><DateUtc dt:dt="string">2015-08-18T12:22:22Z</DateUtc></FrequencyChange></FrequencyChanges></Clock>\n	1 ver1_main_procedure-36-1	99.938	1.0.0.880	2	pg	233536811	prawa	1	2.0.10.182	08-18-2015	2015-08-18 12:22:22	14:22:22	mezczyzna	2.0.10.92	3	3	1	1																							l	{SPACE}		no	BlockProc1		BlockList									59	Cued	l	color_orange.png		-1	14	319791	460																								75	prime_left.png	0	318480	0	0	13	0	318480	0	318480	1	318480	20	0	-1	316981	318480	318479	0		TrialProc1	right	0		0	11	318791	-318791		0	0	TrialList1	target_right.png	1	l	-1	3	318530	261	l	1247	319777												6	1	59				incomp			450
1 ver1_main_procedure	36	1	26	<?xml version="1.0"?>\n<Clock xmlns:dt="urn:schemas-microsoft-com:datatypes"><Description dt:dt="string">E-Prime Primary Realtime Clock</Description><StartTime><Timestamp dt:dt="int">0</Timestamp><DateUtc dt:dt="string">2015-08-18T12:22:22Z</DateUtc></StartTime><FrequencyChanges><FrequencyChange><Frequency dt:dt="r8">2612294</Frequency><Timestamp dt:dt="r8">51772813157</Timestamp><Current dt:dt="r8">0</Current><DateUtc dt:dt="string">2015-08-18T12:22:22Z</DateUtc></FrequencyChange></FrequencyChanges></Clock>\n	1 ver1_main_procedure-36-1	99.938	1.0.0.880	2	pg	233536811	prawa	1	2.0.10.182	08-18-2015	2015-08-18 12:22:22	14:22:22	mezczyzna	2.0.10.92	3	3	1	1																							l	{SPACE}		no	BlockProc1		BlockList									60	Cued	d	color_purple.png		-1	12	322933	160																								25	prime_right.png	0	322062	0	0	13	1	322063	1	322063	0	322062	20	0	-1	320563	322062	322062	0		TrialProc1	left	0		0	11	322373	-322373		0	0	TrialList1	target_left.png	1	d	-1	3	322112	261	d	809	322921												3	1	60				incomp			150
1 ver1_main_procedure	36	1	26	<?xml version="1.0"?>\n<Clock xmlns:dt="urn:schemas-microsoft-com:datatypes"><Description dt:dt="string">E-Prime Primary Realtime Clock</Description><StartTime><Timestamp dt:dt="int">0</Timestamp><DateUtc dt:dt="string">2015-08-18T12:22:22Z</DateUtc></StartTime><FrequencyChanges><FrequencyChange><Frequency dt:dt="r8">2612294</Frequency><Timestamp dt:dt="r8">51772813157</Timestamp><Current dt:dt="r8">0</Current><DateUtc dt:dt="string">2015-08-18T12:22:22Z</DateUtc></FrequencyChange></FrequencyChanges></Clock>\n	1 ver1_main_procedure-36-1	99.938	1.0.0.880	2	pg	233536811	prawa	1	2.0.10.182	08-18-2015	2015-08-18 12:22:22	14:22:22	mezczyzna	2.0.10.92	3	3	1	1																							l	{SPACE}		no	BlockProc1		BlockList									61	Free	dl	color_red.png		-1	8	325585	160																			1					25	prime_left.png	0	324904	0	0	13	0	324904	0	324904	1	324904	20	0	-1	323405	324904	324903	0	prime_left.png	TrialProc1	right	0		1	10	325214	-325214		0	0	TrialList1	target_both.png	0	dl	-1	3	324954	260	l	623	325577												11	1	61				neut			150
1 ver1_main_procedure	36	1	26	<?xml version="1.0"?>\n<Clock xmlns:dt="urn:schemas-microsoft-com:datatypes"><Description dt:dt="string">E-Prime Primary Realtime Clock</Description><StartTime><Timestamp dt:dt="int">0</Timestamp><DateUtc dt:dt="string">2015-08-18T12:22:22Z</DateUtc></StartTime><FrequencyChanges><FrequencyChange><Frequency dt:dt="r8">2612294</Frequency><Timestamp dt:dt="r8">51772813157</Timestamp><Current dt:dt="r8">0</Current><DateUtc dt:dt="string">2015-08-18T12:22:22Z</DateUtc></FrequencyChange></FrequencyChanges></Clock>\n	1 ver1_main_procedure-36-1	99.938	1.0.0.880	2	pg	233536811	prawa	1	2.0.10.182	08-18-2015	2015-08-18 12:22:22	14:22:22	mezczyzna	2.0.10.92	3	3	1	1																							l	{SPACE}		no	BlockProc1		BlockList									62	Free	dl	color_orange.png		-1	13	328126	310																								75	prime_left.png	0	327556	0	0	13	0	327556	0	327556	1	327556	20	0	-1	326057	327556	327555	0		TrialProc1	right	0		0	10	327866	-327866		0	0	TrialList1	target_both.png	0	dl	-1	3	327606	260	l	507	328113												12	1	62				incomp			300
1 ver1_main_procedure	36	1	26	<?xml version="1.0"?>\n<Clock xmlns:dt="urn:schemas-microsoft-com:datatypes"><Description dt:dt="string">E-Prime Primary Realtime Clock</Description><StartTime><Timestamp dt:dt="int">0</Timestamp><DateUtc dt:dt="string">2015-08-18T12:22:22Z</DateUtc></StartTime><FrequencyChanges><FrequencyChange><Frequency dt:dt="r8">2612294</Frequency><Timestamp dt:dt="r8">51772813157</Timestamp><Current dt:dt="r8">0</Current><DateUtc dt:dt="string">2015-08-18T12:22:22Z</DateUtc></FrequencyChange></FrequencyChanges></Clock>\n	1 ver1_main_procedure-36-1	99.938	1.0.0.880	2	pg	233536811	prawa	1	2.0.10.182	08-18-2015	2015-08-18 12:22:22	14:22:22	mezczyzna	2.0.10.92	3	3	1	1																							l	{SPACE}		no	BlockProc1		BlockList									63	Cued	d	color_green.png		-1	12	330758	160																			2					25	prime_right.png	0	330247	0	0	13	1	330248	1	330248	1	330247	20	0	-1	328748	330247	330246	0	prime_right.png	TrialProc1	left	0		0	11	330558	-330558		0	0	TrialList1	target_left.png	1	d	-1	3	330297	261	d	448	330745												2	1	63				neut			150
1 ver1_main_procedure	36	1	26	<?xml version="1.0"?>\n<Clock xmlns:dt="urn:schemas-microsoft-com:datatypes"><Description dt:dt="string">E-Prime Primary Realtime Clock</Description><StartTime><Timestamp dt:dt="int">0</Timestamp><DateUtc dt:dt="string">2015-08-18T12:22:22Z</DateUtc></StartTime><FrequencyChanges><FrequencyChange><Frequency dt:dt="r8">2612294</Frequency><Timestamp dt:dt="r8">51772813157</Timestamp><Current dt:dt="r8">0</Current><DateUtc dt:dt="string">2015-08-18T12:22:22Z</DateUtc></FrequencyChange></FrequencyChanges></Clock>\n	1 ver1_main_procedure-36-1	99.938	1.0.0.880	2	pg	233536811	prawa	1	2.0.10.182	08-18-2015	2015-08-18 12:22:22	14:22:22	mezczyzna	2.0.10.92	3	3	1	1																							l	{SPACE}		no	BlockProc1		BlockList									64	Free	dl	color_red.png		-1	7	333209	310																			1					25	prime_left.png	0	332729	0	0	13	0	332729	0	332729	1	332729	20	0	-1	331230	332729	332728	0	prime_left.png	TrialProc1	right	0		0	10	333039	-333039		0	0	TrialList1	target_both.png	0	dl	-1	3	332779	260	l	422	333201												11	1	64				neut			300
1 ver1_main_procedure	36	1	26	<?xml version="1.0"?>\n<Clock xmlns:dt="urn:schemas-microsoft-com:datatypes"><Description dt:dt="string">E-Prime Primary Realtime Clock</Description><StartTime><Timestamp dt:dt="int">0</Timestamp><DateUtc dt:dt="string">2015-08-18T12:22:22Z</DateUtc></StartTime><FrequencyChanges><FrequencyChange><Frequency dt:dt="r8">2612294</Frequency><Timestamp dt:dt="r8">51772813157</Timestamp><Current dt:dt="r8">0</Current><DateUtc dt:dt="string">2015-08-18T12:22:22Z</DateUtc></FrequencyChange></FrequencyChanges></Clock>\n	1 ver1_main_procedure-36-1	99.938	1.0.0.880	2	pg	233536811	prawa	1	2.0.10.182	08-18-2015	2015-08-18 12:22:22	14:22:22	mezczyzna	2.0.10.92	3	3	1	1																							l	{SPACE}		no	BlockProc1		BlockList									65	Cued	l	color_yellow.png		-1	7	335881	310																								75	prime_right.png	0	335330	0	0	13	0	335331	0	335330	0	335330	20	0	-1	333831	335330	335330	0		TrialProc1	right	0		0	11	335641	-335641		0	0	TrialList1	target_right.png	1	l	-1	3	335380	261	l	493	335873												4	1	65				comp			300
1 ver1_main_procedure	36	1	26	<?xml version="1.0"?>\n<Clock xmlns:dt="urn:schemas-microsoft-com:datatypes"><Description dt:dt="string">E-Prime Primary Realtime Clock</Description><StartTime><Timestamp dt:dt="int">0</Timestamp><DateUtc dt:dt="string">2015-08-18T12:22:22Z</DateUtc></StartTime><FrequencyChanges><FrequencyChange><Frequency dt:dt="r8">2612294</Frequency><Timestamp dt:dt="r8">51772813157</Timestamp><Current dt:dt="r8">0</Current><DateUtc dt:dt="string">2015-08-18T12:22:22Z</DateUtc></FrequencyChange></FrequencyChanges></Clock>\n	1 ver1_main_procedure-36-1	99.938	1.0.0.880	2	pg	233536811	prawa	1	2.0.10.182	08-18-2015	2015-08-18 12:22:22	14:22:22	mezczyzna	2.0.10.92	3	3	1	1																							l	{SPACE}		no	BlockProc1		BlockList									66	Cued	l	color_red.png		-1	10	338412	461																			2					75	prime_right.png	0	338002	0	0	13	0	338002	0	338002	1	338002	20	0	-1	336503	338002	338001	0	prime_right.png	TrialProc1	right	0		0	10	338312	-338312		0	0	TrialList1	target_right.png	1	l	-1	3	338052	260	l	349	338401												5	1	66				neut			450
1 ver1_main_procedure	36	1	26	<?xml version="1.0"?>\n<Clock xmlns:dt="urn:schemas-microsoft-com:datatypes"><Description dt:dt="string">E-Prime Primary Realtime Clock</Description><StartTime><Timestamp dt:dt="int">0</Timestamp><DateUtc dt:dt="string">2015-08-18T12:22:22Z</DateUtc></StartTime><FrequencyChanges><FrequencyChange><Frequency dt:dt="r8">2612294</Frequency><Timestamp dt:dt="r8">51772813157</Timestamp><Current dt:dt="r8">0</Current><DateUtc dt:dt="string">2015-08-18T12:22:22Z</DateUtc></FrequencyChange></FrequencyChanges></Clock>\n	1 ver1_main_procedure-36-1	99.938	1.0.0.880	2	pg	233536811	prawa	1	2.0.10.182	08-18-2015	2015-08-18 12:22:22	14:22:22	mezczyzna	2.0.10.92	3	3	1	1																							l	{SPACE}		no	BlockProc1		BlockList									67	Cued	l	color_yellow.png		-1	12	341054	460																								75	prime_right.png	0	340684	0	0	13	0	340684	0	340684	1	340684	20	0	-1	339184	340684	340683	0		TrialProc1	right	0		0	10	340994	-340994		0	0	TrialList1	target_right.png	1	l	-1	3	340734	260	l	307	341041												4	1	67				comp			450
1 ver1_main_procedure	36	1	26	<?xml version="1.0"?>\n<Clock xmlns:dt="urn:schemas-microsoft-com:datatypes"><Description dt:dt="string">E-Prime Primary Realtime Clock</Description><StartTime><Timestamp dt:dt="int">0</Timestamp><DateUtc dt:dt="string">2015-08-18T12:22:22Z</DateUtc></StartTime><FrequencyChanges><FrequencyChange><Frequency dt:dt="r8">2612294</Frequency><Timestamp dt:dt="r8">51772813157</Timestamp><Current dt:dt="r8">0</Current><DateUtc dt:dt="string">2015-08-18T12:22:22Z</DateUtc></FrequencyChange></FrequencyChanges></Clock>\n	1 ver1_main_procedure-36-1	99.938	1.0.0.880	2	pg	233536811	prawa	1	2.0.10.182	08-18-2015	2015-08-18 12:22:22	14:22:22	mezczyzna	2.0.10.92	3	3	1	1																							l	{SPACE}		no	BlockProc1		BlockList									68	Cued	l	color_yellow.png		-1	13	343775	311																								25	prime_right.png	0	343325	0	0	13	0	343325	0	343325	1	343325	20	0	-1	341826	343325	343324	0		TrialProc1	right	0		1	10	343635	-343635		0	0	TrialList1	target_right.png	1	l	-1	3	343375	260	l	386	343761												4	1	68				comp			300
1 ver1_main_procedure	36	1	26	<?xml version="1.0"?>\n<Clock xmlns:dt="urn:schemas-microsoft-com:datatypes"><Description dt:dt="string">E-Prime Primary Realtime Clock</Description><StartTime><Timestamp dt:dt="int">0</Timestamp><DateUtc dt:dt="string">2015-08-18T12:22:22Z</DateUtc></StartTime><FrequencyChanges><FrequencyChange><Frequency dt:dt="r8">2612294</Frequency><Timestamp dt:dt="r8">51772813157</Timestamp><Current dt:dt="r8">0</Current><DateUtc dt:dt="string">2015-08-18T12:22:22Z</DateUtc></FrequencyChange></FrequencyChanges></Clock>\n	1 ver1_main_procedure-36-1	99.938	1.0.0.880	2	pg	233536811	prawa	1	2.0.10.182	08-18-2015	2015-08-18 12:22:22	14:22:22	mezczyzna	2.0.10.92	3	3	1	1																							l	{SPACE}		no	BlockProc1		BlockList									69	Cued	l	color_orange.png		-1	5	346287	310																								75	prime_left.png	0	345897	0	0	13	0	345897	0	345897	1	345897	20	0	-1	344398	345897	345896	0		TrialProc1	right	0		0	10	346207	-346207		0	0	TrialList1	target_right.png	1	l	-1	3	345947	260	l	334	346281												6	1	69				incomp			300
1 ver1_main_procedure	36	1	26	<?xml version="1.0"?>\n<Clock xmlns:dt="urn:schemas-microsoft-com:datatypes"><Description dt:dt="string">E-Prime Primary Realtime Clock</Description><StartTime><Timestamp dt:dt="int">0</Timestamp><DateUtc dt:dt="string">2015-08-18T12:22:22Z</DateUtc></StartTime><FrequencyChanges><FrequencyChange><Frequency dt:dt="r8">2612294</Frequency><Timestamp dt:dt="r8">51772813157</Timestamp><Current dt:dt="r8">0</Current><DateUtc dt:dt="string">2015-08-18T12:22:22Z</DateUtc></FrequencyChange></FrequencyChanges></Clock>\n	1 ver1_main_procedure-36-1	99.938	1.0.0.880	2	pg	233536811	prawa	1	2.0.10.182	08-18-2015	2015-08-18 12:22:22	14:22:22	mezczyzna	2.0.10.92	3	3	1	1																							l	{SPACE}		no	BlockProc1		BlockList									70	Cued	l	color_yellow.png		-1	13	349079	460																								75	prime_right.png	0	348408	0	0	13	0	348408	0	348408	1	348408	20	0	-1	346909	348408	348407	0		TrialProc1	right	0		1	10	348718	-348718		0	0	TrialList1	target_right.png	1	l	-1	3	348458	260	l	607	349065												4	1	70				comp			450
1 ver1_main_procedure	36	1	26	<?xml version="1.0"?>\n<Clock xmlns:dt="urn:schemas-microsoft-com:datatypes"><Description dt:dt="string">E-Prime Primary Realtime Clock</Description><StartTime><Timestamp dt:dt="int">0</Timestamp><DateUtc dt:dt="string">2015-08-18T12:22:22Z</DateUtc></StartTime><FrequencyChanges><FrequencyChange><Frequency dt:dt="r8">2612294</Frequency><Timestamp dt:dt="r8">51772813157</Timestamp><Current dt:dt="r8">0</Current><DateUtc dt:dt="string">2015-08-18T12:22:22Z</DateUtc></FrequencyChange></FrequencyChanges></Clock>\n	1 ver1_main_procedure-36-1	99.938	1.0.0.880	2	pg	233536811	prawa	1	2.0.10.182	08-18-2015	2015-08-18 12:22:22	14:22:22	mezczyzna	2.0.10.92	3	3	1	1																							l	{SPACE}		no	BlockProc1		BlockList									71	Cued	d	color_blue.png		-1	8	351730	310																								25	prime_left.png	0	351350	0	0	13	0	351350	0	351350	1	351350	20	0	-1	349851	351350	351349	0		TrialProc1	left	0		0	10	351660	-351660		0	0	TrialList1	target_left.png	1	d	-1	3	351400	260	d	322	351722												1	1	71				comp			300
1 ver1_main_procedure	36	1	26	<?xml version="1.0"?>\n<Clock xmlns:dt="urn:schemas-microsoft-com:datatypes"><Description dt:dt="string">E-Prime Primary Realtime Clock</Description><StartTime><Timestamp dt:dt="int">0</Timestamp><DateUtc dt:dt="string">2015-08-18T12:22:22Z</DateUtc></StartTime><FrequencyChanges><FrequencyChange><Frequency dt:dt="r8">2612294</Frequency><Timestamp dt:dt="r8">51772813157</Timestamp><Current dt:dt="r8">0</Current><DateUtc dt:dt="string">2015-08-18T12:22:22Z</DateUtc></FrequencyChange></FrequencyChanges></Clock>\n	1 ver1_main_procedure-36-1	99.938	1.0.0.880	2	pg	233536811	prawa	1	2.0.10.182	08-18-2015	2015-08-18 12:22:22	14:22:22	mezczyzna	2.0.10.92	3	3	1	1																							l	{SPACE}		no	BlockProc1		BlockList									72	Cued	l	color_red.png		-1	6	354312	160																			1					75	prime_left.png	1	353852	0	0	13	1	353852	1	353852	0	353851	20	0	-1	352352	353851	353851	0	prime_left.png	TrialProc1	right	0		0	11	354162	-354162		0	0	TrialList1	target_right.png	1	l	-1	3	353901	261	l	404	354305												5	1	72				neut			150
1 ver1_main_procedure	36	1	26	<?xml version="1.0"?>\n<Clock xmlns:dt="urn:schemas-microsoft-com:datatypes"><Description dt:dt="string">E-Prime Primary Realtime Clock</Description><StartTime><Timestamp dt:dt="int">0</Timestamp><DateUtc dt:dt="string">2015-08-18T12:22:22Z</DateUtc></StartTime><FrequencyChanges><FrequencyChange><Frequency dt:dt="r8">2612294</Frequency><Timestamp dt:dt="r8">51772813157</Timestamp><Current dt:dt="r8">0</Current><DateUtc dt:dt="string">2015-08-18T12:22:22Z</DateUtc></FrequencyChange></FrequencyChanges></Clock>\n	1 ver1_main_procedure-36-1	99.938	1.0.0.880	2	pg	233536811	prawa	1	2.0.10.182	08-18-2015	2015-08-18 12:22:22	14:22:22	mezczyzna	2.0.10.92	3	3	1	1																							l	{SPACE}		no	BlockProc1		BlockList									73									3	4	2	1	5	6	color_green.png	color_orange.png	color_red.png	color_purple.png	color_yellow.png	color_blue.png	color_purple.png	color_red.png	color_green.png	color_orange.png	color_yellow.png	color_blue.png		1	1	1	37584																						DragProc											Ocena																															
1 ver1_main_procedure	36	1	26	<?xml version="1.0"?>\n<Clock xmlns:dt="urn:schemas-microsoft-com:datatypes"><Description dt:dt="string">E-Prime Primary Realtime Clock</Description><StartTime><Timestamp dt:dt="int">0</Timestamp><DateUtc dt:dt="string">2015-08-18T12:22:22Z</DateUtc></StartTime><FrequencyChanges><FrequencyChange><Frequency dt:dt="r8">2612294</Frequency><Timestamp dt:dt="r8">51772813157</Timestamp><Current dt:dt="r8">0</Current><DateUtc dt:dt="string">2015-08-18T12:22:22Z</DateUtc></FrequencyChange></FrequencyChanges></Clock>\n	1 ver1_main_procedure-36-1	99.938	1.0.0.880	2	pg	233536811	prawa	1	2.0.10.182	08-18-2015	2015-08-18 12:22:22	14:22:22	mezczyzna	2.0.10.92	3	3	1	1																							l	{SPACE}		no	BlockProc1		BlockList									74				Liczby muszą być przypisane w sposób rosnący.											color_green.png	color_orange.png	color_red.png	color_purple.png	color_yellow.png	color_blue.png								2	1	2																							EnterProc											Ocena												30	31	50	51	60	70														
1 ver1_main_procedure	36	1	26	<?xml version="1.0"?>\n<Clock xmlns:dt="urn:schemas-microsoft-com:datatypes"><Description dt:dt="string">E-Prime Primary Realtime Clock</Description><StartTime><Timestamp dt:dt="int">0</Timestamp><DateUtc dt:dt="string">2015-08-18T12:22:22Z</DateUtc></StartTime><FrequencyChanges><FrequencyChange><Frequency dt:dt="r8">2612294</Frequency><Timestamp dt:dt="r8">51772813157</Timestamp><Current dt:dt="r8">0</Current><DateUtc dt:dt="string">2015-08-18T12:22:22Z</DateUtc></FrequencyChange></FrequencyChanges></Clock>\n	1 ver1_main_procedure-36-1	99.938	1.0.0.880	2	pg	233536811	prawa	1	2.0.10.182	08-18-2015	2015-08-18 12:22:22	14:22:22	mezczyzna	2.0.10.92	4	4	1	2																							d	{SPACE}		no	BlockProc2		BlockList									1	Free	dl	color_purple.png		-1	7	522773	160																			2					75	prime_right.png	0	522132	0	0	13	0	522132	0	522132	1	522132	20	0	-1	520633	522132	522131	0	prime_right.png	TrialProc1	left	0		1	10	522442	-522442		0	0	TrialList2	target_both.png	0	dl	-1	3	522182	260	l	583	522765															8	1	1	neut			150
1 ver1_main_procedure	36	1	26	<?xml version="1.0"?>\n<Clock xmlns:dt="urn:schemas-microsoft-com:datatypes"><Description dt:dt="string">E-Prime Primary Realtime Clock</Description><StartTime><Timestamp dt:dt="int">0</Timestamp><DateUtc dt:dt="string">2015-08-18T12:22:22Z</DateUtc></StartTime><FrequencyChanges><FrequencyChange><Frequency dt:dt="r8">2612294</Frequency><Timestamp dt:dt="r8">51772813157</Timestamp><Current dt:dt="r8">0</Current><DateUtc dt:dt="string">2015-08-18T12:22:22Z</DateUtc></FrequencyChange></FrequencyChanges></Clock>\n	1 ver1_main_procedure-36-1	99.938	1.0.0.880	2	pg	233536811	prawa	1	2.0.10.182	08-18-2015	2015-08-18 12:22:22	14:22:22	mezczyzna	2.0.10.92	4	4	1	2																							d	{SPACE}		no	BlockProc2		BlockList									2	Cued	l	color_red.png		-1	14	525404	160																								25	prime_left.png	0	524744	0	0	13	0	524744	0	524744	1	524744	20	0	-1	523245	524744	524743	0		TrialProc1	right	0		0	10	525054	-525054		0	0	TrialList2	target_right.png	1	l	-1	3	524794	260	l	596	525390															6	1	2	incomp			150
1 ver1_main_procedure	36	1	26	<?xml version="1.0"?>\n<Clock xmlns:dt="urn:schemas-microsoft-com:datatypes"><Description dt:dt="string">E-Prime Primary Realtime Clock</Description><StartTime><Timestamp dt:dt="int">0</Timestamp><DateUtc dt:dt="string">2015-08-18T12:22:22Z</DateUtc></StartTime><FrequencyChanges><FrequencyChange><Frequency dt:dt="r8">2612294</Frequency><Timestamp dt:dt="r8">51772813157</Timestamp><Current dt:dt="r8">0</Current><DateUtc dt:dt="string">2015-08-18T12:22:22Z</DateUtc></FrequencyChange></FrequencyChanges></Clock>\n	1 ver1_main_procedure-36-1	99.938	1.0.0.880	2	pg	233536811	prawa	1	2.0.10.182	08-18-2015	2015-08-18 12:22:22	14:22:22	mezczyzna	2.0.10.92	4	4	1	2																							d	{SPACE}		no	BlockProc2		BlockList									3	Free	dl	color_green.png		-1	12	527746	160																								25	prime_left.png	0	527375	0	0	13	0	527376	0	527375	0	527375	20	0	-1	525876	527375	527375	0		TrialProc1	left	0		0	11	527686	-527686		0	0	TrialList2	target_both.png	0	dl	-1	3	527425	261	d	309	527734															7	1	3	comp			150
1 ver1_main_procedure	36	1	26	<?xml version="1.0"?>\n<Clock xmlns:dt="urn:schemas-microsoft-com:datatypes"><Description dt:dt="string">E-Prime Primary Realtime Clock</Description><StartTime><Timestamp dt:dt="int">0</Timestamp><DateUtc dt:dt="string">2015-08-18T12:22:22Z</DateUtc></StartTime><FrequencyChanges><FrequencyChange><Frequency dt:dt="r8">2612294</Frequency><Timestamp dt:dt="r8">51772813157</Timestamp><Current dt:dt="r8">0</Current><DateUtc dt:dt="string">2015-08-18T12:22:22Z</DateUtc></FrequencyChange></FrequencyChanges></Clock>\n	1 ver1_main_procedure-36-1	99.938	1.0.0.880	2	pg	233536811	prawa	1	2.0.10.182	08-18-2015	2015-08-18 12:22:22	14:22:22	mezczyzna	2.0.10.92	4	4	1	2																							d	{SPACE}		no	BlockProc2		BlockList									4	Free	dl	color_red.png		-1	11	530337	460																								25	prime_left.png	0	529717	0	0	13	0	529717	0	529717	1	529717	20	0	-1	528217	529717	529716	0		TrialProc1	left	0		0	10	530027	-530027		0	0	TrialList2	target_both.png	0	dl	-1	3	529767	260	l	559	530326															7	1	4	comp			450
1 ver1_main_procedure	36	1	26	<?xml version="1.0"?>\n<Clock xmlns:dt="urn:schemas-microsoft-com:datatypes"><Description dt:dt="string">E-Prime Primary Realtime Clock</Description><StartTime><Timestamp dt:dt="int">0</Timestamp><DateUtc dt:dt="string">2015-08-18T12:22:22Z</DateUtc></StartTime><FrequencyChanges><FrequencyChange><Frequency dt:dt="r8">2612294</Frequency><Timestamp dt:dt="r8">51772813157</Timestamp><Current dt:dt="r8">0</Current><DateUtc dt:dt="string">2015-08-18T12:22:22Z</DateUtc></FrequencyChange></FrequencyChanges></Clock>\n	1 ver1_main_procedure-36-1	99.938	1.0.0.880	2	pg	233536811	prawa	1	2.0.10.182	08-18-2015	2015-08-18 12:22:22	14:22:22	mezczyzna	2.0.10.92	4	4	1	2																							d	{SPACE}		no	BlockProc2		BlockList									5	Cued	d	color_green.png		-1	15	533149	160																								75	prime_left.png	1	532609	0	0	13	1	532609	1	532609	0	532608	20	0	-1	531109	532608	532608	0		TrialProc1	left	0		0	11	532919	-532919		0	0	TrialList2	target_left.png	1	d	-1	3	532658	261	d	476	533134															1	1	5	comp			150
1 ver1_main_procedure	36	1	26	<?xml version="1.0"?>\n<Clock xmlns:dt="urn:schemas-microsoft-com:datatypes"><Description dt:dt="string">E-Prime Primary Realtime Clock</Description><StartTime><Timestamp dt:dt="int">0</Timestamp><DateUtc dt:dt="string">2015-08-18T12:22:22Z</DateUtc></StartTime><FrequencyChanges><FrequencyChange><Frequency dt:dt="r8">2612294</Frequency><Timestamp dt:dt="r8">51772813157</Timestamp><Current dt:dt="r8">0</Current><DateUtc dt:dt="string">2015-08-18T12:22:22Z</DateUtc></FrequencyChange></FrequencyChanges></Clock>\n	1 ver1_main_procedure-36-1	99.938	1.0.0.880	2	pg	233536811	prawa	1	2.0.10.182	08-18-2015	2015-08-18 12:22:22	14:22:22	mezczyzna	2.0.10.92	4	4	1	2																							d	{SPACE}		no	BlockProc2		BlockList									6	Free	dl	color_orange.png		-1	14	535660	160																								25	prime_right.png	0	535120	0	0	13	0	535120	0	535120	1	535120	20	0	-1	533621	535120	535119	0		TrialProc1	right	0		0	10	535430	-535430		0	0	TrialList2	target_both.png	0	dl	-1	3	535170	260	l	476	535646															10	1	6	comp			150
1 ver1_main_procedure	36	1	26	<?xml version="1.0"?>\n<Clock xmlns:dt="urn:schemas-microsoft-com:datatypes"><Description dt:dt="string">E-Prime Primary Realtime Clock</Description><StartTime><Timestamp dt:dt="int">0</Timestamp><DateUtc dt:dt="string">2015-08-18T12:22:22Z</DateUtc></StartTime><FrequencyChanges><FrequencyChange><Frequency dt:dt="r8">2612294</Frequency><Timestamp dt:dt="r8">51772813157</Timestamp><Current dt:dt="r8">0</Current><DateUtc dt:dt="string">2015-08-18T12:22:22Z</DateUtc></FrequencyChange></FrequencyChanges></Clock>\n	1 ver1_main_procedure-36-1	99.938	1.0.0.880	2	pg	233536811	prawa	1	2.0.10.182	08-18-2015	2015-08-18 12:22:22	14:22:22	mezczyzna	2.0.10.92	4	4	1	2																							d	{SPACE}		no	BlockProc2		BlockList									7	Cued	d	color_yellow.png		-1	13	538092	160																			1					75	prime_left.png	1	537632	0	0	13	1	537632	1	537632	0	537631	20	0	-1	536132	537631	537631	0	prime_left.png	TrialProc1	left	0		0	10	537942	-537942		0	0	TrialList2	target_left.png	1	d	-1	4	537682	260	d	396	538078															2	1	7	neut			150
1 ver1_main_procedure	36	1	26	<?xml version="1.0"?>\n<Clock xmlns:dt="urn:schemas-microsoft-com:datatypes"><Description dt:dt="string">E-Prime Primary Realtime Clock</Description><StartTime><Timestamp dt:dt="int">0</Timestamp><DateUtc dt:dt="string">2015-08-18T12:22:22Z</DateUtc></StartTime><FrequencyChanges><FrequencyChange><Frequency dt:dt="r8">2612294</Frequency><Timestamp dt:dt="r8">51772813157</Timestamp><Current dt:dt="r8">0</Current><DateUtc dt:dt="string">2015-08-18T12:22:22Z</DateUtc></FrequencyChange></FrequencyChanges></Clock>\n	1 ver1_main_procedure-36-1	99.938	1.0.0.880	2	pg	233536811	prawa	1	2.0.10.182	08-18-2015	2015-08-18 12:22:22	14:22:22	mezczyzna	2.0.10.92	4	4	1	2																							d	{SPACE}		no	BlockProc2		BlockList									8	Cued	l	color_red.png		-1	6	540413	310																								25	prime_left.png	0	540063	0	0	13	0	540063	0	540063	1	540063	20	0	-1	538564	540063	540062	0		TrialProc1	right	0		0	10	540373	-540373		0	0	TrialList2	target_right.png	1	l	-1	3	540113	260	l	293	540406															6	1	8	incomp			300
1 ver1_main_procedure	36	1	26	<?xml version="1.0"?>\n<Clock xmlns:dt="urn:schemas-microsoft-com:datatypes"><Description dt:dt="string">E-Prime Primary Realtime Clock</Description><StartTime><Timestamp dt:dt="int">0</Timestamp><DateUtc dt:dt="string">2015-08-18T12:22:22Z</DateUtc></StartTime><FrequencyChanges><FrequencyChange><Frequency dt:dt="r8">2612294</Frequency><Timestamp dt:dt="r8">51772813157</Timestamp><Current dt:dt="r8">0</Current><DateUtc dt:dt="string">2015-08-18T12:22:22Z</DateUtc></FrequencyChange></FrequencyChanges></Clock>\n	1 ver1_main_procedure-36-1	99.938	1.0.0.880	2	pg	233536811	prawa	1	2.0.10.182	08-18-2015	2015-08-18 12:22:22	14:22:22	mezczyzna	2.0.10.92	4	4	1	2																							d	{SPACE}		no	BlockProc2		BlockList									9	Free	dl	color_blue.png		-1	6	543085	460																								25	prime_right.png	1	542535	0	0	13	1	542535	1	542535	1	542534	20	0	-1	541035	542534	542533	0		TrialProc1	left	0		0	11	542845	-542845		0	0	TrialList2	target_both.png	0	dl	-1	3	542584	261	d	494	543078															9	1	9	incomp			450
