ExperimentName	Subject	Session	Age	Clock.Information	DataFile.Basename	Display.RefreshRate	ExperimentVersion	Group	Name	RandomSeed	Recznosc	ResearcherID	RuntimeVersion	SessionDate	SessionStartDateTimeUtc	SessionTime	Sex	StudioVersion	Block	BlockList	BlockList.Cycle	BlockList.Sample	BlockNumber	GoodBye.RESP	GoodBye2.RESP	GoodByeList	GoodByeList.Cycle	GoodByeList.Sample	InstrList	InstrList.Cycle	InstrList.Sample	Instructions3.RESP	Instructions4.RESP	Instructions5.RESP	kobieta_S1	kobieta_S2	kobieta_S3	kobieta_S4	kobieta_S5	mezczyzna_S1	mezczyzna_S2	mezczyzna_S3	mezczyzna_S4	mezczyzna_S5	NextBlock.RESP	NextBlock0.RESP	planowanie	PracticeMode	Procedure[Block]	proszenie	Running[Block]	TrainingList	TrainingList.Cycle	TrainingList.Sample	WordList	WordList1	wykonanie	zauwazenie	zrozumienie	Trial	ChoiceType	CorrectRespon	Effect	ErrorText	Fixation2.DurationError	Fixation2.OnsetDelay	Fixation2.OnsetTime	Fixation2.OnsetToOnsetTime	GoalRespInd1	GoalRespInd2	GoalRespInd3	GoalRespInd4	GoalRespInd5	GoalRespInd6	GoalRespName1	GoalRespName2	GoalRespName3	GoalRespName4	GoalRespName5	GoalRespName6	kol1	kol2	kol3	kol4	kol5	kol6	NeutralPrimeList1	Ocena	Ocena.Cycle	Ocena.Sample	OverallRT	Posit	Prime	Prime.ActionDelay	Prime.ActionTime	Prime.CustomOffsetTime	Prime.CustomOnsetTime	Prime.Duration	Prime.DurationError	Prime.FinishTime	Prime.OffsetDelay	Prime.OffsetTime	Prime.OnsetDelay	Prime.OnsetTime	Prime.OnsetToOnsetTime	Prime.PendingInputMasks	Prime.PreRelease	Prime.StartTime	Prime.TargetOffsetTime	Prime.TargetOnsetTime	Prime.TimingMode	PrimeChoice	Procedure[Trial]	Resp	RespWin.ACC	RespWin.CRESP	RespWin.DurationError	RespWin.OnsetDelay	RespWin.OnsetTime	RespWin.OnsetToOnsetTime	RespWin.RESP	RespWin.RT	RespWin.RTTime	Running[Trial]	Target	TargetSlide.ACC	TargetSlide.CRESP	TargetSlide.DurationError	TargetSlide.OnsetDelay	TargetSlide.OnsetTime	TargetSlide.OnsetToOnsetTime	TargetSlide.RESP	TargetSlide.RT	TargetSlide.RTTime	TargetTraining	TBox1	TBox2	TBox3	TBox4	TBox5	TBox6	TrainingList1	TrainingList1.Cycle	TrainingList1.Sample	TrCorrectResp	TrialList1	TrialList1.Cycle	TrialList1.Sample	TrialList2	TrialList2.Cycle	TrialList2.Sample	TrialType	TrPosit	TrWaitTime	WaitTime
1 ver1_main_procedure	37	1	22	<?xml version="1.0"?>\n<Clock xmlns:dt="urn:schemas-microsoft-com:datatypes"><Description dt:dt="string">E-Prime Primary Realtime Clock</Description><StartTime><Timestamp dt:dt="int">0</Timestamp><DateUtc dt:dt="string">2015-08-18T13:35:46Z</DateUtc></StartTime><FrequencyChanges><FrequencyChange><Frequency dt:dt="r8">2441386</Frequency><Timestamp dt:dt="r8">50920604896</Timestamp><Current dt:dt="r8">0</Current><DateUtc dt:dt="string">2015-08-18T13:35:46Z</DateUtc></FrequencyChange></FrequencyChanges></Clock>\n	1 ver1_main_procedure-37-1	99.925	1.0.0.880	1	wr	-618511088	prawa	1	2.0.10.356	08-18-2015	2015-08-18 13:35:46	15:35:46	mezczyzna	2.0.10.92	1										1	1	1	{SPACE}	{SPACE}	d	poproszona	planowała	zrozumiałaś	wykonała		poproszony	planował	zrozumiałeś	wykonał				planował		InstrProc	poproszony	InstrList				1		wykonał		zrozumiałeś																																																																																																
1 ver1_main_procedure	37	1	22	<?xml version="1.0"?>\n<Clock xmlns:dt="urn:schemas-microsoft-com:datatypes"><Description dt:dt="string">E-Prime Primary Realtime Clock</Description><StartTime><Timestamp dt:dt="int">0</Timestamp><DateUtc dt:dt="string">2015-08-18T13:35:46Z</DateUtc></StartTime><FrequencyChanges><FrequencyChange><Frequency dt:dt="r8">2441386</Frequency><Timestamp dt:dt="r8">50920604896</Timestamp><Current dt:dt="r8">0</Current><DateUtc dt:dt="string">2015-08-18T13:35:46Z</DateUtc></FrequencyChange></FrequencyChanges></Clock>\n	1 ver1_main_procedure-37-1	99.925	1.0.0.880	1	wr	-618511088	prawa	1	2.0.10.356	08-18-2015	2015-08-18 13:35:46	15:35:46	mezczyzna	2.0.10.92	2																														TrainingProc1		TrainingList	1	1	1						1																																																					TrainProc											TrainingList1											target_left.png							1	1	1	d								25	150	
1 ver1_main_procedure	37	1	22	<?xml version="1.0"?>\n<Clock xmlns:dt="urn:schemas-microsoft-com:datatypes"><Description dt:dt="string">E-Prime Primary Realtime Clock</Description><StartTime><Timestamp dt:dt="int">0</Timestamp><DateUtc dt:dt="string">2015-08-18T13:35:46Z</DateUtc></StartTime><FrequencyChanges><FrequencyChange><Frequency dt:dt="r8">2441386</Frequency><Timestamp dt:dt="r8">50920604896</Timestamp><Current dt:dt="r8">0</Current><DateUtc dt:dt="string">2015-08-18T13:35:46Z</DateUtc></FrequencyChange></FrequencyChanges></Clock>\n	1 ver1_main_procedure-37-1	99.925	1.0.0.880	1	wr	-618511088	prawa	1	2.0.10.356	08-18-2015	2015-08-18 13:35:46	15:35:46	mezczyzna	2.0.10.92	2																														TrainingProc1		TrainingList	1	1	1						2																																																					TrainProc											TrainingList1											target_both.png							3	1	2	dl								25	150	
1 ver1_main_procedure	37	1	22	<?xml version="1.0"?>\n<Clock xmlns:dt="urn:schemas-microsoft-com:datatypes"><Description dt:dt="string">E-Prime Primary Realtime Clock</Description><StartTime><Timestamp dt:dt="int">0</Timestamp><DateUtc dt:dt="string">2015-08-18T13:35:46Z</DateUtc></StartTime><FrequencyChanges><FrequencyChange><Frequency dt:dt="r8">2441386</Frequency><Timestamp dt:dt="r8">50920604896</Timestamp><Current dt:dt="r8">0</Current><DateUtc dt:dt="string">2015-08-18T13:35:46Z</DateUtc></FrequencyChange></FrequencyChanges></Clock>\n	1 ver1_main_procedure-37-1	99.925	1.0.0.880	1	wr	-618511088	prawa	1	2.0.10.356	08-18-2015	2015-08-18 13:35:46	15:35:46	mezczyzna	2.0.10.92	2																														TrainingProc1		TrainingList	1	1	1						3																																																					TrainProc											TrainingList1											target_right.png							2	1	3	l								75	450	
1 ver1_main_procedure	37	1	22	<?xml version="1.0"?>\n<Clock xmlns:dt="urn:schemas-microsoft-com:datatypes"><Description dt:dt="string">E-Prime Primary Realtime Clock</Description><StartTime><Timestamp dt:dt="int">0</Timestamp><DateUtc dt:dt="string">2015-08-18T13:35:46Z</DateUtc></StartTime><FrequencyChanges><FrequencyChange><Frequency dt:dt="r8">2441386</Frequency><Timestamp dt:dt="r8">50920604896</Timestamp><Current dt:dt="r8">0</Current><DateUtc dt:dt="string">2015-08-18T13:35:46Z</DateUtc></FrequencyChange></FrequencyChanges></Clock>\n	1 ver1_main_procedure-37-1	99.925	1.0.0.880	1	wr	-618511088	prawa	1	2.0.10.356	08-18-2015	2015-08-18 13:35:46	15:35:46	mezczyzna	2.0.10.92	2																														TrainingProc1		TrainingList	1	1	1						4																																																					TrainProc											TrainingList1											target_right.png							2	1	4	l								25	450	
1 ver1_main_procedure	37	1	22	<?xml version="1.0"?>\n<Clock xmlns:dt="urn:schemas-microsoft-com:datatypes"><Description dt:dt="string">E-Prime Primary Realtime Clock</Description><StartTime><Timestamp dt:dt="int">0</Timestamp><DateUtc dt:dt="string">2015-08-18T13:35:46Z</DateUtc></StartTime><FrequencyChanges><FrequencyChange><Frequency dt:dt="r8">2441386</Frequency><Timestamp dt:dt="r8">50920604896</Timestamp><Current dt:dt="r8">0</Current><DateUtc dt:dt="string">2015-08-18T13:35:46Z</DateUtc></FrequencyChange></FrequencyChanges></Clock>\n	1 ver1_main_procedure-37-1	99.925	1.0.0.880	1	wr	-618511088	prawa	1	2.0.10.356	08-18-2015	2015-08-18 13:35:46	15:35:46	mezczyzna	2.0.10.92	2																														TrainingProc1		TrainingList	1	1	1						5																																																					TrainProc											TrainingList1											target_left.png							1	1	5	d								75	450	
1 ver1_main_procedure	37	1	22	<?xml version="1.0"?>\n<Clock xmlns:dt="urn:schemas-microsoft-com:datatypes"><Description dt:dt="string">E-Prime Primary Realtime Clock</Description><StartTime><Timestamp dt:dt="int">0</Timestamp><DateUtc dt:dt="string">2015-08-18T13:35:46Z</DateUtc></StartTime><FrequencyChanges><FrequencyChange><Frequency dt:dt="r8">2441386</Frequency><Timestamp dt:dt="r8">50920604896</Timestamp><Current dt:dt="r8">0</Current><DateUtc dt:dt="string">2015-08-18T13:35:46Z</DateUtc></FrequencyChange></FrequencyChanges></Clock>\n	1 ver1_main_procedure-37-1	99.925	1.0.0.880	1	wr	-618511088	prawa	1	2.0.10.356	08-18-2015	2015-08-18 13:35:46	15:35:46	mezczyzna	2.0.10.92	2																														TrainingProc1		TrainingList	1	1	1						6																																																					TrainProc											TrainingList1											target_left.png							1	1	6	d								75	300	
1 ver1_main_procedure	37	1	22	<?xml version="1.0"?>\n<Clock xmlns:dt="urn:schemas-microsoft-com:datatypes"><Description dt:dt="string">E-Prime Primary Realtime Clock</Description><StartTime><Timestamp dt:dt="int">0</Timestamp><DateUtc dt:dt="string">2015-08-18T13:35:46Z</DateUtc></StartTime><FrequencyChanges><FrequencyChange><Frequency dt:dt="r8">2441386</Frequency><Timestamp dt:dt="r8">50920604896</Timestamp><Current dt:dt="r8">0</Current><DateUtc dt:dt="string">2015-08-18T13:35:46Z</DateUtc></FrequencyChange></FrequencyChanges></Clock>\n	1 ver1_main_procedure-37-1	99.925	1.0.0.880	1	wr	-618511088	prawa	1	2.0.10.356	08-18-2015	2015-08-18 13:35:46	15:35:46	mezczyzna	2.0.10.92	2																														TrainingProc1		TrainingList	1	1	1						7																																																					TrainProc											TrainingList1											target_right.png							2	1	7	l								25	150	
1 ver1_main_procedure	37	1	22	<?xml version="1.0"?>\n<Clock xmlns:dt="urn:schemas-microsoft-com:datatypes"><Description dt:dt="string">E-Prime Primary Realtime Clock</Description><StartTime><Timestamp dt:dt="int">0</Timestamp><DateUtc dt:dt="string">2015-08-18T13:35:46Z</DateUtc></StartTime><FrequencyChanges><FrequencyChange><Frequency dt:dt="r8">2441386</Frequency><Timestamp dt:dt="r8">50920604896</Timestamp><Current dt:dt="r8">0</Current><DateUtc dt:dt="string">2015-08-18T13:35:46Z</DateUtc></FrequencyChange></FrequencyChanges></Clock>\n	1 ver1_main_procedure-37-1	99.925	1.0.0.880	1	wr	-618511088	prawa	1	2.0.10.356	08-18-2015	2015-08-18 13:35:46	15:35:46	mezczyzna	2.0.10.92	2																														TrainingProc1		TrainingList	1	1	1						8																																																					TrainProc											TrainingList1											target_both.png							3	1	8	dl								25	150	
1 ver1_main_procedure	37	1	22	<?xml version="1.0"?>\n<Clock xmlns:dt="urn:schemas-microsoft-com:datatypes"><Description dt:dt="string">E-Prime Primary Realtime Clock</Description><StartTime><Timestamp dt:dt="int">0</Timestamp><DateUtc dt:dt="string">2015-08-18T13:35:46Z</DateUtc></StartTime><FrequencyChanges><FrequencyChange><Frequency dt:dt="r8">2441386</Frequency><Timestamp dt:dt="r8">50920604896</Timestamp><Current dt:dt="r8">0</Current><DateUtc dt:dt="string">2015-08-18T13:35:46Z</DateUtc></FrequencyChange></FrequencyChanges></Clock>\n	1 ver1_main_procedure-37-1	99.925	1.0.0.880	1	wr	-618511088	prawa	1	2.0.10.356	08-18-2015	2015-08-18 13:35:46	15:35:46	mezczyzna	2.0.10.92	2																														TrainingProc1		TrainingList	1	1	1						9																																																					TrainProc											TrainingList1											target_both.png							3	1	9	dl								25	300	
1 ver1_main_procedure	37	1	22	<?xml version="1.0"?>\n<Clock xmlns:dt="urn:schemas-microsoft-com:datatypes"><Description dt:dt="string">E-Prime Primary Realtime Clock</Description><StartTime><Timestamp dt:dt="int">0</Timestamp><DateUtc dt:dt="string">2015-08-18T13:35:46Z</DateUtc></StartTime><FrequencyChanges><FrequencyChange><Frequency dt:dt="r8">2441386</Frequency><Timestamp dt:dt="r8">50920604896</Timestamp><Current dt:dt="r8">0</Current><DateUtc dt:dt="string">2015-08-18T13:35:46Z</DateUtc></FrequencyChange></FrequencyChanges></Clock>\n	1 ver1_main_procedure-37-1	99.925	1.0.0.880	1	wr	-618511088	prawa	1	2.0.10.356	08-18-2015	2015-08-18 13:35:46	15:35:46	mezczyzna	2.0.10.92	3	3	1	1																							d	{SPACE}		no	BlockProc1		BlockList									1	Cued	d	color_yellow.png		0	10	177197	460																								75	prime_right.png	0	176707	0	0	13	0	176707	0	176707	1	176707	20	0	-1	175208	176707	176706	0		TrialProc1	left	0		0	20	177027	-177027		0	0	TrialList1	target_left.png	1	d	0	3	176757	270	d	429	177186												3	1	1				incomp			450
1 ver1_main_procedure	37	1	22	<?xml version="1.0"?>\n<Clock xmlns:dt="urn:schemas-microsoft-com:datatypes"><Description dt:dt="string">E-Prime Primary Realtime Clock</Description><StartTime><Timestamp dt:dt="int">0</Timestamp><DateUtc dt:dt="string">2015-08-18T13:35:46Z</DateUtc></StartTime><FrequencyChanges><FrequencyChange><Frequency dt:dt="r8">2441386</Frequency><Timestamp dt:dt="r8">50920604896</Timestamp><Current dt:dt="r8">0</Current><DateUtc dt:dt="string">2015-08-18T13:35:46Z</DateUtc></FrequencyChange></FrequencyChanges></Clock>\n	1 ver1_main_procedure-37-1	99.925	1.0.0.880	1	wr	-618511088	prawa	1	2.0.10.356	08-18-2015	2015-08-18 13:35:46	15:35:46	mezczyzna	2.0.10.92	3	3	1	1																							d	{SPACE}		no	BlockProc1		BlockList									2	Cued	l	color_blue.png		0	12	179919	160																								75	prime_left.png	0	179469	0	0	13	0	179469	0	179469	1	179469	20	0	-1	177970	179469	179468	0		TrialProc1	right	0		0	10	179779	-179779		0	0	TrialList1	target_right.png	1	l	0	3	179519	260	l	387	179906												6	1	2				incomp			150
1 ver1_main_procedure	37	1	22	<?xml version="1.0"?>\n<Clock xmlns:dt="urn:schemas-microsoft-com:datatypes"><Description dt:dt="string">E-Prime Primary Realtime Clock</Description><StartTime><Timestamp dt:dt="int">0</Timestamp><DateUtc dt:dt="string">2015-08-18T13:35:46Z</DateUtc></StartTime><FrequencyChanges><FrequencyChange><Frequency dt:dt="r8">2441386</Frequency><Timestamp dt:dt="r8">50920604896</Timestamp><Current dt:dt="r8">0</Current><DateUtc dt:dt="string">2015-08-18T13:35:46Z</DateUtc></FrequencyChange></FrequencyChanges></Clock>\n	1 ver1_main_procedure-37-1	99.925	1.0.0.880	1	wr	-618511088	prawa	1	2.0.10.356	08-18-2015	2015-08-18 13:35:46	15:35:46	mezczyzna	2.0.10.92	3	3	1	1																							d	{SPACE}		no	BlockProc1		BlockList									3	Free	dl	color_yellow.png		0	13	182551	460																								75	prime_right.png	0	181891	0	0	13	0	181891	0	181891	2	181891	20	0	-1	180392	181891	181889	0		TrialProc1	left	0		0	10	182201	-182201		0	0	TrialList1	target_both.png	0	dl	0	3	181941	260	d	596	182537												9	1	3				incomp			450
1 ver1_main_procedure	37	1	22	<?xml version="1.0"?>\n<Clock xmlns:dt="urn:schemas-microsoft-com:datatypes"><Description dt:dt="string">E-Prime Primary Realtime Clock</Description><StartTime><Timestamp dt:dt="int">0</Timestamp><DateUtc dt:dt="string">2015-08-18T13:35:46Z</DateUtc></StartTime><FrequencyChanges><FrequencyChange><Frequency dt:dt="r8">2441386</Frequency><Timestamp dt:dt="r8">50920604896</Timestamp><Current dt:dt="r8">0</Current><DateUtc dt:dt="string">2015-08-18T13:35:46Z</DateUtc></FrequencyChange></FrequencyChanges></Clock>\n	1 ver1_main_procedure-37-1	99.925	1.0.0.880	1	wr	-618511088	prawa	1	2.0.10.356	08-18-2015	2015-08-18 13:35:46	15:35:46	mezczyzna	2.0.10.92	3	3	1	1																							d	{SPACE}		no	BlockProc1		BlockList									4	Free	dl	color_blue.png		0	12	185423	310																								25	prime_left.png	0	184823	0	0	13	0	184823	0	184823	1	184823	20	0	-1	183324	184823	184822	0		TrialProc1	left	0		0	10	185133	-185133		0	0	TrialList1	target_both.png	0	dl	0	3	184873	260	l	538	185411												7	1	4				comp			300
1 ver1_main_procedure	37	1	22	<?xml version="1.0"?>\n<Clock xmlns:dt="urn:schemas-microsoft-com:datatypes"><Description dt:dt="string">E-Prime Primary Realtime Clock</Description><StartTime><Timestamp dt:dt="int">0</Timestamp><DateUtc dt:dt="string">2015-08-18T13:35:46Z</DateUtc></StartTime><FrequencyChanges><FrequencyChange><Frequency dt:dt="r8">2441386</Frequency><Timestamp dt:dt="r8">50920604896</Timestamp><Current dt:dt="r8">0</Current><DateUtc dt:dt="string">2015-08-18T13:35:46Z</DateUtc></FrequencyChange></FrequencyChanges></Clock>\n	1 ver1_main_procedure-37-1	99.925	1.0.0.880	1	wr	-618511088	prawa	1	2.0.10.356	08-18-2015	2015-08-18 13:35:46	15:35:46	mezczyzna	2.0.10.92	3	3	1	1																							d	{SPACE}		no	BlockProc1		BlockList									5	Free	dl	color_purple.png		0	6	188095	310																								25	prime_right.png	0	187545	0	0	13	0	187545	0	187545	1	187545	20	0	-1	186046	187545	187544	0		TrialProc1	right	0		0	10	187855	-187855		0	0	TrialList1	target_both.png	0	dl	0	3	187595	260	l	494	188089												10	1	5				comp			300
1 ver1_main_procedure	37	1	22	<?xml version="1.0"?>\n<Clock xmlns:dt="urn:schemas-microsoft-com:datatypes"><Description dt:dt="string">E-Prime Primary Realtime Clock</Description><StartTime><Timestamp dt:dt="int">0</Timestamp><DateUtc dt:dt="string">2015-08-18T13:35:46Z</DateUtc></StartTime><FrequencyChanges><FrequencyChange><Frequency dt:dt="r8">2441386</Frequency><Timestamp dt:dt="r8">50920604896</Timestamp><Current dt:dt="r8">0</Current><DateUtc dt:dt="string">2015-08-18T13:35:46Z</DateUtc></FrequencyChange></FrequencyChanges></Clock>\n	1 ver1_main_procedure-37-1	99.925	1.0.0.880	1	wr	-618511088	prawa	1	2.0.10.356	08-18-2015	2015-08-18 13:35:46	15:35:46	mezczyzna	2.0.10.92	3	3	1	1																							d	{SPACE}		no	BlockProc1		BlockList									6	Cued	l	color_purple.png		0	13	190847	160																								25	prime_right.png	0	190217	0	0	13	0	190217	0	190217	1	190217	20	0	-1	188718	190217	190216	0		TrialProc1	right	0		0	10	190527	-190527		0	0	TrialList1	target_right.png	1	l	0	3	190267	260	l	566	190833												4	1	6				comp			150
1 ver1_main_procedure	37	1	22	<?xml version="1.0"?>\n<Clock xmlns:dt="urn:schemas-microsoft-com:datatypes"><Description dt:dt="string">E-Prime Primary Realtime Clock</Description><StartTime><Timestamp dt:dt="int">0</Timestamp><DateUtc dt:dt="string">2015-08-18T13:35:46Z</DateUtc></StartTime><FrequencyChanges><FrequencyChange><Frequency dt:dt="r8">2441386</Frequency><Timestamp dt:dt="r8">50920604896</Timestamp><Current dt:dt="r8">0</Current><DateUtc dt:dt="string">2015-08-18T13:35:46Z</DateUtc></FrequencyChange></FrequencyChanges></Clock>\n	1 ver1_main_procedure-37-1	99.925	1.0.0.880	1	wr	-618511088	prawa	1	2.0.10.356	08-18-2015	2015-08-18 13:35:46	15:35:46	mezczyzna	2.0.10.92	3	3	1	1																							d	{SPACE}		no	BlockProc1		BlockList									7	Free	dl	color_blue.png		0	8	193229	460																								25	prime_left.png	0	192819	0	0	13	0	192819	0	192819	1	192819	20	0	-1	191320	192819	192818	0		TrialProc1	left	0		0	10	193129	-193129		0	0	TrialList1	target_both.png	0	dl	0	3	192869	260	l	352	193221												7	1	7				comp			450
1 ver1_main_procedure	37	1	22	<?xml version="1.0"?>\n<Clock xmlns:dt="urn:schemas-microsoft-com:datatypes"><Description dt:dt="string">E-Prime Primary Realtime Clock</Description><StartTime><Timestamp dt:dt="int">0</Timestamp><DateUtc dt:dt="string">2015-08-18T13:35:46Z</DateUtc></StartTime><FrequencyChanges><FrequencyChange><Frequency dt:dt="r8">2441386</Frequency><Timestamp dt:dt="r8">50920604896</Timestamp><Current dt:dt="r8">0</Current><DateUtc dt:dt="string">2015-08-18T13:35:46Z</DateUtc></FrequencyChange></FrequencyChanges></Clock>\n	1 ver1_main_procedure-37-1	99.925	1.0.0.880	1	wr	-618511088	prawa	1	2.0.10.356	08-18-2015	2015-08-18 13:35:46	15:35:46	mezczyzna	2.0.10.92	3	3	1	1																							d	{SPACE}		no	BlockProc1		BlockList									8	Cued	l	color_green.png		0	14	196091	311																			1					75	prime_left.png	0	195501	0	0	13	0	195501	0	195501	1	195501	20	0	-1	194002	195501	195500	0	prime_left.png	TrialProc1	right	0		0	10	195811	-195811		0	0	TrialList1	target_right.png	1	l	0	3	195551	260	l	526	196077												5	1	8				neut			300
1 ver1_main_procedure	37	1	22	<?xml version="1.0"?>\n<Clock xmlns:dt="urn:schemas-microsoft-com:datatypes"><Description dt:dt="string">E-Prime Primary Realtime Clock</Description><StartTime><Timestamp dt:dt="int">0</Timestamp><DateUtc dt:dt="string">2015-08-18T13:35:46Z</DateUtc></StartTime><FrequencyChanges><FrequencyChange><Frequency dt:dt="r8">2441386</Frequency><Timestamp dt:dt="r8">50920604896</Timestamp><Current dt:dt="r8">0</Current><DateUtc dt:dt="string">2015-08-18T13:35:46Z</DateUtc></FrequencyChange></FrequencyChanges></Clock>\n	1 ver1_main_procedure-37-1	99.925	1.0.0.880	1	wr	-618511088	prawa	1	2.0.10.356	08-18-2015	2015-08-18 13:35:46	15:35:46	mezczyzna	2.0.10.92	3	3	1	1																							d	{SPACE}		no	BlockProc1		BlockList									9	Cued	l	color_green.png		0	8	198753	160																			2					25	prime_right.png	0	198213	0	0	13	0	198213	0	198213	1	198213	20	0	-1	196714	198213	198212	0	prime_right.png	TrialProc1	right	0		0	10	198523	-198523		0	0	TrialList1	target_right.png	1	l	0	3	198263	260	l	482	198745												5	1	9				neut			150
1 ver1_main_procedure	37	1	22	<?xml version="1.0"?>\n<Clock xmlns:dt="urn:schemas-microsoft-com:datatypes"><Description dt:dt="string">E-Prime Primary Realtime Clock</Description><StartTime><Timestamp dt:dt="int">0</Timestamp><DateUtc dt:dt="string">2015-08-18T13:35:46Z</DateUtc></StartTime><FrequencyChanges><FrequencyChange><Frequency dt:dt="r8">2441386</Frequency><Timestamp dt:dt="r8">50920604896</Timestamp><Current dt:dt="r8">0</Current><DateUtc dt:dt="string">2015-08-18T13:35:46Z</DateUtc></FrequencyChange></FrequencyChanges></Clock>\n	1 ver1_main_procedure-37-1	99.925	1.0.0.880	1	wr	-618511088	prawa	1	2.0.10.356	08-18-2015	2015-08-18 13:35:46	15:35:46	mezczyzna	2.0.10.92	3	3	1	1																							d	{SPACE}		no	BlockProc1		BlockList									10	Cued	d	color_red.png		0	11	201115	310																			1					25	prime_left.png	0	200725	0	0	13	0	200725	0	200725	1	200725	20	0	-1	199226	200725	200724	0	prime_left.png	TrialProc1	left	0		0	10	201035	-201035		0	0	TrialList1	target_left.png	1	d	0	3	200775	260	d	329	201104												2	1	10				neut			300
1 ver1_main_procedure	37	1	22	<?xml version="1.0"?>\n<Clock xmlns:dt="urn:schemas-microsoft-com:datatypes"><Description dt:dt="string">E-Prime Primary Realtime Clock</Description><StartTime><Timestamp dt:dt="int">0</Timestamp><DateUtc dt:dt="string">2015-08-18T13:35:46Z</DateUtc></StartTime><FrequencyChanges><FrequencyChange><Frequency dt:dt="r8">2441386</Frequency><Timestamp dt:dt="r8">50920604896</Timestamp><Current dt:dt="r8">0</Current><DateUtc dt:dt="string">2015-08-18T13:35:46Z</DateUtc></FrequencyChange></FrequencyChanges></Clock>\n	1 ver1_main_procedure-37-1	99.925	1.0.0.880	1	wr	-618511088	prawa	1	2.0.10.356	08-18-2015	2015-08-18 13:35:46	15:35:46	mezczyzna	2.0.10.92	3	3	1	1																							d	{SPACE}		no	BlockProc1		BlockList									11	Cued	d	color_orange.png		0	9	203667	160																								25	prime_left.png	0	203237	0	0	13	0	203237	0	203237	1	203237	20	0	-1	201738	203237	203236	0		TrialProc1	left	0		0	10	203547	-203547		0	0	TrialList1	target_left.png	1	d	0	3	203287	260	d	371	203658												1	1	11				comp			150
1 ver1_main_procedure	37	1	22	<?xml version="1.0"?>\n<Clock xmlns:dt="urn:schemas-microsoft-com:datatypes"><Description dt:dt="string">E-Prime Primary Realtime Clock</Description><StartTime><Timestamp dt:dt="int">0</Timestamp><DateUtc dt:dt="string">2015-08-18T13:35:46Z</DateUtc></StartTime><FrequencyChanges><FrequencyChange><Frequency dt:dt="r8">2441386</Frequency><Timestamp dt:dt="r8">50920604896</Timestamp><Current dt:dt="r8">0</Current><DateUtc dt:dt="string">2015-08-18T13:35:46Z</DateUtc></FrequencyChange></FrequencyChanges></Clock>\n	1 ver1_main_procedure-37-1	99.925	1.0.0.880	1	wr	-618511088	prawa	1	2.0.10.356	08-18-2015	2015-08-18 13:35:46	15:35:46	mezczyzna	2.0.10.92	3	3	1	1																							d	{SPACE}		no	BlockProc1		BlockList									12	Cued	d	color_orange.png		0	7	206049	310																								25	prime_left.png	0	205639	0	0	13	0	205639	0	205639	2	205639	20	0	-1	204140	205639	205637	0		TrialProc1	left	0		0	10	205949	-205949		0	0	TrialList1	target_left.png	1	d	0	3	205689	260	d	353	206042												1	1	12				comp			300
1 ver1_main_procedure	37	1	22	<?xml version="1.0"?>\n<Clock xmlns:dt="urn:schemas-microsoft-com:datatypes"><Description dt:dt="string">E-Prime Primary Realtime Clock</Description><StartTime><Timestamp dt:dt="int">0</Timestamp><DateUtc dt:dt="string">2015-08-18T13:35:46Z</DateUtc></StartTime><FrequencyChanges><FrequencyChange><Frequency dt:dt="r8">2441386</Frequency><Timestamp dt:dt="r8">50920604896</Timestamp><Current dt:dt="r8">0</Current><DateUtc dt:dt="string">2015-08-18T13:35:46Z</DateUtc></FrequencyChange></FrequencyChanges></Clock>\n	1 ver1_main_procedure-37-1	99.925	1.0.0.880	1	wr	-618511088	prawa	1	2.0.10.356	08-18-2015	2015-08-18 13:35:46	15:35:46	mezczyzna	2.0.10.92	3	3	1	1																							d	{SPACE}		no	BlockProc1		BlockList									13	Cued	d	color_orange.png		0	9	208681	460																								75	prime_left.png	0	208170	0	0	13	1	208171	1	208171	1	208170	20	0	-1	206672	208170	208169	0		TrialProc1	left	0		0	11	208481	-208481		0	0	TrialList1	target_left.png	1	d	0	3	208220	261	d	452	208672												1	1	13				comp			450
1 ver1_main_procedure	37	1	22	<?xml version="1.0"?>\n<Clock xmlns:dt="urn:schemas-microsoft-com:datatypes"><Description dt:dt="string">E-Prime Primary Realtime Clock</Description><StartTime><Timestamp dt:dt="int">0</Timestamp><DateUtc dt:dt="string">2015-08-18T13:35:46Z</DateUtc></StartTime><FrequencyChanges><FrequencyChange><Frequency dt:dt="r8">2441386</Frequency><Timestamp dt:dt="r8">50920604896</Timestamp><Current dt:dt="r8">0</Current><DateUtc dt:dt="string">2015-08-18T13:35:46Z</DateUtc></FrequencyChange></FrequencyChanges></Clock>\n	1 ver1_main_procedure-37-1	99.925	1.0.0.880	1	wr	-618511088	prawa	1	2.0.10.356	08-18-2015	2015-08-18 13:35:46	15:35:46	mezczyzna	2.0.10.92	3	3	1	1																							d	{SPACE}		no	BlockProc1		BlockList									14	Free	dl	color_green.png		0	9	211533	160																			2					25	prime_right.png	0	210953	0	0	13	0	210953	0	210953	2	210953	20	0	-1	209454	210953	210951	0	prime_right.png	TrialProc1	left	0		0	10	211263	-211263		0	0	TrialList1	target_both.png	0	dl	0	3	211003	260	l	521	211524												8	1	14				neut			150
1 ver1_main_procedure	37	1	22	<?xml version="1.0"?>\n<Clock xmlns:dt="urn:schemas-microsoft-com:datatypes"><Description dt:dt="string">E-Prime Primary Realtime Clock</Description><StartTime><Timestamp dt:dt="int">0</Timestamp><DateUtc dt:dt="string">2015-08-18T13:35:46Z</DateUtc></StartTime><FrequencyChanges><FrequencyChange><Frequency dt:dt="r8">2441386</Frequency><Timestamp dt:dt="r8">50920604896</Timestamp><Current dt:dt="r8">0</Current><DateUtc dt:dt="string">2015-08-18T13:35:46Z</DateUtc></FrequencyChange></FrequencyChanges></Clock>\n	1 ver1_main_procedure-37-1	99.925	1.0.0.880	1	wr	-618511088	prawa	1	2.0.10.356	08-18-2015	2015-08-18 13:35:46	15:35:46	mezczyzna	2.0.10.92	3	3	1	1																							d	{SPACE}		no	BlockProc1		BlockList									15	Cued	l	color_green.png		0	5	214015	160																			1					75	prime_left.png	1	213505	0	0	13	1	213505	1	213505	1	213504	20	0	-1	212006	213504	213503	0	prime_left.png	TrialProc1	right	0		0	11	213815	-213815		0	0	TrialList1	target_right.png	1	l	0	3	213554	261	l	456	214010												5	1	15				neut			150
1 ver1_main_procedure	37	1	22	<?xml version="1.0"?>\n<Clock xmlns:dt="urn:schemas-microsoft-com:datatypes"><Description dt:dt="string">E-Prime Primary Realtime Clock</Description><StartTime><Timestamp dt:dt="int">0</Timestamp><DateUtc dt:dt="string">2015-08-18T13:35:46Z</DateUtc></StartTime><FrequencyChanges><FrequencyChange><Frequency dt:dt="r8">2441386</Frequency><Timestamp dt:dt="r8">50920604896</Timestamp><Current dt:dt="r8">0</Current><DateUtc dt:dt="string">2015-08-18T13:35:46Z</DateUtc></FrequencyChange></FrequencyChanges></Clock>\n	1 ver1_main_procedure-37-1	99.925	1.0.0.880	1	wr	-618511088	prawa	1	2.0.10.356	08-18-2015	2015-08-18 13:35:46	15:35:46	mezczyzna	2.0.10.92	3	3	1	1																							d	{SPACE}		no	BlockProc1		BlockList									16	Cued	l	color_green.png		0	9	216467	310																			2					25	prime_right.png	0	215986	0	0	13	1	215987	1	215987	1	215986	20	0	-1	214487	215986	215985	0	prime_right.png	TrialProc1	right	0		0	11	216297	-216297		0	0	TrialList1	target_right.png	1	l	0	3	216036	261	l	422	216458												5	1	16				neut			300
1 ver1_main_procedure	37	1	22	<?xml version="1.0"?>\n<Clock xmlns:dt="urn:schemas-microsoft-com:datatypes"><Description dt:dt="string">E-Prime Primary Realtime Clock</Description><StartTime><Timestamp dt:dt="int">0</Timestamp><DateUtc dt:dt="string">2015-08-18T13:35:46Z</DateUtc></StartTime><FrequencyChanges><FrequencyChange><Frequency dt:dt="r8">2441386</Frequency><Timestamp dt:dt="r8">50920604896</Timestamp><Current dt:dt="r8">0</Current><DateUtc dt:dt="string">2015-08-18T13:35:46Z</DateUtc></FrequencyChange></FrequencyChanges></Clock>\n	1 ver1_main_procedure-37-1	99.925	1.0.0.880	1	wr	-618511088	prawa	1	2.0.10.356	08-18-2015	2015-08-18 13:35:46	15:35:46	mezczyzna	2.0.10.92	3	3	1	1																							d	{SPACE}		no	BlockProc1		BlockList									17	Cued	l	color_purple.png		0	10	219089	460																								25	prime_right.png	0	218588	0	0	13	0	218588	0	218588	1	218588	20	0	-1	217089	218588	218587	0		TrialProc1	right	0		0	11	218899	-218899		0	0	TrialList1	target_right.png	1	l	0	3	218638	261	l	441	219079												4	1	17				comp			450
1 ver1_main_procedure	37	1	22	<?xml version="1.0"?>\n<Clock xmlns:dt="urn:schemas-microsoft-com:datatypes"><Description dt:dt="string">E-Prime Primary Realtime Clock</Description><StartTime><Timestamp dt:dt="int">0</Timestamp><DateUtc dt:dt="string">2015-08-18T13:35:46Z</DateUtc></StartTime><FrequencyChanges><FrequencyChange><Frequency dt:dt="r8">2441386</Frequency><Timestamp dt:dt="r8">50920604896</Timestamp><Current dt:dt="r8">0</Current><DateUtc dt:dt="string">2015-08-18T13:35:46Z</DateUtc></FrequencyChange></FrequencyChanges></Clock>\n	1 ver1_main_procedure-37-1	99.925	1.0.0.880	1	wr	-618511088	prawa	1	2.0.10.356	08-18-2015	2015-08-18 13:35:46	15:35:46	mezczyzna	2.0.10.92	3	3	1	1																							d	{SPACE}		no	BlockProc1		BlockList									18	Cued	d	color_red.png		0	10	221911	310																			1					25	prime_left.png	0	221360	0	0	13	1	221361	1	221361	1	221360	20	0	-1	219861	221360	221359	0	prime_left.png	TrialProc1	left	0		0	11	221671	-221671		0	0	TrialList1	target_left.png	1	d	0	3	221410	261	d	491	221901												2	1	18				neut			300
1 ver1_main_procedure	37	1	22	<?xml version="1.0"?>\n<Clock xmlns:dt="urn:schemas-microsoft-com:datatypes"><Description dt:dt="string">E-Prime Primary Realtime Clock</Description><StartTime><Timestamp dt:dt="int">0</Timestamp><DateUtc dt:dt="string">2015-08-18T13:35:46Z</DateUtc></StartTime><FrequencyChanges><FrequencyChange><Frequency dt:dt="r8">2441386</Frequency><Timestamp dt:dt="r8">50920604896</Timestamp><Current dt:dt="r8">0</Current><DateUtc dt:dt="string">2015-08-18T13:35:46Z</DateUtc></FrequencyChange></FrequencyChanges></Clock>\n	1 ver1_main_procedure-37-1	99.925	1.0.0.880	1	wr	-618511088	prawa	1	2.0.10.356	08-18-2015	2015-08-18 13:35:46	15:35:46	mezczyzna	2.0.10.92	3	3	1	1																							d	{SPACE}		no	BlockProc1		BlockList									19	Cued	d	color_yellow.png		0	14	224583	310																								75	prime_right.png	0	224032	0	0	13	1	224033	1	224033	1	224032	20	0	-1	222534	224032	224031	0		TrialProc1	left	0		0	11	224343	-224343		0	0	TrialList1	target_left.png	1	d	0	3	224082	261	d	487	224569												3	1	19				incomp			300
1 ver1_main_procedure	37	1	22	<?xml version="1.0"?>\n<Clock xmlns:dt="urn:schemas-microsoft-com:datatypes"><Description dt:dt="string">E-Prime Primary Realtime Clock</Description><StartTime><Timestamp dt:dt="int">0</Timestamp><DateUtc dt:dt="string">2015-08-18T13:35:46Z</DateUtc></StartTime><FrequencyChanges><FrequencyChange><Frequency dt:dt="r8">2441386</Frequency><Timestamp dt:dt="r8">50920604896</Timestamp><Current dt:dt="r8">0</Current><DateUtc dt:dt="string">2015-08-18T13:35:46Z</DateUtc></FrequencyChange></FrequencyChanges></Clock>\n	1 ver1_main_procedure-37-1	99.925	1.0.0.880	1	wr	-618511088	prawa	1	2.0.10.356	08-18-2015	2015-08-18 13:35:46	15:35:46	mezczyzna	2.0.10.92	3	3	1	1																							d	{SPACE}		no	BlockProc1		BlockList									20	Cued	l	color_green.png		0	10	227195	160																			2					75	prime_right.png	0	226704	0	0	13	1	226705	1	226705	1	226704	20	0	-1	225206	226704	226703	0	prime_right.png	TrialProc1	right	0		0	11	227015	-227015		0	0	TrialList1	target_right.png	1	l	0	3	226754	261	l	431	227185												5	1	20				neut			150
1 ver1_main_procedure	37	1	22	<?xml version="1.0"?>\n<Clock xmlns:dt="urn:schemas-microsoft-com:datatypes"><Description dt:dt="string">E-Prime Primary Realtime Clock</Description><StartTime><Timestamp dt:dt="int">0</Timestamp><DateUtc dt:dt="string">2015-08-18T13:35:46Z</DateUtc></StartTime><FrequencyChanges><FrequencyChange><Frequency dt:dt="r8">2441386</Frequency><Timestamp dt:dt="r8">50920604896</Timestamp><Current dt:dt="r8">0</Current><DateUtc dt:dt="string">2015-08-18T13:35:46Z</DateUtc></FrequencyChange></FrequencyChanges></Clock>\n	1 ver1_main_procedure-37-1	99.925	1.0.0.880	1	wr	-618511088	prawa	1	2.0.10.356	08-18-2015	2015-08-18 13:35:46	15:35:46	mezczyzna	2.0.10.92	3	3	1	1																							d	{SPACE}		no	BlockProc1		BlockList									21	Cued	d	color_red.png		0	8	229777	310																			1					75	prime_left.png	0	229166	0	0	13	0	229167	0	229166	1	229166	20	0	-1	227667	229166	229165	0	prime_left.png	TrialProc1	left	0		0	11	229477	-229477		0	0	TrialList1	target_left.png	1	d	0	3	229216	261	d	553	229769												2	1	21				neut			300
1 ver1_main_procedure	37	1	22	<?xml version="1.0"?>\n<Clock xmlns:dt="urn:schemas-microsoft-com:datatypes"><Description dt:dt="string">E-Prime Primary Realtime Clock</Description><StartTime><Timestamp dt:dt="int">0</Timestamp><DateUtc dt:dt="string">2015-08-18T13:35:46Z</DateUtc></StartTime><FrequencyChanges><FrequencyChange><Frequency dt:dt="r8">2441386</Frequency><Timestamp dt:dt="r8">50920604896</Timestamp><Current dt:dt="r8">0</Current><DateUtc dt:dt="string">2015-08-18T13:35:46Z</DateUtc></FrequencyChange></FrequencyChanges></Clock>\n	1 ver1_main_procedure-37-1	99.925	1.0.0.880	1	wr	-618511088	prawa	1	2.0.10.356	08-18-2015	2015-08-18 13:35:46	15:35:46	mezczyzna	2.0.10.92	3	3	1	1																							d	{SPACE}		no	BlockProc1		BlockList									22	Cued	d	color_yellow.png		0	8	232339	310																								25	prime_right.png	0	231898	0	0	13	0	231899	0	231898	1	231898	20	0	-1	230399	231898	231897	0		TrialProc1	left	0		0	11	232209	-232209		0	0	TrialList1	target_left.png	1	d	0	3	231948	261	d	383	232331												3	1	22				incomp			300
1 ver1_main_procedure	37	1	22	<?xml version="1.0"?>\n<Clock xmlns:dt="urn:schemas-microsoft-com:datatypes"><Description dt:dt="string">E-Prime Primary Realtime Clock</Description><StartTime><Timestamp dt:dt="int">0</Timestamp><DateUtc dt:dt="string">2015-08-18T13:35:46Z</DateUtc></StartTime><FrequencyChanges><FrequencyChange><Frequency dt:dt="r8">2441386</Frequency><Timestamp dt:dt="r8">50920604896</Timestamp><Current dt:dt="r8">0</Current><DateUtc dt:dt="string">2015-08-18T13:35:46Z</DateUtc></FrequencyChange></FrequencyChanges></Clock>\n	1 ver1_main_procedure-37-1	99.925	1.0.0.880	1	wr	-618511088	prawa	1	2.0.10.356	08-18-2015	2015-08-18 13:35:46	15:35:46	mezczyzna	2.0.10.92	3	3	1	1																							d	{SPACE}		no	BlockProc1		BlockList									23	Free	dl	color_blue.png		0	10	234790	161																								75	prime_left.png	0	234460	0	0	13	0	234460	0	234460	1	234460	20	0	-1	232961	234460	234459	0		TrialProc1	right	0		0	11	234771	-234771		0	0	TrialList1	target_both.png	0	dl	0	3	234510	261	l	270	234780												12	1	23				incomp			150
1 ver1_main_procedure	37	1	22	<?xml version="1.0"?>\n<Clock xmlns:dt="urn:schemas-microsoft-com:datatypes"><Description dt:dt="string">E-Prime Primary Realtime Clock</Description><StartTime><Timestamp dt:dt="int">0</Timestamp><DateUtc dt:dt="string">2015-08-18T13:35:46Z</DateUtc></StartTime><FrequencyChanges><FrequencyChange><Frequency dt:dt="r8">2441386</Frequency><Timestamp dt:dt="r8">50920604896</Timestamp><Current dt:dt="r8">0</Current><DateUtc dt:dt="string">2015-08-18T13:35:46Z</DateUtc></FrequencyChange></FrequencyChanges></Clock>\n	1 ver1_main_procedure-37-1	99.925	1.0.0.880	1	wr	-618511088	prawa	1	2.0.10.356	08-18-2015	2015-08-18 13:35:46	15:35:46	mezczyzna	2.0.10.92	3	3	1	1																							d	{SPACE}		no	BlockProc1		BlockList									24	Free	dl	color_green.png		0	8	237332	461																			2					25	prime_right.png	0	236762	0	0	13	0	236762	0	236762	1	236762	20	0	-1	235263	236762	236761	0	prime_right.png	TrialProc1	left	0		0	10	237072	-237072		0	0	TrialList1	target_both.png	0	dl	0	3	236812	260	l	512	237324												8	1	24				neut			450
1 ver1_main_procedure	37	1	22	<?xml version="1.0"?>\n<Clock xmlns:dt="urn:schemas-microsoft-com:datatypes"><Description dt:dt="string">E-Prime Primary Realtime Clock</Description><StartTime><Timestamp dt:dt="int">0</Timestamp><DateUtc dt:dt="string">2015-08-18T13:35:46Z</DateUtc></StartTime><FrequencyChanges><FrequencyChange><Frequency dt:dt="r8">2441386</Frequency><Timestamp dt:dt="r8">50920604896</Timestamp><Current dt:dt="r8">0</Current><DateUtc dt:dt="string">2015-08-18T13:35:46Z</DateUtc></FrequencyChange></FrequencyChanges></Clock>\n	1 ver1_main_procedure-37-1	99.925	1.0.0.880	1	wr	-618511088	prawa	1	2.0.10.356	08-18-2015	2015-08-18 13:35:46	15:35:46	mezczyzna	2.0.10.92	3	3	1	1																							d	{SPACE}		no	BlockProc1		BlockList									25	Free	dl	color_blue.png		0	5	240185	310																								75	prime_left.png	0	239604	0	0	13	0	239604	0	239604	1	239604	20	0	-1	238105	239604	239603	0		TrialProc1	left	0		1	10	239914	-239914		0	0	TrialList1	target_both.png	0	dl	0	3	239654	260	l	526	240180												7	1	25				comp			300
1 ver1_main_procedure	37	1	22	<?xml version="1.0"?>\n<Clock xmlns:dt="urn:schemas-microsoft-com:datatypes"><Description dt:dt="string">E-Prime Primary Realtime Clock</Description><StartTime><Timestamp dt:dt="int">0</Timestamp><DateUtc dt:dt="string">2015-08-18T13:35:46Z</DateUtc></StartTime><FrequencyChanges><FrequencyChange><Frequency dt:dt="r8">2441386</Frequency><Timestamp dt:dt="r8">50920604896</Timestamp><Current dt:dt="r8">0</Current><DateUtc dt:dt="string">2015-08-18T13:35:46Z</DateUtc></FrequencyChange></FrequencyChanges></Clock>\n	1 ver1_main_procedure-37-1	99.925	1.0.0.880	1	wr	-618511088	prawa	1	2.0.10.356	08-18-2015	2015-08-18 13:35:46	15:35:46	mezczyzna	2.0.10.92	3	3	1	1																							d	{SPACE}		no	BlockProc1		BlockList									26	Cued	d	color_orange.png		0	4	242706	311																								25	prime_left.png	0	242306	0	0	13	0	242306	0	242306	1	242306	20	0	-1	240807	242306	242305	0		TrialProc1	left	0		1	10	242616	-242616		0	0	TrialList1	target_left.png	1	d	0	3	242356	260	d	346	242702												1	1	26				comp			300
1 ver1_main_procedure	37	1	22	<?xml version="1.0"?>\n<Clock xmlns:dt="urn:schemas-microsoft-com:datatypes"><Description dt:dt="string">E-Prime Primary Realtime Clock</Description><StartTime><Timestamp dt:dt="int">0</Timestamp><DateUtc dt:dt="string">2015-08-18T13:35:46Z</DateUtc></StartTime><FrequencyChanges><FrequencyChange><Frequency dt:dt="r8">2441386</Frequency><Timestamp dt:dt="r8">50920604896</Timestamp><Current dt:dt="r8">0</Current><DateUtc dt:dt="string">2015-08-18T13:35:46Z</DateUtc></FrequencyChange></FrequencyChanges></Clock>\n	1 ver1_main_procedure-37-1	99.925	1.0.0.880	1	wr	-618511088	prawa	1	2.0.10.356	08-18-2015	2015-08-18 13:35:46	15:35:46	mezczyzna	2.0.10.92	3	3	1	1																							d	{SPACE}		no	BlockProc1		BlockList									27	Cued	d	color_yellow.png		0	10	245238	161																								25	prime_right.png	0	244828	0	0	13	0	244828	0	244828	1	244828	20	0	-1	243329	244828	244827	0		TrialProc1	left	0		0	10	245138	-245138		0	0	TrialList1	target_left.png	1	d	0	3	244878	260	d	350	245228												3	1	27				incomp			150
1 ver1_main_procedure	37	1	22	<?xml version="1.0"?>\n<Clock xmlns:dt="urn:schemas-microsoft-com:datatypes"><Description dt:dt="string">E-Prime Primary Realtime Clock</Description><StartTime><Timestamp dt:dt="int">0</Timestamp><DateUtc dt:dt="string">2015-08-18T13:35:46Z</DateUtc></StartTime><FrequencyChanges><FrequencyChange><Frequency dt:dt="r8">2441386</Frequency><Timestamp dt:dt="r8">50920604896</Timestamp><Current dt:dt="r8">0</Current><DateUtc dt:dt="string">2015-08-18T13:35:46Z</DateUtc></FrequencyChange></FrequencyChanges></Clock>\n	1 ver1_main_procedure-37-1	99.925	1.0.0.880	1	wr	-618511088	prawa	1	2.0.10.356	08-18-2015	2015-08-18 13:35:46	15:35:46	mezczyzna	2.0.10.92	3	3	1	1																							d	{SPACE}		no	BlockProc1		BlockList									28	Free	dl	color_purple.png		0	5	247971	460																								25	prime_right.png	0	247210	0	0	13	0	247210	0	247210	1	247210	20	0	-1	245711	247210	247209	0		TrialProc1	right	0		0	10	247520	-247520		0	0	TrialList1	target_both.png	0	dl	0	3	247260	260	l	706	247966												10	1	28				comp			450
1 ver1_main_procedure	37	1	22	<?xml version="1.0"?>\n<Clock xmlns:dt="urn:schemas-microsoft-com:datatypes"><Description dt:dt="string">E-Prime Primary Realtime Clock</Description><StartTime><Timestamp dt:dt="int">0</Timestamp><DateUtc dt:dt="string">2015-08-18T13:35:46Z</DateUtc></StartTime><FrequencyChanges><FrequencyChange><Frequency dt:dt="r8">2441386</Frequency><Timestamp dt:dt="r8">50920604896</Timestamp><Current dt:dt="r8">0</Current><DateUtc dt:dt="string">2015-08-18T13:35:46Z</DateUtc></FrequencyChange></FrequencyChanges></Clock>\n	1 ver1_main_procedure-37-1	99.925	1.0.0.880	1	wr	-618511088	prawa	1	2.0.10.356	08-18-2015	2015-08-18 13:35:46	15:35:46	mezczyzna	2.0.10.92	3	3	1	1																							d	{SPACE}		no	BlockProc1		BlockList									29	Cued	d	color_yellow.png		0	8	250622	161																								75	prime_right.png	0	250242	0	0	13	0	250242	0	250242	1	250242	20	0	-1	248743	250242	250241	0		TrialProc1	left	0		1	10	250552	-250552		0	0	TrialList1	target_left.png	1	d	0	3	250292	260	d	322	250614												3	1	29				incomp			150
1 ver1_main_procedure	37	1	22	<?xml version="1.0"?>\n<Clock xmlns:dt="urn:schemas-microsoft-com:datatypes"><Description dt:dt="string">E-Prime Primary Realtime Clock</Description><StartTime><Timestamp dt:dt="int">0</Timestamp><DateUtc dt:dt="string">2015-08-18T13:35:46Z</DateUtc></StartTime><FrequencyChanges><FrequencyChange><Frequency dt:dt="r8">2441386</Frequency><Timestamp dt:dt="r8">50920604896</Timestamp><Current dt:dt="r8">0</Current><DateUtc dt:dt="string">2015-08-18T13:35:46Z</DateUtc></FrequencyChange></FrequencyChanges></Clock>\n	1 ver1_main_procedure-37-1	99.925	1.0.0.880	1	wr	-618511088	prawa	1	2.0.10.356	08-18-2015	2015-08-18 13:35:46	15:35:46	mezczyzna	2.0.10.92	3	3	1	1																							d	{SPACE}		no	BlockProc1		BlockList									30	Cued	l	color_purple.png		0	8	253475	460																								75	prime_right.png	0	252594	0	0	13	0	252594	0	252594	1	252594	20	0	-1	251095	252594	252593	0		TrialProc1	right	0		0	10	252904	-252904		0	0	TrialList1	target_right.png	1	l	0	3	252644	260	l	823	253467												4	1	30				comp			450
1 ver1_main_procedure	37	1	22	<?xml version="1.0"?>\n<Clock xmlns:dt="urn:schemas-microsoft-com:datatypes"><Description dt:dt="string">E-Prime Primary Realtime Clock</Description><StartTime><Timestamp dt:dt="int">0</Timestamp><DateUtc dt:dt="string">2015-08-18T13:35:46Z</DateUtc></StartTime><FrequencyChanges><FrequencyChange><Frequency dt:dt="r8">2441386</Frequency><Timestamp dt:dt="r8">50920604896</Timestamp><Current dt:dt="r8">0</Current><DateUtc dt:dt="string">2015-08-18T13:35:46Z</DateUtc></FrequencyChange></FrequencyChanges></Clock>\n	1 ver1_main_procedure-37-1	99.925	1.0.0.880	1	wr	-618511088	prawa	1	2.0.10.356	08-18-2015	2015-08-18 13:35:46	15:35:46	mezczyzna	2.0.10.92	3	3	1	1																							d	{SPACE}		no	BlockProc1		BlockList									31	Cued	l	color_green.png		0	10	256277	310																			1					75	prime_left.png	0	255746	0	0	13	0	255747	0	255746	1	255746	20	0	-1	254248	255746	255745	0	prime_left.png	TrialProc1	right	0		0	11	256057	-256057		0	0	TrialList1	target_right.png	1	l	0	3	255796	261	l	470	256266												5	1	31				neut			300
1 ver1_main_procedure	37	1	22	<?xml version="1.0"?>\n<Clock xmlns:dt="urn:schemas-microsoft-com:datatypes"><Description dt:dt="string">E-Prime Primary Realtime Clock</Description><StartTime><Timestamp dt:dt="int">0</Timestamp><DateUtc dt:dt="string">2015-08-18T13:35:46Z</DateUtc></StartTime><FrequencyChanges><FrequencyChange><Frequency dt:dt="r8">2441386</Frequency><Timestamp dt:dt="r8">50920604896</Timestamp><Current dt:dt="r8">0</Current><DateUtc dt:dt="string">2015-08-18T13:35:46Z</DateUtc></FrequencyChange></FrequencyChanges></Clock>\n	1 ver1_main_procedure-37-1	99.925	1.0.0.880	1	wr	-618511088	prawa	1	2.0.10.356	08-18-2015	2015-08-18 13:35:46	15:35:46	mezczyzna	2.0.10.92	3	3	1	1																							d	{SPACE}		no	BlockProc1		BlockList									32	Free	dl	color_orange.png		0	14	259089	310																								75	prime_left.png	0	258398	0	0	13	0	258399	0	258398	1	258398	20	0	-1	256899	258398	258397	0		TrialProc1	right	0		0	11	258709	-258709		0	0	TrialList1	target_both.png	0	dl	0	3	258448	261	d	627	259075												12	1	32				incomp			300
1 ver1_main_procedure	37	1	22	<?xml version="1.0"?>\n<Clock xmlns:dt="urn:schemas-microsoft-com:datatypes"><Description dt:dt="string">E-Prime Primary Realtime Clock</Description><StartTime><Timestamp dt:dt="int">0</Timestamp><DateUtc dt:dt="string">2015-08-18T13:35:46Z</DateUtc></StartTime><FrequencyChanges><FrequencyChange><Frequency dt:dt="r8">2441386</Frequency><Timestamp dt:dt="r8">50920604896</Timestamp><Current dt:dt="r8">0</Current><DateUtc dt:dt="string">2015-08-18T13:35:46Z</DateUtc></FrequencyChange></FrequencyChanges></Clock>\n	1 ver1_main_procedure-37-1	99.925	1.0.0.880	1	wr	-618511088	prawa	1	2.0.10.356	08-18-2015	2015-08-18 13:35:46	15:35:46	mezczyzna	2.0.10.92	3	3	1	1																							d	{SPACE}		no	BlockProc1		BlockList									33	Cued	l	color_purple.png		0	14	261721	160																								75	prime_right.png	1	261211	0	0	13	1	261211	1	261211	1	261210	20	0	-1	259712	261210	261209	0		TrialProc1	right	0		0	11	261521	-261521		0	0	TrialList1	target_right.png	1	l	0	3	261260	261	l	446	261706												4	1	33				comp			150
1 ver1_main_procedure	37	1	22	<?xml version="1.0"?>\n<Clock xmlns:dt="urn:schemas-microsoft-com:datatypes"><Description dt:dt="string">E-Prime Primary Realtime Clock</Description><StartTime><Timestamp dt:dt="int">0</Timestamp><DateUtc dt:dt="string">2015-08-18T13:35:46Z</DateUtc></StartTime><FrequencyChanges><FrequencyChange><Frequency dt:dt="r8">2441386</Frequency><Timestamp dt:dt="r8">50920604896</Timestamp><Current dt:dt="r8">0</Current><DateUtc dt:dt="string">2015-08-18T13:35:46Z</DateUtc></FrequencyChange></FrequencyChanges></Clock>\n	1 ver1_main_procedure-37-1	99.925	1.0.0.880	1	wr	-618511088	prawa	1	2.0.10.356	08-18-2015	2015-08-18 13:35:46	15:35:46	mezczyzna	2.0.10.92	3	3	1	1																							d	{SPACE}		no	BlockProc1		BlockList									34	Cued	l	color_purple.png		0	8	264113	160																								75	prime_right.png	0	263692	0	0	13	0	263692	0	263692	1	263692	20	0	-1	262193	263692	263691	0		TrialProc1	right	0		0	11	264003	-264003		0	0	TrialList1	target_right.png	1	l	0	3	263742	261	l	362	264104												4	1	34				comp			150
1 ver1_main_procedure	37	1	22	<?xml version="1.0"?>\n<Clock xmlns:dt="urn:schemas-microsoft-com:datatypes"><Description dt:dt="string">E-Prime Primary Realtime Clock</Description><StartTime><Timestamp dt:dt="int">0</Timestamp><DateUtc dt:dt="string">2015-08-18T13:35:46Z</DateUtc></StartTime><FrequencyChanges><FrequencyChange><Frequency dt:dt="r8">2441386</Frequency><Timestamp dt:dt="r8">50920604896</Timestamp><Current dt:dt="r8">0</Current><DateUtc dt:dt="string">2015-08-18T13:35:46Z</DateUtc></FrequencyChange></FrequencyChanges></Clock>\n	1 ver1_main_procedure-37-1	99.925	1.0.0.880	1	wr	-618511088	prawa	1	2.0.10.356	08-18-2015	2015-08-18 13:35:46	15:35:46	mezczyzna	2.0.10.92	3	3	1	1																							d	{SPACE}		no	BlockProc1		BlockList									35	Free	dl	color_purple.png		0	6	266665	310																								75	prime_right.png	0	266084	0	0	13	0	266084	0	266084	1	266084	20	0	-1	264585	266084	266083	0		TrialProc1	left	0		0	10	266394	-266394		0	0	TrialList1	target_both.png	0	dl	0	3	266134	260	l	524	266658												9	1	35				incomp			300
1 ver1_main_procedure	37	1	22	<?xml version="1.0"?>\n<Clock xmlns:dt="urn:schemas-microsoft-com:datatypes"><Description dt:dt="string">E-Prime Primary Realtime Clock</Description><StartTime><Timestamp dt:dt="int">0</Timestamp><DateUtc dt:dt="string">2015-08-18T13:35:46Z</DateUtc></StartTime><FrequencyChanges><FrequencyChange><Frequency dt:dt="r8">2441386</Frequency><Timestamp dt:dt="r8">50920604896</Timestamp><Current dt:dt="r8">0</Current><DateUtc dt:dt="string">2015-08-18T13:35:46Z</DateUtc></FrequencyChange></FrequencyChanges></Clock>\n	1 ver1_main_procedure-37-1	99.925	1.0.0.880	1	wr	-618511088	prawa	1	2.0.10.356	08-18-2015	2015-08-18 13:35:46	15:35:46	mezczyzna	2.0.10.92	3	3	1	1																							d	{SPACE}		no	BlockProc1		BlockList									36	Cued	d	color_red.png		0	6	269277	160																			2					25	prime_right.png	0	268786	0	0	13	0	268786	0	268786	1	268786	20	0	-1	267287	268786	268785	0	prime_right.png	TrialProc1	left	0		1	10	269096	-269096		0	0	TrialList1	target_left.png	1	d	0	3	268836	260	d	435	269271												2	1	36				neut			150
1 ver1_main_procedure	37	1	22	<?xml version="1.0"?>\n<Clock xmlns:dt="urn:schemas-microsoft-com:datatypes"><Description dt:dt="string">E-Prime Primary Realtime Clock</Description><StartTime><Timestamp dt:dt="int">0</Timestamp><DateUtc dt:dt="string">2015-08-18T13:35:46Z</DateUtc></StartTime><FrequencyChanges><FrequencyChange><Frequency dt:dt="r8">2441386</Frequency><Timestamp dt:dt="r8">50920604896</Timestamp><Current dt:dt="r8">0</Current><DateUtc dt:dt="string">2015-08-18T13:35:46Z</DateUtc></FrequencyChange></FrequencyChanges></Clock>\n	1 ver1_main_procedure-37-1	99.925	1.0.0.880	1	wr	-618511088	prawa	1	2.0.10.356	08-18-2015	2015-08-18 13:35:46	15:35:46	mezczyzna	2.0.10.92	3	3	1	1																							d	{SPACE}		no	BlockProc1		BlockList									37	Cued	l	color_green.png		0	10	271889	160																			1					75	prime_left.png	0	271248	0	0	13	0	271248	0	271248	1	271248	20	0	-1	269749	271248	271247	0	prime_left.png	TrialProc1	right	0		0	10	271558	-271558		0	0	TrialList1	target_right.png	1	l	0	3	271298	260	l	581	271879												5	1	37				neut			150
1 ver1_main_procedure	37	1	22	<?xml version="1.0"?>\n<Clock xmlns:dt="urn:schemas-microsoft-com:datatypes"><Description dt:dt="string">E-Prime Primary Realtime Clock</Description><StartTime><Timestamp dt:dt="int">0</Timestamp><DateUtc dt:dt="string">2015-08-18T13:35:46Z</DateUtc></StartTime><FrequencyChanges><FrequencyChange><Frequency dt:dt="r8">2441386</Frequency><Timestamp dt:dt="r8">50920604896</Timestamp><Current dt:dt="r8">0</Current><DateUtc dt:dt="string">2015-08-18T13:35:46Z</DateUtc></FrequencyChange></FrequencyChanges></Clock>\n	1 ver1_main_procedure-37-1	99.925	1.0.0.880	1	wr	-618511088	prawa	1	2.0.10.356	08-18-2015	2015-08-18 13:35:46	15:35:46	mezczyzna	2.0.10.92	3	3	1	1																							d	{SPACE}		no	BlockProc1		BlockList									38	Cued	l	color_blue.png		0	6	274471	310																								25	prime_left.png	0	273860	0	0	13	0	273860	0	273860	1	273860	20	0	-1	272361	273860	273859	0		TrialProc1	right	0		0	10	274170	-274170		0	0	TrialList1	target_right.png	1	l	0	3	273910	260	l	555	274465												6	1	38				incomp			300
1 ver1_main_procedure	37	1	22	<?xml version="1.0"?>\n<Clock xmlns:dt="urn:schemas-microsoft-com:datatypes"><Description dt:dt="string">E-Prime Primary Realtime Clock</Description><StartTime><Timestamp dt:dt="int">0</Timestamp><DateUtc dt:dt="string">2015-08-18T13:35:46Z</DateUtc></StartTime><FrequencyChanges><FrequencyChange><Frequency dt:dt="r8">2441386</Frequency><Timestamp dt:dt="r8">50920604896</Timestamp><Current dt:dt="r8">0</Current><DateUtc dt:dt="string">2015-08-18T13:35:46Z</DateUtc></FrequencyChange></FrequencyChanges></Clock>\n	1 ver1_main_procedure-37-1	99.925	1.0.0.880	1	wr	-618511088	prawa	1	2.0.10.356	08-18-2015	2015-08-18 13:35:46	15:35:46	mezczyzna	2.0.10.92	3	3	1	1																							d	{SPACE}		no	BlockProc1		BlockList									39	Free	dl	color_purple.png		0	9	277112	311																								75	prime_right.png	0	276592	0	0	13	0	276592	0	276592	1	276592	20	0	-1	275093	276592	276591	0		TrialProc1	left	0		0	10	276902	-276902		0	0	TrialList1	target_both.png	0	dl	0	3	276642	260	l	461	277103												9	1	39				incomp			300
1 ver1_main_procedure	37	1	22	<?xml version="1.0"?>\n<Clock xmlns:dt="urn:schemas-microsoft-com:datatypes"><Description dt:dt="string">E-Prime Primary Realtime Clock</Description><StartTime><Timestamp dt:dt="int">0</Timestamp><DateUtc dt:dt="string">2015-08-18T13:35:46Z</DateUtc></StartTime><FrequencyChanges><FrequencyChange><Frequency dt:dt="r8">2441386</Frequency><Timestamp dt:dt="r8">50920604896</Timestamp><Current dt:dt="r8">0</Current><DateUtc dt:dt="string">2015-08-18T13:35:46Z</DateUtc></FrequencyChange></FrequencyChanges></Clock>\n	1 ver1_main_procedure-37-1	99.925	1.0.0.880	1	wr	-618511088	prawa	1	2.0.10.356	08-18-2015	2015-08-18 13:35:46	15:35:46	mezczyzna	2.0.10.92	3	3	1	1																							d	{SPACE}		no	BlockProc1		BlockList									40	Cued	l	color_green.png		0	13	279684	161																			2					25	prime_right.png	0	279234	0	0	13	0	279234	0	279234	1	279234	20	0	-1	277735	279234	279233	0	prime_right.png	TrialProc1	right	0		0	10	279544	-279544		0	0	TrialList1	target_right.png	1	l	0	3	279284	260	l	387	279671												5	1	40				neut			150
1 ver1_main_procedure	37	1	22	<?xml version="1.0"?>\n<Clock xmlns:dt="urn:schemas-microsoft-com:datatypes"><Description dt:dt="string">E-Prime Primary Realtime Clock</Description><StartTime><Timestamp dt:dt="int">0</Timestamp><DateUtc dt:dt="string">2015-08-18T13:35:46Z</DateUtc></StartTime><FrequencyChanges><FrequencyChange><Frequency dt:dt="r8">2441386</Frequency><Timestamp dt:dt="r8">50920604896</Timestamp><Current dt:dt="r8">0</Current><DateUtc dt:dt="string">2015-08-18T13:35:46Z</DateUtc></FrequencyChange></FrequencyChanges></Clock>\n	1 ver1_main_procedure-37-1	99.925	1.0.0.880	1	wr	-618511088	prawa	1	2.0.10.356	08-18-2015	2015-08-18 13:35:46	15:35:46	mezczyzna	2.0.10.92	3	3	1	1																							d	{SPACE}		no	BlockProc1		BlockList									41	Cued	d	color_yellow.png		0	11	282076	160																								25	prime_right.png	0	281656	0	0	13	0	281656	0	281656	1	281656	20	0	-1	280157	281656	281655	0		TrialProc1	left	0		0	10	281966	-281966		0	0	TrialList1	target_left.png	1	d	0	3	281706	260	d	359	282065												3	1	41				incomp			150
1 ver1_main_procedure	37	1	22	<?xml version="1.0"?>\n<Clock xmlns:dt="urn:schemas-microsoft-com:datatypes"><Description dt:dt="string">E-Prime Primary Realtime Clock</Description><StartTime><Timestamp dt:dt="int">0</Timestamp><DateUtc dt:dt="string">2015-08-18T13:35:46Z</DateUtc></StartTime><FrequencyChanges><FrequencyChange><Frequency dt:dt="r8">2441386</Frequency><Timestamp dt:dt="r8">50920604896</Timestamp><Current dt:dt="r8">0</Current><DateUtc dt:dt="string">2015-08-18T13:35:46Z</DateUtc></FrequencyChange></FrequencyChanges></Clock>\n	1 ver1_main_procedure-37-1	99.925	1.0.0.880	1	wr	-618511088	prawa	1	2.0.10.356	08-18-2015	2015-08-18 13:35:46	15:35:46	mezczyzna	2.0.10.92	3	3	1	1																							d	{SPACE}		no	BlockProc1		BlockList									42	Free	dl	color_green.png		0	9	284708	461																			1					25	prime_left.png	0	284048	0	0	13	0	284048	0	284048	1	284048	20	0	-1	282549	284048	284047	0	prime_left.png	TrialProc1	right	0		0	10	284358	-284358		0	0	TrialList1	target_both.png	0	dl	0	3	284098	260	l	601	284699												11	1	42				neut			450
1 ver1_main_procedure	37	1	22	<?xml version="1.0"?>\n<Clock xmlns:dt="urn:schemas-microsoft-com:datatypes"><Description dt:dt="string">E-Prime Primary Realtime Clock</Description><StartTime><Timestamp dt:dt="int">0</Timestamp><DateUtc dt:dt="string">2015-08-18T13:35:46Z</DateUtc></StartTime><FrequencyChanges><FrequencyChange><Frequency dt:dt="r8">2441386</Frequency><Timestamp dt:dt="r8">50920604896</Timestamp><Current dt:dt="r8">0</Current><DateUtc dt:dt="string">2015-08-18T13:35:46Z</DateUtc></FrequencyChange></FrequencyChanges></Clock>\n	1 ver1_main_procedure-37-1	99.925	1.0.0.880	1	wr	-618511088	prawa	1	2.0.10.356	08-18-2015	2015-08-18 13:35:46	15:35:46	mezczyzna	2.0.10.92	3	3	1	1																							d	{SPACE}		no	BlockProc1		BlockList									43	Cued	d	color_orange.png		0	14	287430	160																								75	prime_left.png	0	286980	0	0	13	0	286980	0	286980	1	286980	20	0	-1	285481	286980	286979	0		TrialProc1	left	0		0	10	287290	-287290		0	0	TrialList1	target_left.png	1	d	0	3	287030	260	d	386	287416												1	1	43				comp			150
1 ver1_main_procedure	37	1	22	<?xml version="1.0"?>\n<Clock xmlns:dt="urn:schemas-microsoft-com:datatypes"><Description dt:dt="string">E-Prime Primary Realtime Clock</Description><StartTime><Timestamp dt:dt="int">0</Timestamp><DateUtc dt:dt="string">2015-08-18T13:35:46Z</DateUtc></StartTime><FrequencyChanges><FrequencyChange><Frequency dt:dt="r8">2441386</Frequency><Timestamp dt:dt="r8">50920604896</Timestamp><Current dt:dt="r8">0</Current><DateUtc dt:dt="string">2015-08-18T13:35:46Z</DateUtc></FrequencyChange></FrequencyChanges></Clock>\n	1 ver1_main_procedure-37-1	99.925	1.0.0.880	1	wr	-618511088	prawa	1	2.0.10.356	08-18-2015	2015-08-18 13:35:46	15:35:46	mezczyzna	2.0.10.92	3	3	1	1																							d	{SPACE}		no	BlockProc1		BlockList									44	Free	dl	color_green.png		0	8	289852	160																			2					25	prime_right.png	0	289402	0	0	13	0	289402	0	289402	1	289402	20	0	-1	287903	289402	289401	0	prime_right.png	TrialProc1	right	0		0	10	289712	-289712		0	0	TrialList1	target_both.png	0	dl	0	3	289452	260	l	392	289844												11	1	44				neut			150
1 ver1_main_procedure	37	1	22	<?xml version="1.0"?>\n<Clock xmlns:dt="urn:schemas-microsoft-com:datatypes"><Description dt:dt="string">E-Prime Primary Realtime Clock</Description><StartTime><Timestamp dt:dt="int">0</Timestamp><DateUtc dt:dt="string">2015-08-18T13:35:46Z</DateUtc></StartTime><FrequencyChanges><FrequencyChange><Frequency dt:dt="r8">2441386</Frequency><Timestamp dt:dt="r8">50920604896</Timestamp><Current dt:dt="r8">0</Current><DateUtc dt:dt="string">2015-08-18T13:35:46Z</DateUtc></FrequencyChange></FrequencyChanges></Clock>\n	1 ver1_main_procedure-37-1	99.925	1.0.0.880	1	wr	-618511088	prawa	1	2.0.10.356	08-18-2015	2015-08-18 13:35:46	15:35:46	mezczyzna	2.0.10.92	3	3	1	1																							d	{SPACE}		no	BlockProc1		BlockList									45	Cued	d	color_yellow.png		0	12	292284	460																								25	prime_right.png	0	291824	0	0	13	0	291824	0	291824	2	291824	20	0	-1	290325	291824	291822	0		TrialProc1	left	0		0	10	292134	-292134		0	0	TrialList1	target_left.png	1	d	0	3	291874	260	d	398	292272												3	1	45				incomp			450
1 ver1_main_procedure	37	1	22	<?xml version="1.0"?>\n<Clock xmlns:dt="urn:schemas-microsoft-com:datatypes"><Description dt:dt="string">E-Prime Primary Realtime Clock</Description><StartTime><Timestamp dt:dt="int">0</Timestamp><DateUtc dt:dt="string">2015-08-18T13:35:46Z</DateUtc></StartTime><FrequencyChanges><FrequencyChange><Frequency dt:dt="r8">2441386</Frequency><Timestamp dt:dt="r8">50920604896</Timestamp><Current dt:dt="r8">0</Current><DateUtc dt:dt="string">2015-08-18T13:35:46Z</DateUtc></FrequencyChange></FrequencyChanges></Clock>\n	1 ver1_main_procedure-37-1	99.925	1.0.0.880	1	wr	-618511088	prawa	1	2.0.10.356	08-18-2015	2015-08-18 13:35:46	15:35:46	mezczyzna	2.0.10.92	3	3	1	1																							d	{SPACE}		no	BlockProc1		BlockList									46	Cued	l	color_blue.png		0	6	294936	460																								75	prime_left.png	0	294556	0	0	13	0	294556	0	294556	2	294556	20	0	-1	293057	294556	294554	0		TrialProc1	right	0		0	10	294866	-294866		0	0	TrialList1	target_right.png	1	l	0	3	294606	260	l	324	294930												6	1	46				incomp			450
1 ver1_main_procedure	37	1	22	<?xml version="1.0"?>\n<Clock xmlns:dt="urn:schemas-microsoft-com:datatypes"><Description dt:dt="string">E-Prime Primary Realtime Clock</Description><StartTime><Timestamp dt:dt="int">0</Timestamp><DateUtc dt:dt="string">2015-08-18T13:35:46Z</DateUtc></StartTime><FrequencyChanges><FrequencyChange><Frequency dt:dt="r8">2441386</Frequency><Timestamp dt:dt="r8">50920604896</Timestamp><Current dt:dt="r8">0</Current><DateUtc dt:dt="string">2015-08-18T13:35:46Z</DateUtc></FrequencyChange></FrequencyChanges></Clock>\n	1 ver1_main_procedure-37-1	99.925	1.0.0.880	1	wr	-618511088	prawa	1	2.0.10.356	08-18-2015	2015-08-18 13:35:46	15:35:46	mezczyzna	2.0.10.92	3	3	1	1																							d	{SPACE}		no	BlockProc1		BlockList									47	Cued	d	color_red.png		0	6	297558	160																			1					25	prime_left.png	0	297208	0	0	13	0	297208	0	297208	1	297208	20	0	-1	295709	297208	297207	0	prime_left.png	TrialProc1	left	0		0	10	297518	-297518		0	0	TrialList1	target_left.png	1	d	0	3	297258	260	d	294	297552												2	1	47				neut			150
1 ver1_main_procedure	37	1	22	<?xml version="1.0"?>\n<Clock xmlns:dt="urn:schemas-microsoft-com:datatypes"><Description dt:dt="string">E-Prime Primary Realtime Clock</Description><StartTime><Timestamp dt:dt="int">0</Timestamp><DateUtc dt:dt="string">2015-08-18T13:35:46Z</DateUtc></StartTime><FrequencyChanges><FrequencyChange><Frequency dt:dt="r8">2441386</Frequency><Timestamp dt:dt="r8">50920604896</Timestamp><Current dt:dt="r8">0</Current><DateUtc dt:dt="string">2015-08-18T13:35:46Z</DateUtc></FrequencyChange></FrequencyChanges></Clock>\n	1 ver1_main_procedure-37-1	99.925	1.0.0.880	1	wr	-618511088	prawa	1	2.0.10.356	08-18-2015	2015-08-18 13:35:46	15:35:46	mezczyzna	2.0.10.92	3	3	1	1																							d	{SPACE}		no	BlockProc1		BlockList									48	Cued	d			0	10	299910	460																								75	prime_left.png	1	299530	0	0	13	1	299530	1	299530	1	299529	20	0	-1	298030	299529	299528	0		TrialProc1	left	0		0	11	299840	-299840		0	0	TrialList1	target_left.png	0	d	0	3	299579	261	l	321	299900												1	1	48				comp			450
1 ver1_main_procedure	37	1	22	<?xml version="1.0"?>\n<Clock xmlns:dt="urn:schemas-microsoft-com:datatypes"><Description dt:dt="string">E-Prime Primary Realtime Clock</Description><StartTime><Timestamp dt:dt="int">0</Timestamp><DateUtc dt:dt="string">2015-08-18T13:35:46Z</DateUtc></StartTime><FrequencyChanges><FrequencyChange><Frequency dt:dt="r8">2441386</Frequency><Timestamp dt:dt="r8">50920604896</Timestamp><Current dt:dt="r8">0</Current><DateUtc dt:dt="string">2015-08-18T13:35:46Z</DateUtc></FrequencyChange></FrequencyChanges></Clock>\n	1 ver1_main_procedure-37-1	99.925	1.0.0.880	1	wr	-618511088	prawa	1	2.0.10.356	08-18-2015	2015-08-18 13:35:46	15:35:46	mezczyzna	2.0.10.92	3	3	1	1																							d	{SPACE}		no	BlockProc1		BlockList									49	Cued	d	color_orange.png		0	9	302582	160																								75	prime_left.png	1	302182	0	0	13	1	302182	1	302182	1	302181	20	0	-1	300683	302181	302180	0		TrialProc1	left	0		0	11	302492	-302492		0	0	TrialList1	target_left.png	1	d	0	3	302231	261	d	342	302573												1	1	49				comp			150
1 ver1_main_procedure	37	1	22	<?xml version="1.0"?>\n<Clock xmlns:dt="urn:schemas-microsoft-com:datatypes"><Description dt:dt="string">E-Prime Primary Realtime Clock</Description><StartTime><Timestamp dt:dt="int">0</Timestamp><DateUtc dt:dt="string">2015-08-18T13:35:46Z</DateUtc></StartTime><FrequencyChanges><FrequencyChange><Frequency dt:dt="r8">2441386</Frequency><Timestamp dt:dt="r8">50920604896</Timestamp><Current dt:dt="r8">0</Current><DateUtc dt:dt="string">2015-08-18T13:35:46Z</DateUtc></FrequencyChange></FrequencyChanges></Clock>\n	1 ver1_main_procedure-37-1	99.925	1.0.0.880	1	wr	-618511088	prawa	1	2.0.10.356	08-18-2015	2015-08-18 13:35:46	15:35:46	mezczyzna	2.0.10.92	3	3	1	1																							d	{SPACE}		no	BlockProc1		BlockList									50	Cued	d	color_red.png		0	11	304974	310																			2					25	prime_right.png	0	304553	0	0	13	0	304553	0	304553	1	304553	20	0	-1	303054	304553	304552	0	prime_right.png	TrialProc1	left	0		1	10	304863	-304863		0	0	TrialList1	target_left.png	1	d	0	3	304603	260	d	360	304963												2	1	50				neut			300
1 ver1_main_procedure	37	1	22	<?xml version="1.0"?>\n<Clock xmlns:dt="urn:schemas-microsoft-com:datatypes"><Description dt:dt="string">E-Prime Primary Realtime Clock</Description><StartTime><Timestamp dt:dt="int">0</Timestamp><DateUtc dt:dt="string">2015-08-18T13:35:46Z</DateUtc></StartTime><FrequencyChanges><FrequencyChange><Frequency dt:dt="r8">2441386</Frequency><Timestamp dt:dt="r8">50920604896</Timestamp><Current dt:dt="r8">0</Current><DateUtc dt:dt="string">2015-08-18T13:35:46Z</DateUtc></FrequencyChange></FrequencyChanges></Clock>\n	1 ver1_main_procedure-37-1	99.925	1.0.0.880	1	wr	-618511088	prawa	1	2.0.10.356	08-18-2015	2015-08-18 13:35:46	15:35:46	mezczyzna	2.0.10.92	3	3	1	1																							d	{SPACE}		no	BlockProc1		BlockList									51	Cued	l	color_green.png		0	4	307505	311																			1					75	prime_left.png	0	307095	0	0	13	0	307095	0	307095	1	307095	20	0	-1	305596	307095	307094	0	prime_left.png	TrialProc1	right	0		0	10	307405	-307405		0	0	TrialList1	target_right.png	1	l	0	3	307145	260	l	356	307501												5	1	51				neut			300
1 ver1_main_procedure	37	1	22	<?xml version="1.0"?>\n<Clock xmlns:dt="urn:schemas-microsoft-com:datatypes"><Description dt:dt="string">E-Prime Primary Realtime Clock</Description><StartTime><Timestamp dt:dt="int">0</Timestamp><DateUtc dt:dt="string">2015-08-18T13:35:46Z</DateUtc></StartTime><FrequencyChanges><FrequencyChange><Frequency dt:dt="r8">2441386</Frequency><Timestamp dt:dt="r8">50920604896</Timestamp><Current dt:dt="r8">0</Current><DateUtc dt:dt="string">2015-08-18T13:35:46Z</DateUtc></FrequencyChange></FrequencyChanges></Clock>\n	1 ver1_main_procedure-37-1	99.925	1.0.0.880	1	wr	-618511088	prawa	1	2.0.10.356	08-18-2015	2015-08-18 13:35:46	15:35:46	mezczyzna	2.0.10.92	3	3	1	1																							d	{SPACE}		no	BlockProc1		BlockList									52	Cued	d	color_red.png		0	14	310097	160																			2					25	prime_right.png	0	309627	0	0	13	0	309627	0	309627	1	309627	20	0	-1	308128	309627	309626	0	prime_right.png	TrialProc1	left	0		0	10	309937	-309937		0	0	TrialList1	target_left.png	1	d	0	3	309677	260	d	406	310083												2	1	52				neut			150
1 ver1_main_procedure	37	1	22	<?xml version="1.0"?>\n<Clock xmlns:dt="urn:schemas-microsoft-com:datatypes"><Description dt:dt="string">E-Prime Primary Realtime Clock</Description><StartTime><Timestamp dt:dt="int">0</Timestamp><DateUtc dt:dt="string">2015-08-18T13:35:46Z</DateUtc></StartTime><FrequencyChanges><FrequencyChange><Frequency dt:dt="r8">2441386</Frequency><Timestamp dt:dt="r8">50920604896</Timestamp><Current dt:dt="r8">0</Current><DateUtc dt:dt="string">2015-08-18T13:35:46Z</DateUtc></FrequencyChange></FrequencyChanges></Clock>\n	1 ver1_main_procedure-37-1	99.925	1.0.0.880	1	wr	-618511088	prawa	1	2.0.10.356	08-18-2015	2015-08-18 13:35:46	15:35:46	mezczyzna	2.0.10.92	3	3	1	1																							d	{SPACE}		no	BlockProc1		BlockList									53	Free	dl	color_red.png		0	10	312839	461																			1					25	prime_left.png	0	312069	0	0	13	0	312069	0	312069	1	312069	20	0	-1	310570	312069	312068	0	prime_left.png	TrialProc1	left	0		0	10	312379	-312379		0	0	TrialList1	target_both.png	0	dl	0	3	312119	260	d	710	312829												8	1	53				neut			450
1 ver1_main_procedure	37	1	22	<?xml version="1.0"?>\n<Clock xmlns:dt="urn:schemas-microsoft-com:datatypes"><Description dt:dt="string">E-Prime Primary Realtime Clock</Description><StartTime><Timestamp dt:dt="int">0</Timestamp><DateUtc dt:dt="string">2015-08-18T13:35:46Z</DateUtc></StartTime><FrequencyChanges><FrequencyChange><Frequency dt:dt="r8">2441386</Frequency><Timestamp dt:dt="r8">50920604896</Timestamp><Current dt:dt="r8">0</Current><DateUtc dt:dt="string">2015-08-18T13:35:46Z</DateUtc></FrequencyChange></FrequencyChanges></Clock>\n	1 ver1_main_procedure-37-1	99.925	1.0.0.880	1	wr	-618511088	prawa	1	2.0.10.356	08-18-2015	2015-08-18 13:35:46	15:35:46	mezczyzna	2.0.10.92	3	3	1	1																							d	{SPACE}		no	BlockProc1		BlockList									54	Cued	l	color_purple.png		0	6	315581	311																								75	prime_right.png	0	315111	0	0	13	0	315111	0	315111	1	315111	20	0	-1	313612	315111	315110	0		TrialProc1	right	0		0	10	315421	-315421		0	0	TrialList1	target_right.png	1	l	0	3	315161	260	l	414	315575												4	1	54				comp			300
1 ver1_main_procedure	37	1	22	<?xml version="1.0"?>\n<Clock xmlns:dt="urn:schemas-microsoft-com:datatypes"><Description dt:dt="string">E-Prime Primary Realtime Clock</Description><StartTime><Timestamp dt:dt="int">0</Timestamp><DateUtc dt:dt="string">2015-08-18T13:35:46Z</DateUtc></StartTime><FrequencyChanges><FrequencyChange><Frequency dt:dt="r8">2441386</Frequency><Timestamp dt:dt="r8">50920604896</Timestamp><Current dt:dt="r8">0</Current><DateUtc dt:dt="string">2015-08-18T13:35:46Z</DateUtc></FrequencyChange></FrequencyChanges></Clock>\n	1 ver1_main_procedure-37-1	99.925	1.0.0.880	1	wr	-618511088	prawa	1	2.0.10.356	08-18-2015	2015-08-18 13:35:46	15:35:46	mezczyzna	2.0.10.92	3	3	1	1																							d	{SPACE}		no	BlockProc1		BlockList									55	Cued	d	color_yellow.png		0	8	318093	161																								25	prime_right.png	0	317703	0	0	13	0	317703	0	317703	1	317703	20	0	-1	316204	317703	317702	0		TrialProc1	left	0		0	10	318013	-318013		0	0	TrialList1	target_left.png	1	d	0	3	317753	260	d	332	318085												3	1	55				incomp			150
1 ver1_main_procedure	37	1	22	<?xml version="1.0"?>\n<Clock xmlns:dt="urn:schemas-microsoft-com:datatypes"><Description dt:dt="string">E-Prime Primary Realtime Clock</Description><StartTime><Timestamp dt:dt="int">0</Timestamp><DateUtc dt:dt="string">2015-08-18T13:35:46Z</DateUtc></StartTime><FrequencyChanges><FrequencyChange><Frequency dt:dt="r8">2441386</Frequency><Timestamp dt:dt="r8">50920604896</Timestamp><Current dt:dt="r8">0</Current><DateUtc dt:dt="string">2015-08-18T13:35:46Z</DateUtc></FrequencyChange></FrequencyChanges></Clock>\n	1 ver1_main_procedure-37-1	99.925	1.0.0.880	1	wr	-618511088	prawa	1	2.0.10.356	08-18-2015	2015-08-18 13:35:46	15:35:46	mezczyzna	2.0.10.92	3	3	1	1																							d	{SPACE}		no	BlockProc1		BlockList									56	Cued	l	color_blue.png		0	13	320445	461																								75	prime_left.png	0	320065	0	0	13	0	320065	0	320065	1	320065	20	0	-1	318566	320065	320064	0		TrialProc1	right	0		0	10	320375	-320375		0	0	TrialList1	target_right.png	1	l	0	3	320115	260	l	317	320432												6	1	56				incomp			450
1 ver1_main_procedure	37	1	22	<?xml version="1.0"?>\n<Clock xmlns:dt="urn:schemas-microsoft-com:datatypes"><Description dt:dt="string">E-Prime Primary Realtime Clock</Description><StartTime><Timestamp dt:dt="int">0</Timestamp><DateUtc dt:dt="string">2015-08-18T13:35:46Z</DateUtc></StartTime><FrequencyChanges><FrequencyChange><Frequency dt:dt="r8">2441386</Frequency><Timestamp dt:dt="r8">50920604896</Timestamp><Current dt:dt="r8">0</Current><DateUtc dt:dt="string">2015-08-18T13:35:46Z</DateUtc></FrequencyChange></FrequencyChanges></Clock>\n	1 ver1_main_procedure-37-1	99.925	1.0.0.880	1	wr	-618511088	prawa	1	2.0.10.356	08-18-2015	2015-08-18 13:35:46	15:35:46	mezczyzna	2.0.10.92	3	3	1	1																							d	{SPACE}		no	BlockProc1		BlockList									57	Free	dl	color_orange.png		0	7	323057	160																								25	prime_left.png	0	322717	0	0	13	0	322717	0	322717	1	322717	20	0	-1	321218	322717	322716	0		TrialProc1	right	0		0	10	323027	-323027		0	0	TrialList1	target_both.png	0	dl	0	3	322767	260	d	283	323050												12	1	57				incomp			150
1 ver1_main_procedure	37	1	22	<?xml version="1.0"?>\n<Clock xmlns:dt="urn:schemas-microsoft-com:datatypes"><Description dt:dt="string">E-Prime Primary Realtime Clock</Description><StartTime><Timestamp dt:dt="int">0</Timestamp><DateUtc dt:dt="string">2015-08-18T13:35:46Z</DateUtc></StartTime><FrequencyChanges><FrequencyChange><Frequency dt:dt="r8">2441386</Frequency><Timestamp dt:dt="r8">50920604896</Timestamp><Current dt:dt="r8">0</Current><DateUtc dt:dt="string">2015-08-18T13:35:46Z</DateUtc></FrequencyChange></FrequencyChanges></Clock>\n	1 ver1_main_procedure-37-1	99.925	1.0.0.880	1	wr	-618511088	prawa	1	2.0.10.356	08-18-2015	2015-08-18 13:35:46	15:35:46	mezczyzna	2.0.10.92	3	3	1	1																							d	{SPACE}		no	BlockProc1		BlockList									58	Cued	d	color_red.png		0	5	325579	160																			2					75	prime_right.png	0	325029	0	0	13	0	325029	0	325029	1	325029	20	0	-1	323530	325029	325028	0	prime_right.png	TrialProc1	left	0		0	10	325339	-325339		0	0	TrialList1	target_left.png	1	d	0	3	325079	260	d	495	325574												2	1	58				neut			150
1 ver1_main_procedure	37	1	22	<?xml version="1.0"?>\n<Clock xmlns:dt="urn:schemas-microsoft-com:datatypes"><Description dt:dt="string">E-Prime Primary Realtime Clock</Description><StartTime><Timestamp dt:dt="int">0</Timestamp><DateUtc dt:dt="string">2015-08-18T13:35:46Z</DateUtc></StartTime><FrequencyChanges><FrequencyChange><Frequency dt:dt="r8">2441386</Frequency><Timestamp dt:dt="r8">50920604896</Timestamp><Current dt:dt="r8">0</Current><DateUtc dt:dt="string">2015-08-18T13:35:46Z</DateUtc></FrequencyChange></FrequencyChanges></Clock>\n	1 ver1_main_procedure-37-1	99.925	1.0.0.880	1	wr	-618511088	prawa	1	2.0.10.356	08-18-2015	2015-08-18 13:35:46	15:35:46	mezczyzna	2.0.10.92	3	3	1	1																							d	{SPACE}		no	BlockProc1		BlockList									59	Cued	l	color_blue.png		0	7	327981	460																								75	prime_left.png	0	327551	0	0	13	0	327551	0	327551	2	327551	20	0	-1	326052	327551	327549	0		TrialProc1	right	0		0	10	327861	-327861		0	0	TrialList1	target_right.png	1	l	0	3	327601	260	l	373	327974												6	1	59				incomp			450
1 ver1_main_procedure	37	1	22	<?xml version="1.0"?>\n<Clock xmlns:dt="urn:schemas-microsoft-com:datatypes"><Description dt:dt="string">E-Prime Primary Realtime Clock</Description><StartTime><Timestamp dt:dt="int">0</Timestamp><DateUtc dt:dt="string">2015-08-18T13:35:46Z</DateUtc></StartTime><FrequencyChanges><FrequencyChange><Frequency dt:dt="r8">2441386</Frequency><Timestamp dt:dt="r8">50920604896</Timestamp><Current dt:dt="r8">0</Current><DateUtc dt:dt="string">2015-08-18T13:35:46Z</DateUtc></FrequencyChange></FrequencyChanges></Clock>\n	1 ver1_main_procedure-37-1	99.925	1.0.0.880	1	wr	-618511088	prawa	1	2.0.10.356	08-18-2015	2015-08-18 13:35:46	15:35:46	mezczyzna	2.0.10.92	3	3	1	1																							d	{SPACE}		no	BlockProc1		BlockList									60	Cued	l	color_purple.png		0	11	330683	460																								75	prime_right.png	0	330253	0	0	13	0	330253	0	330253	2	330253	20	0	-1	328754	330253	330251	0		TrialProc1	right	0		0	10	330563	-330563		0	0	TrialList1	target_right.png	1	l	0	3	330303	260	l	369	330672												4	1	60				comp			450
1 ver1_main_procedure	37	1	22	<?xml version="1.0"?>\n<Clock xmlns:dt="urn:schemas-microsoft-com:datatypes"><Description dt:dt="string">E-Prime Primary Realtime Clock</Description><StartTime><Timestamp dt:dt="int">0</Timestamp><DateUtc dt:dt="string">2015-08-18T13:35:46Z</DateUtc></StartTime><FrequencyChanges><FrequencyChange><Frequency dt:dt="r8">2441386</Frequency><Timestamp dt:dt="r8">50920604896</Timestamp><Current dt:dt="r8">0</Current><DateUtc dt:dt="string">2015-08-18T13:35:46Z</DateUtc></FrequencyChange></FrequencyChanges></Clock>\n	1 ver1_main_procedure-37-1	99.925	1.0.0.880	1	wr	-618511088	prawa	1	2.0.10.356	08-18-2015	2015-08-18 13:35:46	15:35:46	mezczyzna	2.0.10.92	3	3	1	1																							d	{SPACE}		no	BlockProc1		BlockList									61	Cued	l	color_blue.png		0	13	333405	310																								75	prime_left.png	0	332955	0	0	13	0	332955	0	332955	2	332955	20	0	-1	331456	332955	332953	0		TrialProc1	right	0		0	10	333265	-333265		0	0	TrialList1	target_right.png	1	l	0	3	333005	260	l	387	333392												6	1	61				incomp			300
1 ver1_main_procedure	37	1	22	<?xml version="1.0"?>\n<Clock xmlns:dt="urn:schemas-microsoft-com:datatypes"><Description dt:dt="string">E-Prime Primary Realtime Clock</Description><StartTime><Timestamp dt:dt="int">0</Timestamp><DateUtc dt:dt="string">2015-08-18T13:35:46Z</DateUtc></StartTime><FrequencyChanges><FrequencyChange><Frequency dt:dt="r8">2441386</Frequency><Timestamp dt:dt="r8">50920604896</Timestamp><Current dt:dt="r8">0</Current><DateUtc dt:dt="string">2015-08-18T13:35:46Z</DateUtc></FrequencyChange></FrequencyChanges></Clock>\n	1 ver1_main_procedure-37-1	99.925	1.0.0.880	1	wr	-618511088	prawa	1	2.0.10.356	08-18-2015	2015-08-18 13:35:46	15:35:46	mezczyzna	2.0.10.92	3	3	1	1																							d	{SPACE}		no	BlockProc1		BlockList									62	Free	dl	color_green.png		0	13	336257	460																			1					75	prime_left.png	0	335527	0	0	13	0	335527	0	335527	2	335527	20	0	-1	334028	335527	335525	0	prime_left.png	TrialProc1	right	0		0	10	335837	-335837		0	0	TrialList1	target_both.png	0	dl	0	3	335577	260	l	667	336244												11	1	62				neut			450
1 ver1_main_procedure	37	1	22	<?xml version="1.0"?>\n<Clock xmlns:dt="urn:schemas-microsoft-com:datatypes"><Description dt:dt="string">E-Prime Primary Realtime Clock</Description><StartTime><Timestamp dt:dt="int">0</Timestamp><DateUtc dt:dt="string">2015-08-18T13:35:46Z</DateUtc></StartTime><FrequencyChanges><FrequencyChange><Frequency dt:dt="r8">2441386</Frequency><Timestamp dt:dt="r8">50920604896</Timestamp><Current dt:dt="r8">0</Current><DateUtc dt:dt="string">2015-08-18T13:35:46Z</DateUtc></FrequencyChange></FrequencyChanges></Clock>\n	1 ver1_main_procedure-37-1	99.925	1.0.0.880	1	wr	-618511088	prawa	1	2.0.10.356	08-18-2015	2015-08-18 13:35:46	15:35:46	mezczyzna	2.0.10.92	3	3	1	1																							d	{SPACE}		no	BlockProc1		BlockList									63	Cued	l			0	4	339009	461																								25	prime_right.png	0	338529	0	0	13	0	338529	0	338529	1	338529	20	0	-1	337030	338529	338528	0		TrialProc1	right	0		0	10	338839	-338839		0	0	TrialList1	target_right.png	0	l	0	3	338579	260	d	425	339004												4	1	63				comp			450
1 ver1_main_procedure	37	1	22	<?xml version="1.0"?>\n<Clock xmlns:dt="urn:schemas-microsoft-com:datatypes"><Description dt:dt="string">E-Prime Primary Realtime Clock</Description><StartTime><Timestamp dt:dt="int">0</Timestamp><DateUtc dt:dt="string">2015-08-18T13:35:46Z</DateUtc></StartTime><FrequencyChanges><FrequencyChange><Frequency dt:dt="r8">2441386</Frequency><Timestamp dt:dt="r8">50920604896</Timestamp><Current dt:dt="r8">0</Current><DateUtc dt:dt="string">2015-08-18T13:35:46Z</DateUtc></FrequencyChange></FrequencyChanges></Clock>\n	1 ver1_main_procedure-37-1	99.925	1.0.0.880	1	wr	-618511088	prawa	1	2.0.10.356	08-18-2015	2015-08-18 13:35:46	15:35:46	mezczyzna	2.0.10.92	3	3	1	1																							d	{SPACE}		no	BlockProc1		BlockList									64	Cued	d	color_orange.png		0	6	341851	461																								75	prime_left.png	0	341281	0	0	13	0	341281	0	341281	1	341281	20	0	-1	339782	341281	341280	0		TrialProc1	left	0		0	10	341591	-341591		0	0	TrialList1	target_left.png	1	d	0	3	341331	260	d	514	341845												1	1	64				comp			450
1 ver1_main_procedure	37	1	22	<?xml version="1.0"?>\n<Clock xmlns:dt="urn:schemas-microsoft-com:datatypes"><Description dt:dt="string">E-Prime Primary Realtime Clock</Description><StartTime><Timestamp dt:dt="int">0</Timestamp><DateUtc dt:dt="string">2015-08-18T13:35:46Z</DateUtc></StartTime><FrequencyChanges><FrequencyChange><Frequency dt:dt="r8">2441386</Frequency><Timestamp dt:dt="r8">50920604896</Timestamp><Current dt:dt="r8">0</Current><DateUtc dt:dt="string">2015-08-18T13:35:46Z</DateUtc></FrequencyChange></FrequencyChanges></Clock>\n	1 ver1_main_procedure-37-1	99.925	1.0.0.880	1	wr	-618511088	prawa	1	2.0.10.356	08-18-2015	2015-08-18 13:35:46	15:35:46	mezczyzna	2.0.10.92	3	3	1	1																							d	{SPACE}		no	BlockProc1		BlockList									65	Cued	d	color_orange.png		0	10	344513	461																								25	prime_left.png	0	344123	0	0	13	0	344123	0	344123	1	344123	20	0	-1	342624	344123	344122	0		TrialProc1	left	0		0	10	344433	-344433		0	0	TrialList1	target_left.png	1	d	0	3	344173	260	d	330	344503												1	1	65				comp			450
1 ver1_main_procedure	37	1	22	<?xml version="1.0"?>\n<Clock xmlns:dt="urn:schemas-microsoft-com:datatypes"><Description dt:dt="string">E-Prime Primary Realtime Clock</Description><StartTime><Timestamp dt:dt="int">0</Timestamp><DateUtc dt:dt="string">2015-08-18T13:35:46Z</DateUtc></StartTime><FrequencyChanges><FrequencyChange><Frequency dt:dt="r8">2441386</Frequency><Timestamp dt:dt="r8">50920604896</Timestamp><Current dt:dt="r8">0</Current><DateUtc dt:dt="string">2015-08-18T13:35:46Z</DateUtc></FrequencyChange></FrequencyChanges></Clock>\n	1 ver1_main_procedure-37-1	99.925	1.0.0.880	1	wr	-618511088	prawa	1	2.0.10.356	08-18-2015	2015-08-18 13:35:46	15:35:46	mezczyzna	2.0.10.92	3	3	1	1																							d	{SPACE}		no	BlockProc1		BlockList									66	Cued	d	color_yellow.png		0	4	347235	161																								25	prime_right.png	0	346785	0	0	13	0	346785	0	346785	1	346785	20	0	-1	345286	346785	346784	0		TrialProc1	left	0		0	10	347095	-347095		0	0	TrialList1	target_left.png	1	d	0	3	346835	260	d	395	347230												3	1	66				incomp			150
1 ver1_main_procedure	37	1	22	<?xml version="1.0"?>\n<Clock xmlns:dt="urn:schemas-microsoft-com:datatypes"><Description dt:dt="string">E-Prime Primary Realtime Clock</Description><StartTime><Timestamp dt:dt="int">0</Timestamp><DateUtc dt:dt="string">2015-08-18T13:35:46Z</DateUtc></StartTime><FrequencyChanges><FrequencyChange><Frequency dt:dt="r8">2441386</Frequency><Timestamp dt:dt="r8">50920604896</Timestamp><Current dt:dt="r8">0</Current><DateUtc dt:dt="string">2015-08-18T13:35:46Z</DateUtc></FrequencyChange></FrequencyChanges></Clock>\n	1 ver1_main_procedure-37-1	99.925	1.0.0.880	1	wr	-618511088	prawa	1	2.0.10.356	08-18-2015	2015-08-18 13:35:46	15:35:46	mezczyzna	2.0.10.92	3	3	1	1																							d	{SPACE}		no	BlockProc1		BlockList									67	Cued	l	color_blue.png		0	6	349607	310																								75	prime_left.png	0	349207	0	0	13	0	349207	0	349207	1	349207	20	0	-1	347708	349207	349206	0		TrialProc1	right	0		0	10	349517	-349517		0	0	TrialList1	target_right.png	1	l	0	3	349257	260	l	343	349600												6	1	67				incomp			300
1 ver1_main_procedure	37	1	22	<?xml version="1.0"?>\n<Clock xmlns:dt="urn:schemas-microsoft-com:datatypes"><Description dt:dt="string">E-Prime Primary Realtime Clock</Description><StartTime><Timestamp dt:dt="int">0</Timestamp><DateUtc dt:dt="string">2015-08-18T13:35:46Z</DateUtc></StartTime><FrequencyChanges><FrequencyChange><Frequency dt:dt="r8">2441386</Frequency><Timestamp dt:dt="r8">50920604896</Timestamp><Current dt:dt="r8">0</Current><DateUtc dt:dt="string">2015-08-18T13:35:46Z</DateUtc></FrequencyChange></FrequencyChanges></Clock>\n	1 ver1_main_procedure-37-1	99.925	1.0.0.880	1	wr	-618511088	prawa	1	2.0.10.356	08-18-2015	2015-08-18 13:35:46	15:35:46	mezczyzna	2.0.10.92	3	3	1	1																							d	{SPACE}		no	BlockProc1		BlockList									68	Cued	l	color_blue.png		0	9	352179	310																								25	prime_left.png	0	351729	0	0	13	0	351729	0	351729	1	351729	20	0	-1	350230	351729	351728	0		TrialProc1	right	0		0	10	352039	-352039		0	0	TrialList1	target_right.png	1	l	0	3	351779	260	l	391	352170												6	1	68				incomp			300
1 ver1_main_procedure	37	1	22	<?xml version="1.0"?>\n<Clock xmlns:dt="urn:schemas-microsoft-com:datatypes"><Description dt:dt="string">E-Prime Primary Realtime Clock</Description><StartTime><Timestamp dt:dt="int">0</Timestamp><DateUtc dt:dt="string">2015-08-18T13:35:46Z</DateUtc></StartTime><FrequencyChanges><FrequencyChange><Frequency dt:dt="r8">2441386</Frequency><Timestamp dt:dt="r8">50920604896</Timestamp><Current dt:dt="r8">0</Current><DateUtc dt:dt="string">2015-08-18T13:35:46Z</DateUtc></FrequencyChange></FrequencyChanges></Clock>\n	1 ver1_main_procedure-37-1	99.925	1.0.0.880	1	wr	-618511088	prawa	1	2.0.10.356	08-18-2015	2015-08-18 13:35:46	15:35:46	mezczyzna	2.0.10.92	3	3	1	1																							d	{SPACE}		no	BlockProc1		BlockList									69	Cued	l	color_blue.png		0	14	354751	460																								75	prime_left.png	0	354301	0	0	13	0	354301	0	354301	1	354301	20	0	-1	352802	354301	354300	0		TrialProc1	right	0		0	10	354611	-354611		0	0	TrialList1	target_right.png	1	l	0	3	354351	260	l	386	354737												6	1	69				incomp			450
1 ver1_main_procedure	37	1	22	<?xml version="1.0"?>\n<Clock xmlns:dt="urn:schemas-microsoft-com:datatypes"><Description dt:dt="string">E-Prime Primary Realtime Clock</Description><StartTime><Timestamp dt:dt="int">0</Timestamp><DateUtc dt:dt="string">2015-08-18T13:35:46Z</DateUtc></StartTime><FrequencyChanges><FrequencyChange><Frequency dt:dt="r8">2441386</Frequency><Timestamp dt:dt="r8">50920604896</Timestamp><Current dt:dt="r8">0</Current><DateUtc dt:dt="string">2015-08-18T13:35:46Z</DateUtc></FrequencyChange></FrequencyChanges></Clock>\n	1 ver1_main_procedure-37-1	99.925	1.0.0.880	1	wr	-618511088	prawa	1	2.0.10.356	08-18-2015	2015-08-18 13:35:46	15:35:46	mezczyzna	2.0.10.92	3	3	1	1																							d	{SPACE}		no	BlockProc1		BlockList									70	Cued	l	color_purple.png		0	6	357463	310																								75	prime_right.png	0	357023	0	0	13	0	357023	0	357023	1	357023	20	0	-1	355524	357023	357022	0		TrialProc1	right	0		0	10	357333	-357333		0	0	TrialList1	target_right.png	1	l	0	3	357073	260	l	384	357457												4	1	70				comp			300
1 ver1_main_procedure	37	1	22	<?xml version="1.0"?>\n<Clock xmlns:dt="urn:schemas-microsoft-com:datatypes"><Description dt:dt="string">E-Prime Primary Realtime Clock</Description><StartTime><Timestamp dt:dt="int">0</Timestamp><DateUtc dt:dt="string">2015-08-18T13:35:46Z</DateUtc></StartTime><FrequencyChanges><FrequencyChange><Frequency dt:dt="r8">2441386</Frequency><Timestamp dt:dt="r8">50920604896</Timestamp><Current dt:dt="r8">0</Current><DateUtc dt:dt="string">2015-08-18T13:35:46Z</DateUtc></FrequencyChange></FrequencyChanges></Clock>\n	1 ver1_main_procedure-37-1	99.925	1.0.0.880	1	wr	-618511088	prawa	1	2.0.10.356	08-18-2015	2015-08-18 13:35:46	15:35:46	mezczyzna	2.0.10.92	3	3	1	1																							d	{SPACE}		no	BlockProc1		BlockList									71	Cued	d	color_red.png		0	14	360075	160																			2					75	prime_right.png	0	359585	0	0	13	0	359585	0	359585	1	359585	20	0	-1	358086	359585	359584	0	prime_right.png	TrialProc1	left	0		0	10	359895	-359895		0	0	TrialList1	target_left.png	1	d	0	3	359635	260	d	426	360061												2	1	71				neut			150
1 ver1_main_procedure	37	1	22	<?xml version="1.0"?>\n<Clock xmlns:dt="urn:schemas-microsoft-com:datatypes"><Description dt:dt="string">E-Prime Primary Realtime Clock</Description><StartTime><Timestamp dt:dt="int">0</Timestamp><DateUtc dt:dt="string">2015-08-18T13:35:46Z</DateUtc></StartTime><FrequencyChanges><FrequencyChange><Frequency dt:dt="r8">2441386</Frequency><Timestamp dt:dt="r8">50920604896</Timestamp><Current dt:dt="r8">0</Current><DateUtc dt:dt="string">2015-08-18T13:35:46Z</DateUtc></FrequencyChange></FrequencyChanges></Clock>\n	1 ver1_main_procedure-37-1	99.925	1.0.0.880	1	wr	-618511088	prawa	1	2.0.10.356	08-18-2015	2015-08-18 13:35:46	15:35:46	mezczyzna	2.0.10.92	3	3	1	1																							d	{SPACE}		no	BlockProc1		BlockList									72	Free	dl	color_yellow.png		0	10	362647	460																								75	prime_right.png	0	362047	0	0	13	0	362047	0	362047	2	362047	20	0	-1	360548	362047	362045	0		TrialProc1	right	0		0	10	362357	-362357		0	0	TrialList1	target_both.png	0	dl	0	3	362097	260	d	540	362637												10	1	72				comp			450
1 ver1_main_procedure	37	1	22	<?xml version="1.0"?>\n<Clock xmlns:dt="urn:schemas-microsoft-com:datatypes"><Description dt:dt="string">E-Prime Primary Realtime Clock</Description><StartTime><Timestamp dt:dt="int">0</Timestamp><DateUtc dt:dt="string">2015-08-18T13:35:46Z</DateUtc></StartTime><FrequencyChanges><FrequencyChange><Frequency dt:dt="r8">2441386</Frequency><Timestamp dt:dt="r8">50920604896</Timestamp><Current dt:dt="r8">0</Current><DateUtc dt:dt="string">2015-08-18T13:35:46Z</DateUtc></FrequencyChange></FrequencyChanges></Clock>\n	1 ver1_main_procedure-37-1	99.925	1.0.0.880	1	wr	-618511088	prawa	1	2.0.10.356	08-18-2015	2015-08-18 13:35:46	15:35:46	mezczyzna	2.0.10.92	3	3	1	1																							d	{SPACE}		no	BlockProc1		BlockList									73									1	6	5	4	3	2	color_orange.png	color_red.png	color_yellow.png	color_green.png	color_purple.png	color_blue.png	color_orange.png	color_blue.png	color_purple.png	color_green.png	color_yellow.png	color_red.png		1	1	1	18784																						DragProc											Ocena																															
1 ver1_main_procedure	37	1	22	<?xml version="1.0"?>\n<Clock xmlns:dt="urn:schemas-microsoft-com:datatypes"><Description dt:dt="string">E-Prime Primary Realtime Clock</Description><StartTime><Timestamp dt:dt="int">0</Timestamp><DateUtc dt:dt="string">2015-08-18T13:35:46Z</DateUtc></StartTime><FrequencyChanges><FrequencyChange><Frequency dt:dt="r8">2441386</Frequency><Timestamp dt:dt="r8">50920604896</Timestamp><Current dt:dt="r8">0</Current><DateUtc dt:dt="string">2015-08-18T13:35:46Z</DateUtc></FrequencyChange></FrequencyChanges></Clock>\n	1 ver1_main_procedure-37-1	99.925	1.0.0.880	1	wr	-618511088	prawa	1	2.0.10.356	08-18-2015	2015-08-18 13:35:46	15:35:46	mezczyzna	2.0.10.92	3	3	1	1																							d	{SPACE}		no	BlockProc1		BlockList									74															color_orange.png	color_red.png	color_yellow.png	color_green.png	color_purple.png	color_blue.png								2	1	2																							EnterProc											Ocena												2	10	30	50	70	80														
1 ver1_main_procedure	37	1	22	<?xml version="1.0"?>\n<Clock xmlns:dt="urn:schemas-microsoft-com:datatypes"><Description dt:dt="string">E-Prime Primary Realtime Clock</Description><StartTime><Timestamp dt:dt="int">0</Timestamp><DateUtc dt:dt="string">2015-08-18T13:35:46Z</DateUtc></StartTime><FrequencyChanges><FrequencyChange><Frequency dt:dt="r8">2441386</Frequency><Timestamp dt:dt="r8">50920604896</Timestamp><Current dt:dt="r8">0</Current><DateUtc dt:dt="string">2015-08-18T13:35:46Z</DateUtc></FrequencyChange></FrequencyChanges></Clock>\n	1 ver1_main_procedure-37-1	99.925	1.0.0.880	1	wr	-618511088	prawa	1	2.0.10.356	08-18-2015	2015-08-18 13:35:46	15:35:46	mezczyzna	2.0.10.92	4	6	1	2																							d	{SPACE}		no	BlockProc2		BlockList									1	Cued	d	color_purple.png		0	13	518284	461																			1					75	prime_left.png	0	517674	0	0	13	0	517674	0	517674	1	517674	20	0	-1	516175	517674	517673	0	prime_left.png	TrialProc1	left	0		0	10	517984	-517984		0	0	TrialList2	target_left.png	1	d	0	3	517724	260	d	546	518270															2	1	1	neut			450
1 ver1_main_procedure	37	1	22	<?xml version="1.0"?>\n<Clock xmlns:dt="urn:schemas-microsoft-com:datatypes"><Description dt:dt="string">E-Prime Primary Realtime Clock</Description><StartTime><Timestamp dt:dt="int">0</Timestamp><DateUtc dt:dt="string">2015-08-18T13:35:46Z</DateUtc></StartTime><FrequencyChanges><FrequencyChange><Frequency dt:dt="r8">2441386</Frequency><Timestamp dt:dt="r8">50920604896</Timestamp><Current dt:dt="r8">0</Current><DateUtc dt:dt="string">2015-08-18T13:35:46Z</DateUtc></FrequencyChange></FrequencyChanges></Clock>\n	1 ver1_main_procedure-37-1	99.925	1.0.0.880	1	wr	-618511088	prawa	1	2.0.10.356	08-18-2015	2015-08-18 13:35:46	15:35:46	mezczyzna	2.0.10.92	4	6	1	2																							d	{SPACE}		no	BlockProc2		BlockList									2	Free	dl	color_red.png		0	15	521157	460																								75	prime_left.png	0	520556	0	0	13	0	520556	0	520556	1	520556	20	0	-1	519057	520556	520555	0		TrialProc1	right	0		1	10	520866	-520866		0	0	TrialList2	target_both.png	0	dl	0	3	520606	260	d	536	521142															12	1	2	incomp			450
1 ver1_main_procedure	37	1	22	<?xml version="1.0"?>\n<Clock xmlns:dt="urn:schemas-microsoft-com:datatypes"><Description dt:dt="string">E-Prime Primary Realtime Clock</Description><StartTime><Timestamp dt:dt="int">0</Timestamp><DateUtc dt:dt="string">2015-08-18T13:35:46Z</DateUtc></StartTime><FrequencyChanges><FrequencyChange><Frequency dt:dt="r8">2441386</Frequency><Timestamp dt:dt="r8">50920604896</Timestamp><Current dt:dt="r8">0</Current><DateUtc dt:dt="string">2015-08-18T13:35:46Z</DateUtc></FrequencyChange></FrequencyChanges></Clock>\n	1 ver1_main_procedure-37-1	99.925	1.0.0.880	1	wr	-618511088	prawa	1	2.0.10.356	08-18-2015	2015-08-18 13:35:46	15:35:46	mezczyzna	2.0.10.92	4	6	1	2																							d	{SPACE}		no	BlockProc2		BlockList									3	Free	dl	color_orange.png		0	6	523969	460																								25	prime_right.png	0	523428	0	0	13	0	523429	0	523428	1	523428	20	0	-1	521930	523428	523427	0		TrialProc1	right	0		0	11	523739	-523739		0	0	TrialList2	target_both.png	0	dl	0	3	523478	261	d	485	523963															10	1	3	comp			450
1 ver1_main_procedure	37	1	22	<?xml version="1.0"?>\n<Clock xmlns:dt="urn:schemas-microsoft-com:datatypes"><Description dt:dt="string">E-Prime Primary Realtime Clock</Description><StartTime><Timestamp dt:dt="int">0</Timestamp><DateUtc dt:dt="string">2015-08-18T13:35:46Z</DateUtc></StartTime><FrequencyChanges><FrequencyChange><Frequency dt:dt="r8">2441386</Frequency><Timestamp dt:dt="r8">50920604896</Timestamp><Current dt:dt="r8">0</Current><DateUtc dt:dt="string">2015-08-18T13:35:46Z</DateUtc></FrequencyChange></FrequencyChanges></Clock>\n	1 ver1_main_procedure-37-1	99.925	1.0.0.880	1	wr	-618511088	prawa	1	2.0.10.356	08-18-2015	2015-08-18 13:35:46	15:35:46	mezczyzna	2.0.10.92	4	6	1	2																							d	{SPACE}		no	BlockProc2		BlockList									4	Free	dl	color_purple.png		0	8	526741	160																			2					25	prime_right.png	1	526241	0	0	13	1	526241	1	526241	1	526240	20	0	-1	524742	526240	526239	0	prime_right.png	TrialProc1	left	0		0	10	526551	-526551		0	0	TrialList2	target_both.png	0	dl	0	4	526291	260	d	442	526733															8	1	4	neut			150
1 ver1_main_procedure	37	1	22	<?xml version="1.0"?>\n<Clock xmlns:dt="urn:schemas-microsoft-com:datatypes"><Description dt:dt="string">E-Prime Primary Realtime Clock</Description><StartTime><Timestamp dt:dt="int">0</Timestamp><DateUtc dt:dt="string">2015-08-18T13:35:46Z</DateUtc></StartTime><FrequencyChanges><FrequencyChange><Frequency dt:dt="r8">2441386</Frequency><Timestamp dt:dt="r8">50920604896</Timestamp><Current dt:dt="r8">0</Current><DateUtc dt:dt="string">2015-08-18T13:35:46Z</DateUtc></FrequencyChange></FrequencyChanges></Clock>\n	1 ver1_main_procedure-37-1	99.925	1.0.0.880	1	wr	-618511088	prawa	1	2.0.10.356	08-18-2015	2015-08-18 13:35:46	15:35:46	mezczyzna	2.0.10.92	4	6	1	2																							d	{SPACE}		no	BlockProc2		BlockList									5	Cued	d	color_purple.png		0	6	529273	160																			1					75	prime_left.png	0	528712	0	0	13	1	528713	1	528713	1	528712	20	0	-1	527213	528712	528711	0	prime_left.png	TrialProc1	left	0		0	11	529023	-529023		0	0	TrialList2	target_left.png	1	d	0	3	528762	261	d	505	529267															2	1	5	neut			150
1 ver1_main_procedure	37	1	22	<?xml version="1.0"?>\n<Clock xmlns:dt="urn:schemas-microsoft-com:datatypes"><Description dt:dt="string">E-Prime Primary Realtime Clock</Description><StartTime><Timestamp dt:dt="int">0</Timestamp><DateUtc dt:dt="string">2015-08-18T13:35:46Z</DateUtc></StartTime><FrequencyChanges><FrequencyChange><Frequency dt:dt="r8">2441386</Frequency><Timestamp dt:dt="r8">50920604896</Timestamp><Current dt:dt="r8">0</Current><DateUtc dt:dt="string">2015-08-18T13:35:46Z</DateUtc></FrequencyChange></FrequencyChanges></Clock>\n	1 ver1_main_procedure-37-1	99.925	1.0.0.880	1	wr	-618511088	prawa	1	2.0.10.356	08-18-2015	2015-08-18 13:35:46	15:35:46	mezczyzna	2.0.10.92	4	6	1	2																							d	{SPACE}		no	BlockProc2		BlockList									6	Cued	l	color_blue.png		0	10	531805	160																								25	prime_right.png	0	531244	0	0	13	0	531244	0	531244	1	531244	20	0	-1	529745	531244	531243	0		TrialProc1	right	0		1	10	531554	-531554		0	0	TrialList2	target_right.png	1	l	0	3	531294	260	l	501	531795															4	1	6	comp			150
1 ver1_main_procedure	37	1	22	<?xml version="1.0"?>\n<Clock xmlns:dt="urn:schemas-microsoft-com:datatypes"><Description dt:dt="string">E-Prime Primary Realtime Clock</Description><StartTime><Timestamp dt:dt="int">0</Timestamp><DateUtc dt:dt="string">2015-08-18T13:35:46Z</DateUtc></StartTime><FrequencyChanges><FrequencyChange><Frequency dt:dt="r8">2441386</Frequency><Timestamp dt:dt="r8">50920604896</Timestamp><Current dt:dt="r8">0</Current><DateUtc dt:dt="string">2015-08-18T13:35:46Z</DateUtc></FrequencyChange></FrequencyChanges></Clock>\n	1 ver1_main_procedure-37-1	99.925	1.0.0.880	1	wr	-618511088	prawa	1	2.0.10.356	08-18-2015	2015-08-18 13:35:46	15:35:46	mezczyzna	2.0.10.92	4	6	1	2																							d	{SPACE}		no	BlockProc2		BlockList									7	Cued	l	color_yellow.png		0	14	534567	460																			2					75	prime_right.png	0	533776	0	0	13	0	533776	0	533776	1	533776	20	0	-1	532277	533776	533775	0	prime_right.png	TrialProc1	right	0		1	10	534086	-534086		0	0	TrialList2	target_right.png	1	l	0	3	533826	260	l	727	534553															5	1	7	neut			450
1 ver1_main_procedure	37	1	22	<?xml version="1.0"?>\n<Clock xmlns:dt="urn:schemas-microsoft-com:datatypes"><Description dt:dt="string">E-Prime Primary Realtime Clock</Description><StartTime><Timestamp dt:dt="int">0</Timestamp><DateUtc dt:dt="string">2015-08-18T13:35:46Z</DateUtc></StartTime><FrequencyChanges><FrequencyChange><Frequency dt:dt="r8">2441386</Frequency><Timestamp dt:dt="r8">50920604896</Timestamp><Current dt:dt="r8">0</Current><DateUtc dt:dt="string">2015-08-18T13:35:46Z</DateUtc></FrequencyChange></FrequencyChanges></Clock>\n	1 ver1_main_procedure-37-1	99.925	1.0.0.880	1	wr	-618511088	prawa	1	2.0.10.356	08-18-2015	2015-08-18 13:35:46	15:35:46	mezczyzna	2.0.10.92	4	6	1	2																							d	{SPACE}		no	BlockProc2		BlockList									8	Free	dl	color_blue.png		0	14	537329	310																								75	prime_right.png	0	536839	0	0	13	0	536839	0	536839	2	536839	19	0	-1	535340	536839	536837	0		TrialProc1	right	0		0	10	537149	-537149		0	0	TrialList2	target_both.png	0	dl	0	4	536889	260	l	426	537315															10	1	8	comp			300
1 ver1_main_procedure	37	1	22	<?xml version="1.0"?>\n<Clock xmlns:dt="urn:schemas-microsoft-com:datatypes"><Description dt:dt="string">E-Prime Primary Realtime Clock</Description><StartTime><Timestamp dt:dt="int">0</Timestamp><DateUtc dt:dt="string">2015-08-18T13:35:46Z</DateUtc></StartTime><FrequencyChanges><FrequencyChange><Frequency dt:dt="r8">2441386</Frequency><Timestamp dt:dt="r8">50920604896</Timestamp><Current dt:dt="r8">0</Current><DateUtc dt:dt="string">2015-08-18T13:35:46Z</DateUtc></FrequencyChange></FrequencyChanges></Clock>\n	1 ver1_main_procedure-37-1	99.925	1.0.0.880	1	wr	-618511088	prawa	1	2.0.10.356	08-18-2015	2015-08-18 13:35:46	15:35:46	mezczyzna	2.0.10.92	4	6	1	2																							d	{SPACE}		no	BlockProc2		BlockList									9	Free	dl	color_blue.png		0	10	539931	160																								75	prime_right.png	0	539450	0	0	13	1	539451	1	539451	1	539450	20	0	-1	537952	539450	539449	0		TrialProc1	left	0		0	11	539761	-539761		0	0	TrialList2	target_both.png	0	dl	0	3	539500	261	l	421	539921															9	1	9	incomp			150
