ExperimentName	Subject	Session	Age	Clock.Information	DataFile.Basename	Display.RefreshRate	ExperimentVersion	Group	Name	RandomSeed	Recznosc	ResearcherID	RuntimeVersion	SessionDate	SessionStartDateTimeUtc	SessionTime	Sex	StudioVersion	Block	BlockList	BlockList.Cycle	BlockList.Sample	BlockNumber	GoodBye.RESP	GoodBye2.RESP	GoodByeList	GoodByeList.Cycle	GoodByeList.Sample	InstrList	InstrList.Cycle	InstrList.Sample	Instructions3.RESP	Instructions4.RESP	Instructions5.RESP	kobieta_S1	kobieta_S2	kobieta_S3	kobieta_S4	kobieta_S5	mezczyzna_S1	mezczyzna_S2	mezczyzna_S3	mezczyzna_S4	mezczyzna_S5	NextBlock.RESP	NextBlock0.RESP	planowanie	PracticeMode	Procedure[Block]	proszenie	Running[Block]	TrainingList	TrainingList.Cycle	TrainingList.Sample	WordList	WordList1	wykonanie	zauwazenie	zrozumienie	Trial	ChoiceType	CorrectRespon	Effect	ErrorText	Fixation2.DurationError	Fixation2.OnsetDelay	Fixation2.OnsetTime	Fixation2.OnsetToOnsetTime	GoalRespInd1	GoalRespInd2	GoalRespInd3	GoalRespInd4	GoalRespInd5	GoalRespInd6	GoalRespName1	GoalRespName2	GoalRespName3	GoalRespName4	GoalRespName5	GoalRespName6	kol1	kol2	kol3	kol4	kol5	kol6	NeutralPrimeList1	Ocena	Ocena.Cycle	Ocena.Sample	OverallRT	Posit	Prime	Prime.ActionDelay	Prime.ActionTime	Prime.CustomOffsetTime	Prime.CustomOnsetTime	Prime.Duration	Prime.DurationError	Prime.FinishTime	Prime.OffsetDelay	Prime.OffsetTime	Prime.OnsetDelay	Prime.OnsetTime	Prime.OnsetToOnsetTime	Prime.PendingInputMasks	Prime.PreRelease	Prime.StartTime	Prime.TargetOffsetTime	Prime.TargetOnsetTime	Prime.TimingMode	PrimeChoice	Procedure[Trial]	Resp	RespWin.ACC	RespWin.CRESP	RespWin.DurationError	RespWin.OnsetDelay	RespWin.OnsetTime	RespWin.OnsetToOnsetTime	RespWin.RESP	RespWin.RT	RespWin.RTTime	Running[Trial]	Target	TargetSlide.ACC	TargetSlide.CRESP	TargetSlide.DurationError	TargetSlide.OnsetDelay	TargetSlide.OnsetTime	TargetSlide.OnsetToOnsetTime	TargetSlide.RESP	TargetSlide.RT	TargetSlide.RTTime	TargetTraining	TBox1	TBox2	TBox3	TBox4	TBox5	TBox6	TrainingList1	TrainingList1.Cycle	TrainingList1.Sample	TrCorrectResp	TrialList1	TrialList1.Cycle	TrialList1.Sample	TrialList2	TrialList2.Cycle	TrialList2.Sample	TrialType	TrPosit	TrWaitTime	WaitTime
1 ver1_main_procedure	39	1	27	<?xml version="1.0"?>\n<Clock xmlns:dt="urn:schemas-microsoft-com:datatypes"><Description dt:dt="string">E-Prime Primary Realtime Clock</Description><StartTime><Timestamp dt:dt="int">0</Timestamp><DateUtc dt:dt="string">2015-08-21T15:26:51Z</DateUtc></StartTime><FrequencyChanges><FrequencyChange><Frequency dt:dt="r8">2612285</Frequency><Timestamp dt:dt="r8">17124860029</Timestamp><Current dt:dt="r8">0</Current><DateUtc dt:dt="string">2015-08-21T15:26:51Z</DateUtc></FrequencyChange></FrequencyChanges></Clock>\n	1 ver1_main_procedure-39-1	99.921	1.0.0.880	1	ad	-54491760	prawa	1	2.0.10.182	08-21-2015	2015-08-21 15:26:52	17:26:52	kobieta	2.0.10.92	1										1	1	1	{SPACE}	{SPACE}	d	poproszona	planowała	zrozumiałaś	wykonała		poproszony	planował	zrozumiałeś	wykonał				planowała		InstrProc	poproszona	InstrList				1		wykonała		zrozumiałaś																																																																																																
1 ver1_main_procedure	39	1	27	<?xml version="1.0"?>\n<Clock xmlns:dt="urn:schemas-microsoft-com:datatypes"><Description dt:dt="string">E-Prime Primary Realtime Clock</Description><StartTime><Timestamp dt:dt="int">0</Timestamp><DateUtc dt:dt="string">2015-08-21T15:26:51Z</DateUtc></StartTime><FrequencyChanges><FrequencyChange><Frequency dt:dt="r8">2612285</Frequency><Timestamp dt:dt="r8">17124860029</Timestamp><Current dt:dt="r8">0</Current><DateUtc dt:dt="string">2015-08-21T15:26:51Z</DateUtc></FrequencyChange></FrequencyChanges></Clock>\n	1 ver1_main_procedure-39-1	99.921	1.0.0.880	1	ad	-54491760	prawa	1	2.0.10.182	08-21-2015	2015-08-21 15:26:52	17:26:52	kobieta	2.0.10.92	2																														TrainingProc1		TrainingList	1	1	1						1																																																					TrainProc											TrainingList1											target_left.png							1	1	1	d								75	150	
1 ver1_main_procedure	39	1	27	<?xml version="1.0"?>\n<Clock xmlns:dt="urn:schemas-microsoft-com:datatypes"><Description dt:dt="string">E-Prime Primary Realtime Clock</Description><StartTime><Timestamp dt:dt="int">0</Timestamp><DateUtc dt:dt="string">2015-08-21T15:26:51Z</DateUtc></StartTime><FrequencyChanges><FrequencyChange><Frequency dt:dt="r8">2612285</Frequency><Timestamp dt:dt="r8">17124860029</Timestamp><Current dt:dt="r8">0</Current><DateUtc dt:dt="string">2015-08-21T15:26:51Z</DateUtc></FrequencyChange></FrequencyChanges></Clock>\n	1 ver1_main_procedure-39-1	99.921	1.0.0.880	1	ad	-54491760	prawa	1	2.0.10.182	08-21-2015	2015-08-21 15:26:52	17:26:52	kobieta	2.0.10.92	2																														TrainingProc1		TrainingList	1	1	1						2																																																					TrainProc											TrainingList1											target_both.png							3	1	2	dl								75	450	
1 ver1_main_procedure	39	1	27	<?xml version="1.0"?>\n<Clock xmlns:dt="urn:schemas-microsoft-com:datatypes"><Description dt:dt="string">E-Prime Primary Realtime Clock</Description><StartTime><Timestamp dt:dt="int">0</Timestamp><DateUtc dt:dt="string">2015-08-21T15:26:51Z</DateUtc></StartTime><FrequencyChanges><FrequencyChange><Frequency dt:dt="r8">2612285</Frequency><Timestamp dt:dt="r8">17124860029</Timestamp><Current dt:dt="r8">0</Current><DateUtc dt:dt="string">2015-08-21T15:26:51Z</DateUtc></FrequencyChange></FrequencyChanges></Clock>\n	1 ver1_main_procedure-39-1	99.921	1.0.0.880	1	ad	-54491760	prawa	1	2.0.10.182	08-21-2015	2015-08-21 15:26:52	17:26:52	kobieta	2.0.10.92	2																														TrainingProc1		TrainingList	1	1	1						3																																																					TrainProc											TrainingList1											target_right.png							2	1	3	l								75	150	
1 ver1_main_procedure	39	1	27	<?xml version="1.0"?>\n<Clock xmlns:dt="urn:schemas-microsoft-com:datatypes"><Description dt:dt="string">E-Prime Primary Realtime Clock</Description><StartTime><Timestamp dt:dt="int">0</Timestamp><DateUtc dt:dt="string">2015-08-21T15:26:51Z</DateUtc></StartTime><FrequencyChanges><FrequencyChange><Frequency dt:dt="r8">2612285</Frequency><Timestamp dt:dt="r8">17124860029</Timestamp><Current dt:dt="r8">0</Current><DateUtc dt:dt="string">2015-08-21T15:26:51Z</DateUtc></FrequencyChange></FrequencyChanges></Clock>\n	1 ver1_main_procedure-39-1	99.921	1.0.0.880	1	ad	-54491760	prawa	1	2.0.10.182	08-21-2015	2015-08-21 15:26:52	17:26:52	kobieta	2.0.10.92	2																														TrainingProc1		TrainingList	1	1	1						4																																																					TrainProc											TrainingList1											target_left.png							1	1	4	d								25	300	
1 ver1_main_procedure	39	1	27	<?xml version="1.0"?>\n<Clock xmlns:dt="urn:schemas-microsoft-com:datatypes"><Description dt:dt="string">E-Prime Primary Realtime Clock</Description><StartTime><Timestamp dt:dt="int">0</Timestamp><DateUtc dt:dt="string">2015-08-21T15:26:51Z</DateUtc></StartTime><FrequencyChanges><FrequencyChange><Frequency dt:dt="r8">2612285</Frequency><Timestamp dt:dt="r8">17124860029</Timestamp><Current dt:dt="r8">0</Current><DateUtc dt:dt="string">2015-08-21T15:26:51Z</DateUtc></FrequencyChange></FrequencyChanges></Clock>\n	1 ver1_main_procedure-39-1	99.921	1.0.0.880	1	ad	-54491760	prawa	1	2.0.10.182	08-21-2015	2015-08-21 15:26:52	17:26:52	kobieta	2.0.10.92	2																														TrainingProc1		TrainingList	1	1	1						5																																																					TrainProc											TrainingList1											target_both.png							3	1	5	dl								75	300	
1 ver1_main_procedure	39	1	27	<?xml version="1.0"?>\n<Clock xmlns:dt="urn:schemas-microsoft-com:datatypes"><Description dt:dt="string">E-Prime Primary Realtime Clock</Description><StartTime><Timestamp dt:dt="int">0</Timestamp><DateUtc dt:dt="string">2015-08-21T15:26:51Z</DateUtc></StartTime><FrequencyChanges><FrequencyChange><Frequency dt:dt="r8">2612285</Frequency><Timestamp dt:dt="r8">17124860029</Timestamp><Current dt:dt="r8">0</Current><DateUtc dt:dt="string">2015-08-21T15:26:51Z</DateUtc></FrequencyChange></FrequencyChanges></Clock>\n	1 ver1_main_procedure-39-1	99.921	1.0.0.880	1	ad	-54491760	prawa	1	2.0.10.182	08-21-2015	2015-08-21 15:26:52	17:26:52	kobieta	2.0.10.92	2																														TrainingProc1		TrainingList	1	1	1						6																																																					TrainProc											TrainingList1											target_left.png							1	1	6	d								75	150	
1 ver1_main_procedure	39	1	27	<?xml version="1.0"?>\n<Clock xmlns:dt="urn:schemas-microsoft-com:datatypes"><Description dt:dt="string">E-Prime Primary Realtime Clock</Description><StartTime><Timestamp dt:dt="int">0</Timestamp><DateUtc dt:dt="string">2015-08-21T15:26:51Z</DateUtc></StartTime><FrequencyChanges><FrequencyChange><Frequency dt:dt="r8">2612285</Frequency><Timestamp dt:dt="r8">17124860029</Timestamp><Current dt:dt="r8">0</Current><DateUtc dt:dt="string">2015-08-21T15:26:51Z</DateUtc></FrequencyChange></FrequencyChanges></Clock>\n	1 ver1_main_procedure-39-1	99.921	1.0.0.880	1	ad	-54491760	prawa	1	2.0.10.182	08-21-2015	2015-08-21 15:26:52	17:26:52	kobieta	2.0.10.92	2																														TrainingProc1		TrainingList	1	1	1						7																																																					TrainProc											TrainingList1											target_right.png							2	1	7	l								75	450	
1 ver1_main_procedure	39	1	27	<?xml version="1.0"?>\n<Clock xmlns:dt="urn:schemas-microsoft-com:datatypes"><Description dt:dt="string">E-Prime Primary Realtime Clock</Description><StartTime><Timestamp dt:dt="int">0</Timestamp><DateUtc dt:dt="string">2015-08-21T15:26:51Z</DateUtc></StartTime><FrequencyChanges><FrequencyChange><Frequency dt:dt="r8">2612285</Frequency><Timestamp dt:dt="r8">17124860029</Timestamp><Current dt:dt="r8">0</Current><DateUtc dt:dt="string">2015-08-21T15:26:51Z</DateUtc></FrequencyChange></FrequencyChanges></Clock>\n	1 ver1_main_procedure-39-1	99.921	1.0.0.880	1	ad	-54491760	prawa	1	2.0.10.182	08-21-2015	2015-08-21 15:26:52	17:26:52	kobieta	2.0.10.92	2																														TrainingProc1		TrainingList	1	1	1						8																																																					TrainProc											TrainingList1											target_both.png							3	1	8	dl								25	150	
1 ver1_main_procedure	39	1	27	<?xml version="1.0"?>\n<Clock xmlns:dt="urn:schemas-microsoft-com:datatypes"><Description dt:dt="string">E-Prime Primary Realtime Clock</Description><StartTime><Timestamp dt:dt="int">0</Timestamp><DateUtc dt:dt="string">2015-08-21T15:26:51Z</DateUtc></StartTime><FrequencyChanges><FrequencyChange><Frequency dt:dt="r8">2612285</Frequency><Timestamp dt:dt="r8">17124860029</Timestamp><Current dt:dt="r8">0</Current><DateUtc dt:dt="string">2015-08-21T15:26:51Z</DateUtc></FrequencyChange></FrequencyChanges></Clock>\n	1 ver1_main_procedure-39-1	99.921	1.0.0.880	1	ad	-54491760	prawa	1	2.0.10.182	08-21-2015	2015-08-21 15:26:52	17:26:52	kobieta	2.0.10.92	2																														TrainingProc1		TrainingList	1	1	1						9																																																					TrainProc											TrainingList1											target_right.png							2	1	9	l								75	150	
1 ver1_main_procedure	39	1	27	<?xml version="1.0"?>\n<Clock xmlns:dt="urn:schemas-microsoft-com:datatypes"><Description dt:dt="string">E-Prime Primary Realtime Clock</Description><StartTime><Timestamp dt:dt="int">0</Timestamp><DateUtc dt:dt="string">2015-08-21T15:26:51Z</DateUtc></StartTime><FrequencyChanges><FrequencyChange><Frequency dt:dt="r8">2612285</Frequency><Timestamp dt:dt="r8">17124860029</Timestamp><Current dt:dt="r8">0</Current><DateUtc dt:dt="string">2015-08-21T15:26:51Z</DateUtc></FrequencyChange></FrequencyChanges></Clock>\n	1 ver1_main_procedure-39-1	99.921	1.0.0.880	1	ad	-54491760	prawa	1	2.0.10.182	08-21-2015	2015-08-21 15:26:52	17:26:52	kobieta	2.0.10.92	3	1	1	1																							d	{SPACE}		no	BlockProc1		BlockList									1	Free	dl	color_green.png		-1	8	63299	462																								75	prime_left.png	0	62599	0	0	13	0	62599	0	62599	1	62599	20	0	-1	61100	62599	62598	0		TrialProc1	right	0		0	20	62919	-62919		0	0	TrialList1	target_both.png	0	dl	-1	3	62649	270	l	640	63289												12	1	1				incomp			450
1 ver1_main_procedure	39	1	27	<?xml version="1.0"?>\n<Clock xmlns:dt="urn:schemas-microsoft-com:datatypes"><Description dt:dt="string">E-Prime Primary Realtime Clock</Description><StartTime><Timestamp dt:dt="int">0</Timestamp><DateUtc dt:dt="string">2015-08-21T15:26:51Z</DateUtc></StartTime><FrequencyChanges><FrequencyChange><Frequency dt:dt="r8">2612285</Frequency><Timestamp dt:dt="r8">17124860029</Timestamp><Current dt:dt="r8">0</Current><DateUtc dt:dt="string">2015-08-21T15:26:51Z</DateUtc></FrequencyChange></FrequencyChanges></Clock>\n	1 ver1_main_procedure-39-1	99.921	1.0.0.880	1	ad	-54491760	prawa	1	2.0.10.182	08-21-2015	2015-08-21 15:26:52	17:26:52	kobieta	2.0.10.92	3	1	1	1																							d	{SPACE}		no	BlockProc1		BlockList									2	Cued	l	color_orange.png		-1	15	66121	460																								75	prime_right.png	0	65571	0	0	13	0	65571	0	65571	1	65571	20	0	-1	64071	65571	65570	0		TrialProc1	right	0		0	10	65881	-65881		0	0	TrialList1	target_right.png	1	l	-1	3	65621	260	l	484	66105												4	1	2				comp			450
1 ver1_main_procedure	39	1	27	<?xml version="1.0"?>\n<Clock xmlns:dt="urn:schemas-microsoft-com:datatypes"><Description dt:dt="string">E-Prime Primary Realtime Clock</Description><StartTime><Timestamp dt:dt="int">0</Timestamp><DateUtc dt:dt="string">2015-08-21T15:26:51Z</DateUtc></StartTime><FrequencyChanges><FrequencyChange><Frequency dt:dt="r8">2612285</Frequency><Timestamp dt:dt="r8">17124860029</Timestamp><Current dt:dt="r8">0</Current><DateUtc dt:dt="string">2015-08-21T15:26:51Z</DateUtc></FrequencyChange></FrequencyChanges></Clock>\n	1 ver1_main_procedure-39-1	99.921	1.0.0.880	1	ad	-54491760	prawa	1	2.0.10.182	08-21-2015	2015-08-21 15:26:52	17:26:52	kobieta	2.0.10.92	3	1	1	1																							d	{SPACE}		no	BlockProc1		BlockList									3	Cued	d	color_red.png		-1	13	68943	460																			1					75	prime_left.png	0	68392	0	0	13	1	68393	1	68393	1	68392	20	0	-1	66893	68392	68391	0	prime_left.png	TrialProc1	left	0		0	11	68703	-68703		0	0	TrialList1	target_left.png	1	d	-1	3	68442	261	d	488	68930												2	1	3				neut			450
1 ver1_main_procedure	39	1	27	<?xml version="1.0"?>\n<Clock xmlns:dt="urn:schemas-microsoft-com:datatypes"><Description dt:dt="string">E-Prime Primary Realtime Clock</Description><StartTime><Timestamp dt:dt="int">0</Timestamp><DateUtc dt:dt="string">2015-08-21T15:26:51Z</DateUtc></StartTime><FrequencyChanges><FrequencyChange><Frequency dt:dt="r8">2612285</Frequency><Timestamp dt:dt="r8">17124860029</Timestamp><Current dt:dt="r8">0</Current><DateUtc dt:dt="string">2015-08-21T15:26:51Z</DateUtc></FrequencyChange></FrequencyChanges></Clock>\n	1 ver1_main_procedure-39-1	99.921	1.0.0.880	1	ad	-54491760	prawa	1	2.0.10.182	08-21-2015	2015-08-21 15:26:52	17:26:52	kobieta	2.0.10.92	3	1	1	1																							d	{SPACE}		no	BlockProc1		BlockList									4	Cued	l	color_green.png		-1	6	71744	461																								25	prime_left.png	0	71214	0	0	13	0	71214	0	71214	1	71214	20	0	-1	69715	71214	71213	0		TrialProc1	right	0		0	10	71524	-71524		0	0	TrialList1	target_right.png	1	l	-1	3	71264	260	l	474	71738												6	1	4				incomp			450
1 ver1_main_procedure	39	1	27	<?xml version="1.0"?>\n<Clock xmlns:dt="urn:schemas-microsoft-com:datatypes"><Description dt:dt="string">E-Prime Primary Realtime Clock</Description><StartTime><Timestamp dt:dt="int">0</Timestamp><DateUtc dt:dt="string">2015-08-21T15:26:51Z</DateUtc></StartTime><FrequencyChanges><FrequencyChange><Frequency dt:dt="r8">2612285</Frequency><Timestamp dt:dt="r8">17124860029</Timestamp><Current dt:dt="r8">0</Current><DateUtc dt:dt="string">2015-08-21T15:26:51Z</DateUtc></FrequencyChange></FrequencyChanges></Clock>\n	1 ver1_main_procedure-39-1	99.921	1.0.0.880	1	ad	-54491760	prawa	1	2.0.10.182	08-21-2015	2015-08-21 15:26:52	17:26:52	kobieta	2.0.10.92	3	1	1	1																							d	{SPACE}		no	BlockProc1		BlockList									5	Free	dl	color_red.png		-1	6	74576	460																			2					25	prime_right.png	0	74016	0	0	13	0	74016	0	74016	1	74016	20	0	-1	72516	74016	74015	0	prime_right.png	TrialProc1	left	0		0	10	74326	-74326		0	0	TrialList1	target_both.png	0	dl	-1	3	74066	260	d	504	74570												8	1	5				neut			450
1 ver1_main_procedure	39	1	27	<?xml version="1.0"?>\n<Clock xmlns:dt="urn:schemas-microsoft-com:datatypes"><Description dt:dt="string">E-Prime Primary Realtime Clock</Description><StartTime><Timestamp dt:dt="int">0</Timestamp><DateUtc dt:dt="string">2015-08-21T15:26:51Z</DateUtc></StartTime><FrequencyChanges><FrequencyChange><Frequency dt:dt="r8">2612285</Frequency><Timestamp dt:dt="r8">17124860029</Timestamp><Current dt:dt="r8">0</Current><DateUtc dt:dt="string">2015-08-21T15:26:51Z</DateUtc></FrequencyChange></FrequencyChanges></Clock>\n	1 ver1_main_procedure-39-1	99.921	1.0.0.880	1	ad	-54491760	prawa	1	2.0.10.182	08-21-2015	2015-08-21 15:26:52	17:26:52	kobieta	2.0.10.92	3	1	1	1																							d	{SPACE}		no	BlockProc1		BlockList									6	Free	dl	color_yellow.png		-1	12	77638	160																								25	prime_left.png	1	76848	0	0	13	1	76848	1	76848	0	76847	20	0	-1	75348	76847	76847	0		TrialProc1	left	0		0	10	77158	-77158		0	0	TrialList1	target_both.png	0	dl	-1	4	76898	260	d	728	77626												7	1	6				comp			150
1 ver1_main_procedure	39	1	27	<?xml version="1.0"?>\n<Clock xmlns:dt="urn:schemas-microsoft-com:datatypes"><Description dt:dt="string">E-Prime Primary Realtime Clock</Description><StartTime><Timestamp dt:dt="int">0</Timestamp><DateUtc dt:dt="string">2015-08-21T15:26:51Z</DateUtc></StartTime><FrequencyChanges><FrequencyChange><Frequency dt:dt="r8">2612285</Frequency><Timestamp dt:dt="r8">17124860029</Timestamp><Current dt:dt="r8">0</Current><DateUtc dt:dt="string">2015-08-21T15:26:51Z</DateUtc></FrequencyChange></FrequencyChanges></Clock>\n	1 ver1_main_procedure-39-1	99.921	1.0.0.880	1	ad	-54491760	prawa	1	2.0.10.182	08-21-2015	2015-08-21 15:26:52	17:26:52	kobieta	2.0.10.92	3	1	1	1																							d	{SPACE}		no	BlockProc1		BlockList									7	Cued	d	color_blue.png		-1	7	80129	161																								75	prime_right.png	0	79609	0	0	13	0	79609	0	79609	1	79609	20	0	-1	78110	79609	79608	0		TrialProc1	left	0		0	10	79919	-79919		0	0	TrialList1	target_left.png	1	d	-1	3	79659	260	d	463	80122												3	1	7				incomp			150
1 ver1_main_procedure	39	1	27	<?xml version="1.0"?>\n<Clock xmlns:dt="urn:schemas-microsoft-com:datatypes"><Description dt:dt="string">E-Prime Primary Realtime Clock</Description><StartTime><Timestamp dt:dt="int">0</Timestamp><DateUtc dt:dt="string">2015-08-21T15:26:51Z</DateUtc></StartTime><FrequencyChanges><FrequencyChange><Frequency dt:dt="r8">2612285</Frequency><Timestamp dt:dt="r8">17124860029</Timestamp><Current dt:dt="r8">0</Current><DateUtc dt:dt="string">2015-08-21T15:26:51Z</DateUtc></FrequencyChange></FrequencyChanges></Clock>\n	1 ver1_main_procedure-39-1	99.921	1.0.0.880	1	ad	-54491760	prawa	1	2.0.10.182	08-21-2015	2015-08-21 15:26:52	17:26:52	kobieta	2.0.10.92	3	1	1	1																							d	{SPACE}		no	BlockProc1		BlockList									8	Free	dl	color_purple.png		-1	14	83041	310																			1					75	prime_left.png	0	82101	0	0	13	0	82101	0	82101	1	82101	20	0	-1	80601	82101	82100	0	prime_left.png	TrialProc1	left	0		0	10	82411	-82411		0	0	TrialList1	target_both.png	0	dl	-1	3	82151	260	l	875	83026												8	1	8				neut			300
1 ver1_main_procedure	39	1	27	<?xml version="1.0"?>\n<Clock xmlns:dt="urn:schemas-microsoft-com:datatypes"><Description dt:dt="string">E-Prime Primary Realtime Clock</Description><StartTime><Timestamp dt:dt="int">0</Timestamp><DateUtc dt:dt="string">2015-08-21T15:26:51Z</DateUtc></StartTime><FrequencyChanges><FrequencyChange><Frequency dt:dt="r8">2612285</Frequency><Timestamp dt:dt="r8">17124860029</Timestamp><Current dt:dt="r8">0</Current><DateUtc dt:dt="string">2015-08-21T15:26:51Z</DateUtc></FrequencyChange></FrequencyChanges></Clock>\n	1 ver1_main_procedure-39-1	99.921	1.0.0.880	1	ad	-54491760	prawa	1	2.0.10.182	08-21-2015	2015-08-21 15:26:52	17:26:52	kobieta	2.0.10.92	3	1	1	1																							d	{SPACE}		no	BlockProc1		BlockList									9	Cued	l	color_purple.png		-1	10	85773	460																			2					25	prime_right.png	1	85163	0	0	13	1	85163	1	85163	0	85162	20	0	-1	83663	85162	85162	0	prime_right.png	TrialProc1	right	0		0	11	85473	-85473		0	0	TrialList1	target_right.png	1	l	-1	3	85212	261	l	550	85762												5	1	9				neut			450
1 ver1_main_procedure	39	1	27	<?xml version="1.0"?>\n<Clock xmlns:dt="urn:schemas-microsoft-com:datatypes"><Description dt:dt="string">E-Prime Primary Realtime Clock</Description><StartTime><Timestamp dt:dt="int">0</Timestamp><DateUtc dt:dt="string">2015-08-21T15:26:51Z</DateUtc></StartTime><FrequencyChanges><FrequencyChange><Frequency dt:dt="r8">2612285</Frequency><Timestamp dt:dt="r8">17124860029</Timestamp><Current dt:dt="r8">0</Current><DateUtc dt:dt="string">2015-08-21T15:26:51Z</DateUtc></FrequencyChange></FrequencyChanges></Clock>\n	1 ver1_main_procedure-39-1	99.921	1.0.0.880	1	ad	-54491760	prawa	1	2.0.10.182	08-21-2015	2015-08-21 15:26:52	17:26:52	kobieta	2.0.10.92	3	1	1	1																							d	{SPACE}		no	BlockProc1		BlockList									10	Cued	l	color_green.png		-1	8	88715	460																								75	prime_left.png	0	88044	0	0	13	0	88044	0	88044	1	88044	20	0	-1	86545	88044	88043	0		TrialProc1	right	0		1	10	88354	-88354		0	0	TrialList1	target_right.png	1	l	-1	3	88094	260	l	612	88706												6	1	10				incomp			450
1 ver1_main_procedure	39	1	27	<?xml version="1.0"?>\n<Clock xmlns:dt="urn:schemas-microsoft-com:datatypes"><Description dt:dt="string">E-Prime Primary Realtime Clock</Description><StartTime><Timestamp dt:dt="int">0</Timestamp><DateUtc dt:dt="string">2015-08-21T15:26:51Z</DateUtc></StartTime><FrequencyChanges><FrequencyChange><Frequency dt:dt="r8">2612285</Frequency><Timestamp dt:dt="r8">17124860029</Timestamp><Current dt:dt="r8">0</Current><DateUtc dt:dt="string">2015-08-21T15:26:51Z</DateUtc></FrequencyChange></FrequencyChanges></Clock>\n	1 ver1_main_procedure-39-1	99.921	1.0.0.880	1	ad	-54491760	prawa	1	2.0.10.182	08-21-2015	2015-08-21 15:26:52	17:26:52	kobieta	2.0.10.92	3	1	1	1																							d	{SPACE}		no	BlockProc1		BlockList									11	Cued	d	color_red.png		-1	11	91566	311																			1					25	prime_left.png	0	90986	0	0	13	0	90986	0	90986	1	90986	20	0	-1	89487	90986	90985	0	prime_left.png	TrialProc1	left	0		0	10	91296	-91296		0	0	TrialList1	target_left.png	1	d	-1	3	91036	260	d	518	91554												2	1	11				neut			300
1 ver1_main_procedure	39	1	27	<?xml version="1.0"?>\n<Clock xmlns:dt="urn:schemas-microsoft-com:datatypes"><Description dt:dt="string">E-Prime Primary Realtime Clock</Description><StartTime><Timestamp dt:dt="int">0</Timestamp><DateUtc dt:dt="string">2015-08-21T15:26:51Z</DateUtc></StartTime><FrequencyChanges><FrequencyChange><Frequency dt:dt="r8">2612285</Frequency><Timestamp dt:dt="r8">17124860029</Timestamp><Current dt:dt="r8">0</Current><DateUtc dt:dt="string">2015-08-21T15:26:51Z</DateUtc></FrequencyChange></FrequencyChanges></Clock>\n	1 ver1_main_procedure-39-1	99.921	1.0.0.880	1	ad	-54491760	prawa	1	2.0.10.182	08-21-2015	2015-08-21 15:26:52	17:26:52	kobieta	2.0.10.92	3	1	1	1																							d	{SPACE}		no	BlockProc1		BlockList									12	Cued	d	color_yellow.png		-1	5	94168	460																								75	prime_left.png	0	93688	0	0	13	0	93688	0	93688	1	93688	20	0	-1	92188	93688	93687	0		TrialProc1	left	0		0	10	93998	-93998		0	0	TrialList1	target_left.png	1	d	-1	3	93738	260	d	424	94162												1	1	12				comp			450
1 ver1_main_procedure	39	1	27	<?xml version="1.0"?>\n<Clock xmlns:dt="urn:schemas-microsoft-com:datatypes"><Description dt:dt="string">E-Prime Primary Realtime Clock</Description><StartTime><Timestamp dt:dt="int">0</Timestamp><DateUtc dt:dt="string">2015-08-21T15:26:51Z</DateUtc></StartTime><FrequencyChanges><FrequencyChange><Frequency dt:dt="r8">2612285</Frequency><Timestamp dt:dt="r8">17124860029</Timestamp><Current dt:dt="r8">0</Current><DateUtc dt:dt="string">2015-08-21T15:26:51Z</DateUtc></FrequencyChange></FrequencyChanges></Clock>\n	1 ver1_main_procedure-39-1	99.921	1.0.0.880	1	ad	-54491760	prawa	1	2.0.10.182	08-21-2015	2015-08-21 15:26:52	17:26:52	kobieta	2.0.10.92	3	1	1	1																							d	{SPACE}		no	BlockProc1		BlockList									13	Cued	l	color_green.png		-1	7	96890	310																								25	prime_left.png	0	96439	0	0	13	0	96439	0	96439	1	96439	20	0	-1	94940	96439	96438	0		TrialProc1	right	0		0	11	96750	-96750		0	0	TrialList1	target_right.png	1	l	-1	3	96489	261	l	393	96882												6	1	13				incomp			300
1 ver1_main_procedure	39	1	27	<?xml version="1.0"?>\n<Clock xmlns:dt="urn:schemas-microsoft-com:datatypes"><Description dt:dt="string">E-Prime Primary Realtime Clock</Description><StartTime><Timestamp dt:dt="int">0</Timestamp><DateUtc dt:dt="string">2015-08-21T15:26:51Z</DateUtc></StartTime><FrequencyChanges><FrequencyChange><Frequency dt:dt="r8">2612285</Frequency><Timestamp dt:dt="r8">17124860029</Timestamp><Current dt:dt="r8">0</Current><DateUtc dt:dt="string">2015-08-21T15:26:51Z</DateUtc></FrequencyChange></FrequencyChanges></Clock>\n	1 ver1_main_procedure-39-1	99.921	1.0.0.880	1	ad	-54491760	prawa	1	2.0.10.182	08-21-2015	2015-08-21 15:26:52	17:26:52	kobieta	2.0.10.92	3	1	1	1																							d	{SPACE}		no	BlockProc1		BlockList									14	Free	dl	color_yellow.png		-1	8	99611	460																								25	prime_left.png	0	99011	0	0	13	0	99011	0	99011	1	99011	20	0	-1	97512	99011	99010	0		TrialProc1	left	0		0	10	99321	-99321		0	0	TrialList1	target_both.png	0	dl	-1	3	99061	260	d	541	99602												7	1	14				comp			450
1 ver1_main_procedure	39	1	27	<?xml version="1.0"?>\n<Clock xmlns:dt="urn:schemas-microsoft-com:datatypes"><Description dt:dt="string">E-Prime Primary Realtime Clock</Description><StartTime><Timestamp dt:dt="int">0</Timestamp><DateUtc dt:dt="string">2015-08-21T15:26:51Z</DateUtc></StartTime><FrequencyChanges><FrequencyChange><Frequency dt:dt="r8">2612285</Frequency><Timestamp dt:dt="r8">17124860029</Timestamp><Current dt:dt="r8">0</Current><DateUtc dt:dt="string">2015-08-21T15:26:51Z</DateUtc></FrequencyChange></FrequencyChanges></Clock>\n	1 ver1_main_procedure-39-1	99.921	1.0.0.880	1	ad	-54491760	prawa	1	2.0.10.182	08-21-2015	2015-08-21 15:26:52	17:26:52	kobieta	2.0.10.92	3	1	1	1																							d	{SPACE}		no	BlockProc1		BlockList									15	Cued	d	color_yellow.png		-1	10	102533	310																								25	prime_left.png	0	101883	0	0	13	0	101883	0	101883	1	101883	20	0	-1	100383	101883	101882	0		TrialProc1	left	0		0	10	102193	-102193		0	0	TrialList1	target_left.png	1	d	-1	3	101933	260	d	589	102522												1	1	15				comp			300
1 ver1_main_procedure	39	1	27	<?xml version="1.0"?>\n<Clock xmlns:dt="urn:schemas-microsoft-com:datatypes"><Description dt:dt="string">E-Prime Primary Realtime Clock</Description><StartTime><Timestamp dt:dt="int">0</Timestamp><DateUtc dt:dt="string">2015-08-21T15:26:51Z</DateUtc></StartTime><FrequencyChanges><FrequencyChange><Frequency dt:dt="r8">2612285</Frequency><Timestamp dt:dt="r8">17124860029</Timestamp><Current dt:dt="r8">0</Current><DateUtc dt:dt="string">2015-08-21T15:26:51Z</DateUtc></FrequencyChange></FrequencyChanges></Clock>\n	1 ver1_main_procedure-39-1	99.921	1.0.0.880	1	ad	-54491760	prawa	1	2.0.10.182	08-21-2015	2015-08-21 15:26:52	17:26:52	kobieta	2.0.10.92	3	1	1	1																							d	{SPACE}		no	BlockProc1		BlockList									16	Cued	d	color_blue.png		-1	12	105255	160																								25	prime_right.png	0	104654	0	0	13	0	104654	0	104654	1	104654	20	0	-1	103155	104654	104653	0		TrialProc1	left	0		1	10	104964	-104964		0	0	TrialList1	target_left.png	1	d	-1	3	104704	260	d	539	105243												3	1	16				incomp			150
1 ver1_main_procedure	39	1	27	<?xml version="1.0"?>\n<Clock xmlns:dt="urn:schemas-microsoft-com:datatypes"><Description dt:dt="string">E-Prime Primary Realtime Clock</Description><StartTime><Timestamp dt:dt="int">0</Timestamp><DateUtc dt:dt="string">2015-08-21T15:26:51Z</DateUtc></StartTime><FrequencyChanges><FrequencyChange><Frequency dt:dt="r8">2612285</Frequency><Timestamp dt:dt="r8">17124860029</Timestamp><Current dt:dt="r8">0</Current><DateUtc dt:dt="string">2015-08-21T15:26:51Z</DateUtc></FrequencyChange></FrequencyChanges></Clock>\n	1 ver1_main_procedure-39-1	99.921	1.0.0.880	1	ad	-54491760	prawa	1	2.0.10.182	08-21-2015	2015-08-21 15:26:52	17:26:52	kobieta	2.0.10.92	3	1	1	1																							d	{SPACE}		no	BlockProc1		BlockList									17	Free	dl	color_purple.png		-1	5	108056	160																			2					25	prime_right.png	0	107226	0	0	13	0	107226	0	107226	1	107226	20	0	-1	105727	107226	107225	0	prime_right.png	TrialProc1	right	0		0	10	107536	-107536		0	0	TrialList1	target_both.png	0	dl	-1	3	107276	260	l	775	108051												11	1	17				neut			150
1 ver1_main_procedure	39	1	27	<?xml version="1.0"?>\n<Clock xmlns:dt="urn:schemas-microsoft-com:datatypes"><Description dt:dt="string">E-Prime Primary Realtime Clock</Description><StartTime><Timestamp dt:dt="int">0</Timestamp><DateUtc dt:dt="string">2015-08-21T15:26:51Z</DateUtc></StartTime><FrequencyChanges><FrequencyChange><Frequency dt:dt="r8">2612285</Frequency><Timestamp dt:dt="r8">17124860029</Timestamp><Current dt:dt="r8">0</Current><DateUtc dt:dt="string">2015-08-21T15:26:51Z</DateUtc></FrequencyChange></FrequencyChanges></Clock>\n	1 ver1_main_procedure-39-1	99.921	1.0.0.880	1	ad	-54491760	prawa	1	2.0.10.182	08-21-2015	2015-08-21 15:26:52	17:26:52	kobieta	2.0.10.92	3	1	1	1																							d	{SPACE}		no	BlockProc1		BlockList									18	Cued	d	color_blue.png		-1	13	110528	310																								75	prime_right.png	1	110028	0	0	13	1	110028	1	110028	0	110027	20	0	-1	108528	110027	110027	0		TrialProc1	left	0		0	11	110338	-110338		0	0	TrialList1	target_left.png	1	d	-1	3	110077	261	d	438	110515												3	1	18				incomp			300
1 ver1_main_procedure	39	1	27	<?xml version="1.0"?>\n<Clock xmlns:dt="urn:schemas-microsoft-com:datatypes"><Description dt:dt="string">E-Prime Primary Realtime Clock</Description><StartTime><Timestamp dt:dt="int">0</Timestamp><DateUtc dt:dt="string">2015-08-21T15:26:51Z</DateUtc></StartTime><FrequencyChanges><FrequencyChange><Frequency dt:dt="r8">2612285</Frequency><Timestamp dt:dt="r8">17124860029</Timestamp><Current dt:dt="r8">0</Current><DateUtc dt:dt="string">2015-08-21T15:26:51Z</DateUtc></FrequencyChange></FrequencyChanges></Clock>\n	1 ver1_main_procedure-39-1	99.921	1.0.0.880	1	ad	-54491760	prawa	1	2.0.10.182	08-21-2015	2015-08-21 15:26:52	17:26:52	kobieta	2.0.10.92	3	1	1	1																							d	{SPACE}		no	BlockProc1		BlockList									19	Cued	l	color_orange.png		-1	14	113169	160																								25	prime_right.png	0	112649	0	0	13	0	112649	0	112649	1	112649	20	0	-1	111150	112649	112648	0		TrialProc1	right	0		1	10	112959	-112959		0	0	TrialList1	target_right.png	1	l	-1	3	112699	260	l	456	113155												4	1	19				comp			150
1 ver1_main_procedure	39	1	27	<?xml version="1.0"?>\n<Clock xmlns:dt="urn:schemas-microsoft-com:datatypes"><Description dt:dt="string">E-Prime Primary Realtime Clock</Description><StartTime><Timestamp dt:dt="int">0</Timestamp><DateUtc dt:dt="string">2015-08-21T15:26:51Z</DateUtc></StartTime><FrequencyChanges><FrequencyChange><Frequency dt:dt="r8">2612285</Frequency><Timestamp dt:dt="r8">17124860029</Timestamp><Current dt:dt="r8">0</Current><DateUtc dt:dt="string">2015-08-21T15:26:51Z</DateUtc></FrequencyChange></FrequencyChanges></Clock>\n	1 ver1_main_procedure-39-1	99.921	1.0.0.880	1	ad	-54491760	prawa	1	2.0.10.182	08-21-2015	2015-08-21 15:26:52	17:26:52	kobieta	2.0.10.92	3	1	1	1																							d	{SPACE}		no	BlockProc1		BlockList									20	Cued	d	color_blue.png		-1	12	115631	160																								75	prime_right.png	0	115141	0	0	13	0	115141	0	115141	1	115141	20	0	-1	113641	115141	115140	0		TrialProc1	left	0		0	10	115451	-115451		0	0	TrialList1	target_left.png	1	d	-1	3	115191	260	d	428	115619												3	1	20				incomp			150
1 ver1_main_procedure	39	1	27	<?xml version="1.0"?>\n<Clock xmlns:dt="urn:schemas-microsoft-com:datatypes"><Description dt:dt="string">E-Prime Primary Realtime Clock</Description><StartTime><Timestamp dt:dt="int">0</Timestamp><DateUtc dt:dt="string">2015-08-21T15:26:51Z</DateUtc></StartTime><FrequencyChanges><FrequencyChange><Frequency dt:dt="r8">2612285</Frequency><Timestamp dt:dt="r8">17124860029</Timestamp><Current dt:dt="r8">0</Current><DateUtc dt:dt="string">2015-08-21T15:26:51Z</DateUtc></FrequencyChange></FrequencyChanges></Clock>\n	1 ver1_main_procedure-39-1	99.921	1.0.0.880	1	ad	-54491760	prawa	1	2.0.10.182	08-21-2015	2015-08-21 15:26:52	17:26:52	kobieta	2.0.10.92	3	1	1	1																							d	{SPACE}		no	BlockProc1		BlockList									21	Free	dl	color_blue.png		-1	11	118463	160																								25	prime_right.png	0	117602	0	0	13	0	117602	0	117602	1	117602	20	0	-1	116103	117602	117601	0		TrialProc1	left	0		0	10	117912	-117912		0	0	TrialList1	target_both.png	0	dl	-1	3	117652	260	d	799	118451												9	1	21				incomp			150
1 ver1_main_procedure	39	1	27	<?xml version="1.0"?>\n<Clock xmlns:dt="urn:schemas-microsoft-com:datatypes"><Description dt:dt="string">E-Prime Primary Realtime Clock</Description><StartTime><Timestamp dt:dt="int">0</Timestamp><DateUtc dt:dt="string">2015-08-21T15:26:51Z</DateUtc></StartTime><FrequencyChanges><FrequencyChange><Frequency dt:dt="r8">2612285</Frequency><Timestamp dt:dt="r8">17124860029</Timestamp><Current dt:dt="r8">0</Current><DateUtc dt:dt="string">2015-08-21T15:26:51Z</DateUtc></FrequencyChange></FrequencyChanges></Clock>\n	1 ver1_main_procedure-39-1	99.921	1.0.0.880	1	ad	-54491760	prawa	1	2.0.10.182	08-21-2015	2015-08-21 15:26:52	17:26:52	kobieta	2.0.10.92	3	1	1	1																							d	{SPACE}		no	BlockProc1		BlockList									22	Free	dl	color_orange.png		-1	10	120974	460																								25	prime_right.png	0	120434	0	0	13	0	120434	0	120434	1	120434	20	0	-1	118935	120434	120433	0		TrialProc1	left	0		0	10	120744	-120744		0	0	TrialList1	target_both.png	0	dl	-1	3	120484	260	l	479	120963												9	1	22				incomp			450
1 ver1_main_procedure	39	1	27	<?xml version="1.0"?>\n<Clock xmlns:dt="urn:schemas-microsoft-com:datatypes"><Description dt:dt="string">E-Prime Primary Realtime Clock</Description><StartTime><Timestamp dt:dt="int">0</Timestamp><DateUtc dt:dt="string">2015-08-21T15:26:51Z</DateUtc></StartTime><FrequencyChanges><FrequencyChange><Frequency dt:dt="r8">2612285</Frequency><Timestamp dt:dt="r8">17124860029</Timestamp><Current dt:dt="r8">0</Current><DateUtc dt:dt="string">2015-08-21T15:26:51Z</DateUtc></FrequencyChange></FrequencyChanges></Clock>\n	1 ver1_main_procedure-39-1	99.921	1.0.0.880	1	ad	-54491760	prawa	1	2.0.10.182	08-21-2015	2015-08-21 15:26:52	17:26:52	kobieta	2.0.10.92	3	1	1	1																							d	{SPACE}		no	BlockProc1		BlockList									23	Cued	d	color_yellow.png		-1	10	123766	310																								75	prime_left.png	0	123245	0	0	13	1	123246	1	123246	1	123245	20	0	-1	121746	123245	123244	0		TrialProc1	left	0		0	11	123556	-123556		0	0	TrialList1	target_left.png	1	d	-1	3	123295	261	d	460	123755												1	1	23				comp			300
1 ver1_main_procedure	39	1	27	<?xml version="1.0"?>\n<Clock xmlns:dt="urn:schemas-microsoft-com:datatypes"><Description dt:dt="string">E-Prime Primary Realtime Clock</Description><StartTime><Timestamp dt:dt="int">0</Timestamp><DateUtc dt:dt="string">2015-08-21T15:26:51Z</DateUtc></StartTime><FrequencyChanges><FrequencyChange><Frequency dt:dt="r8">2612285</Frequency><Timestamp dt:dt="r8">17124860029</Timestamp><Current dt:dt="r8">0</Current><DateUtc dt:dt="string">2015-08-21T15:26:51Z</DateUtc></FrequencyChange></FrequencyChanges></Clock>\n	1 ver1_main_procedure-39-1	99.921	1.0.0.880	1	ad	-54491760	prawa	1	2.0.10.182	08-21-2015	2015-08-21 15:26:52	17:26:52	kobieta	2.0.10.92	3	1	1	1																							d	{SPACE}		no	BlockProc1		BlockList									24	Cued	l	color_purple.png		-1	7	126427	160																			1					25	prime_left.png	0	125887	0	0	13	0	125887	0	125887	1	125887	20	0	-1	124388	125887	125886	0	prime_left.png	TrialProc1	right	0		0	10	126197	-126197		0	0	TrialList1	target_right.png	1	l	-1	3	125937	260	l	482	126419												5	1	24				neut			150
1 ver1_main_procedure	39	1	27	<?xml version="1.0"?>\n<Clock xmlns:dt="urn:schemas-microsoft-com:datatypes"><Description dt:dt="string">E-Prime Primary Realtime Clock</Description><StartTime><Timestamp dt:dt="int">0</Timestamp><DateUtc dt:dt="string">2015-08-21T15:26:51Z</DateUtc></StartTime><FrequencyChanges><FrequencyChange><Frequency dt:dt="r8">2612285</Frequency><Timestamp dt:dt="r8">17124860029</Timestamp><Current dt:dt="r8">0</Current><DateUtc dt:dt="string">2015-08-21T15:26:51Z</DateUtc></FrequencyChange></FrequencyChanges></Clock>\n	1 ver1_main_procedure-39-1	99.921	1.0.0.880	1	ad	-54491760	prawa	1	2.0.10.182	08-21-2015	2015-08-21 15:26:52	17:26:52	kobieta	2.0.10.92	3	1	1	1																							d	{SPACE}		no	BlockProc1		BlockList									25	Free	dl	color_green.png		-1	13	129209	160																								25	prime_left.png	0	128399	0	0	13	0	128399	0	128399	1	128399	20	0	-1	126899	128399	128398	0		TrialProc1	left	0		0	10	128709	-128709		0	0	TrialList1	target_both.png	0	dl	-1	3	128449	260	l	746	129195												7	1	25				comp			150
1 ver1_main_procedure	39	1	27	<?xml version="1.0"?>\n<Clock xmlns:dt="urn:schemas-microsoft-com:datatypes"><Description dt:dt="string">E-Prime Primary Realtime Clock</Description><StartTime><Timestamp dt:dt="int">0</Timestamp><DateUtc dt:dt="string">2015-08-21T15:26:51Z</DateUtc></StartTime><FrequencyChanges><FrequencyChange><Frequency dt:dt="r8">2612285</Frequency><Timestamp dt:dt="r8">17124860029</Timestamp><Current dt:dt="r8">0</Current><DateUtc dt:dt="string">2015-08-21T15:26:51Z</DateUtc></FrequencyChange></FrequencyChanges></Clock>\n	1 ver1_main_procedure-39-1	99.921	1.0.0.880	1	ad	-54491760	prawa	1	2.0.10.182	08-21-2015	2015-08-21 15:26:52	17:26:52	kobieta	2.0.10.92	3	1	1	1																							d	{SPACE}		no	BlockProc1		BlockList									26	Cued	l	color_orange.png		-1	13	132081	160																								75	prime_right.png	0	131180	0	0	13	0	131180	0	131180	1	131180	20	0	-1	129681	131180	131179	0		TrialProc1	right	0		1	10	131490	-131490		0	0	TrialList1	target_right.png	1	l	-1	3	131230	260	l	837	132067												4	1	26				comp			150
1 ver1_main_procedure	39	1	27	<?xml version="1.0"?>\n<Clock xmlns:dt="urn:schemas-microsoft-com:datatypes"><Description dt:dt="string">E-Prime Primary Realtime Clock</Description><StartTime><Timestamp dt:dt="int">0</Timestamp><DateUtc dt:dt="string">2015-08-21T15:26:51Z</DateUtc></StartTime><FrequencyChanges><FrequencyChange><Frequency dt:dt="r8">2612285</Frequency><Timestamp dt:dt="r8">17124860029</Timestamp><Current dt:dt="r8">0</Current><DateUtc dt:dt="string">2015-08-21T15:26:51Z</DateUtc></FrequencyChange></FrequencyChanges></Clock>\n	1 ver1_main_procedure-39-1	99.921	1.0.0.880	1	ad	-54491760	prawa	1	2.0.10.182	08-21-2015	2015-08-21 15:26:52	17:26:52	kobieta	2.0.10.92	3	1	1	1																							d	{SPACE}		no	BlockProc1		BlockList									27	Cued	d	color_red.png		-1	6	134522	460																			2					75	prime_right.png	0	134052	0	0	13	0	134052	0	134052	1	134052	20	0	-1	132553	134052	134051	0	prime_right.png	TrialProc1	left	0		0	10	134362	-134362		0	0	TrialList1	target_left.png	1	d	-1	3	134102	260	d	413	134515												2	1	27				neut			450
1 ver1_main_procedure	39	1	27	<?xml version="1.0"?>\n<Clock xmlns:dt="urn:schemas-microsoft-com:datatypes"><Description dt:dt="string">E-Prime Primary Realtime Clock</Description><StartTime><Timestamp dt:dt="int">0</Timestamp><DateUtc dt:dt="string">2015-08-21T15:26:51Z</DateUtc></StartTime><FrequencyChanges><FrequencyChange><Frequency dt:dt="r8">2612285</Frequency><Timestamp dt:dt="r8">17124860029</Timestamp><Current dt:dt="r8">0</Current><DateUtc dt:dt="string">2015-08-21T15:26:51Z</DateUtc></FrequencyChange></FrequencyChanges></Clock>\n	1 ver1_main_procedure-39-1	99.921	1.0.0.880	1	ad	-54491760	prawa	1	2.0.10.182	08-21-2015	2015-08-21 15:26:52	17:26:52	kobieta	2.0.10.92	3	1	1	1																							d	{SPACE}		no	BlockProc1		BlockList									28	Cued	d	color_red.png		-1	10	137374	160																			1					75	prime_left.png	0	136794	0	0	13	0	136794	0	136794	1	136794	20	0	-1	135294	136794	136793	0	prime_left.png	TrialProc1	left	0		0	10	137104	-137104		0	0	TrialList1	target_left.png	1	d	-1	3	136844	260	d	519	137363												2	1	28				neut			150
1 ver1_main_procedure	39	1	27	<?xml version="1.0"?>\n<Clock xmlns:dt="urn:schemas-microsoft-com:datatypes"><Description dt:dt="string">E-Prime Primary Realtime Clock</Description><StartTime><Timestamp dt:dt="int">0</Timestamp><DateUtc dt:dt="string">2015-08-21T15:26:51Z</DateUtc></StartTime><FrequencyChanges><FrequencyChange><Frequency dt:dt="r8">2612285</Frequency><Timestamp dt:dt="r8">17124860029</Timestamp><Current dt:dt="r8">0</Current><DateUtc dt:dt="string">2015-08-21T15:26:51Z</DateUtc></FrequencyChange></FrequencyChanges></Clock>\n	1 ver1_main_procedure-39-1	99.921	1.0.0.880	1	ad	-54491760	prawa	1	2.0.10.182	08-21-2015	2015-08-21 15:26:52	17:26:52	kobieta	2.0.10.92	3	1	1	1																							d	{SPACE}		no	BlockProc1		BlockList									29	Cued	d	color_red.png		-1	5	139905	311																			2					25	prime_right.png	0	139345	0	0	13	0	139345	0	139345	1	139345	20	0	-1	137846	139345	139344	0	prime_right.png	TrialProc1	left	0		1	10	139655	-139655		0	0	TrialList1	target_left.png	1	d	-1	3	139395	260	d	505	139900												2	1	29				neut			300
1 ver1_main_procedure	39	1	27	<?xml version="1.0"?>\n<Clock xmlns:dt="urn:schemas-microsoft-com:datatypes"><Description dt:dt="string">E-Prime Primary Realtime Clock</Description><StartTime><Timestamp dt:dt="int">0</Timestamp><DateUtc dt:dt="string">2015-08-21T15:26:51Z</DateUtc></StartTime><FrequencyChanges><FrequencyChange><Frequency dt:dt="r8">2612285</Frequency><Timestamp dt:dt="r8">17124860029</Timestamp><Current dt:dt="r8">0</Current><DateUtc dt:dt="string">2015-08-21T15:26:51Z</DateUtc></FrequencyChange></FrequencyChanges></Clock>\n	1 ver1_main_procedure-39-1	99.921	1.0.0.880	1	ad	-54491760	prawa	1	2.0.10.182	08-21-2015	2015-08-21 15:26:52	17:26:52	kobieta	2.0.10.92	3	1	1	1																							d	{SPACE}		no	BlockProc1		BlockList									30	Cued	l	color_purple.png		-1	11	142527	460																			1					25	prime_left.png	0	142027	0	0	13	0	142027	0	142027	1	142027	20	0	-1	140528	142027	142026	0	prime_left.png	TrialProc1	right	0		0	10	142337	-142337		0	0	TrialList1	target_right.png	1	l	-1	3	142077	260	l	439	142516												5	1	30				neut			450
1 ver1_main_procedure	39	1	27	<?xml version="1.0"?>\n<Clock xmlns:dt="urn:schemas-microsoft-com:datatypes"><Description dt:dt="string">E-Prime Primary Realtime Clock</Description><StartTime><Timestamp dt:dt="int">0</Timestamp><DateUtc dt:dt="string">2015-08-21T15:26:51Z</DateUtc></StartTime><FrequencyChanges><FrequencyChange><Frequency dt:dt="r8">2612285</Frequency><Timestamp dt:dt="r8">17124860029</Timestamp><Current dt:dt="r8">0</Current><DateUtc dt:dt="string">2015-08-21T15:26:51Z</DateUtc></FrequencyChange></FrequencyChanges></Clock>\n	1 ver1_main_procedure-39-1	99.921	1.0.0.880	1	ad	-54491760	prawa	1	2.0.10.182	08-21-2015	2015-08-21 15:26:52	17:26:52	kobieta	2.0.10.92	3	1	1	1																							d	{SPACE}		no	BlockProc1		BlockList									31	Cued	d	color_blue.png		-1	9	145349	160																								75	prime_right.png	0	144798	0	0	13	1	144799	1	144799	1	144798	20	0	-1	143299	144798	144797	0		TrialProc1	left	0		0	11	145109	-145109		0	0	TrialList1	target_left.png	1	d	-1	3	144848	261	d	492	145340												3	1	31				incomp			150
1 ver1_main_procedure	39	1	27	<?xml version="1.0"?>\n<Clock xmlns:dt="urn:schemas-microsoft-com:datatypes"><Description dt:dt="string">E-Prime Primary Realtime Clock</Description><StartTime><Timestamp dt:dt="int">0</Timestamp><DateUtc dt:dt="string">2015-08-21T15:26:51Z</DateUtc></StartTime><FrequencyChanges><FrequencyChange><Frequency dt:dt="r8">2612285</Frequency><Timestamp dt:dt="r8">17124860029</Timestamp><Current dt:dt="r8">0</Current><DateUtc dt:dt="string">2015-08-21T15:26:51Z</DateUtc></FrequencyChange></FrequencyChanges></Clock>\n	1 ver1_main_procedure-39-1	99.921	1.0.0.880	1	ad	-54491760	prawa	1	2.0.10.182	08-21-2015	2015-08-21 15:26:52	17:26:52	kobieta	2.0.10.92	3	1	1	1																							d	{SPACE}		no	BlockProc1		BlockList									32	Cued	l	color_green.png		-1	6	148090	461																								25	prime_left.png	0	147320	0	0	13	0	147320	0	147320	1	147320	20	0	-1	145821	147320	147319	0		TrialProc1	right	0		0	10	147630	-147630		0	0	TrialList1	target_right.png	1	l	-1	3	147370	260	l	714	148084												6	1	32				incomp			450
1 ver1_main_procedure	39	1	27	<?xml version="1.0"?>\n<Clock xmlns:dt="urn:schemas-microsoft-com:datatypes"><Description dt:dt="string">E-Prime Primary Realtime Clock</Description><StartTime><Timestamp dt:dt="int">0</Timestamp><DateUtc dt:dt="string">2015-08-21T15:26:51Z</DateUtc></StartTime><FrequencyChanges><FrequencyChange><Frequency dt:dt="r8">2612285</Frequency><Timestamp dt:dt="r8">17124860029</Timestamp><Current dt:dt="r8">0</Current><DateUtc dt:dt="string">2015-08-21T15:26:51Z</DateUtc></FrequencyChange></FrequencyChanges></Clock>\n	1 ver1_main_procedure-39-1	99.921	1.0.0.880	1	ad	-54491760	prawa	1	2.0.10.182	08-21-2015	2015-08-21 15:26:52	17:26:52	kobieta	2.0.10.92	3	1	1	1																							d	{SPACE}		no	BlockProc1		BlockList									33	Cued	d	color_yellow.png		-1	10	151022	160																								25	prime_left.png	0	150362	0	0	13	0	150362	0	150362	1	150362	20	0	-1	148862	150362	150361	0		TrialProc1	left	0		0	10	150672	-150672		0	0	TrialList1	target_left.png	1	d	-1	3	150412	260	d	600	151012												1	1	33				comp			150
1 ver1_main_procedure	39	1	27	<?xml version="1.0"?>\n<Clock xmlns:dt="urn:schemas-microsoft-com:datatypes"><Description dt:dt="string">E-Prime Primary Realtime Clock</Description><StartTime><Timestamp dt:dt="int">0</Timestamp><DateUtc dt:dt="string">2015-08-21T15:26:51Z</DateUtc></StartTime><FrequencyChanges><FrequencyChange><Frequency dt:dt="r8">2612285</Frequency><Timestamp dt:dt="r8">17124860029</Timestamp><Current dt:dt="r8">0</Current><DateUtc dt:dt="string">2015-08-21T15:26:51Z</DateUtc></FrequencyChange></FrequencyChanges></Clock>\n	1 ver1_main_procedure-39-1	99.921	1.0.0.880	1	ad	-54491760	prawa	1	2.0.10.182	08-21-2015	2015-08-21 15:26:52	17:26:52	kobieta	2.0.10.92	3	1	1	1																							d	{SPACE}		no	BlockProc1		BlockList									34	Free	dl	color_red.png		-1	5	153954	310																			2					75	prime_right.png	0	152993	0	0	13	0	152993	0	152993	1	152993	20	0	-1	151494	152993	152992	0	prime_right.png	TrialProc1	right	0		0	11	153304	-153304		0	0	TrialList1	target_both.png	0	dl	-1	3	153043	261	d	905	153948												11	1	34				neut			300
1 ver1_main_procedure	39	1	27	<?xml version="1.0"?>\n<Clock xmlns:dt="urn:schemas-microsoft-com:datatypes"><Description dt:dt="string">E-Prime Primary Realtime Clock</Description><StartTime><Timestamp dt:dt="int">0</Timestamp><DateUtc dt:dt="string">2015-08-21T15:26:51Z</DateUtc></StartTime><FrequencyChanges><FrequencyChange><Frequency dt:dt="r8">2612285</Frequency><Timestamp dt:dt="r8">17124860029</Timestamp><Current dt:dt="r8">0</Current><DateUtc dt:dt="string">2015-08-21T15:26:51Z</DateUtc></FrequencyChange></FrequencyChanges></Clock>\n	1 ver1_main_procedure-39-1	99.921	1.0.0.880	1	ad	-54491760	prawa	1	2.0.10.182	08-21-2015	2015-08-21 15:26:52	17:26:52	kobieta	2.0.10.92	3	1	1	1																							d	{SPACE}		no	BlockProc1		BlockList									35	Free	dl	color_orange.png		-1	7	156916	310																								75	prime_right.png	0	156075	0	0	13	0	156075	0	156075	1	156075	20	0	-1	154576	156075	156074	0		TrialProc1	right	0		1	10	156385	-156385		0	0	TrialList1	target_both.png	0	dl	-1	3	156125	260	l	783	156908												10	1	35				comp			300
1 ver1_main_procedure	39	1	27	<?xml version="1.0"?>\n<Clock xmlns:dt="urn:schemas-microsoft-com:datatypes"><Description dt:dt="string">E-Prime Primary Realtime Clock</Description><StartTime><Timestamp dt:dt="int">0</Timestamp><DateUtc dt:dt="string">2015-08-21T15:26:51Z</DateUtc></StartTime><FrequencyChanges><FrequencyChange><Frequency dt:dt="r8">2612285</Frequency><Timestamp dt:dt="r8">17124860029</Timestamp><Current dt:dt="r8">0</Current><DateUtc dt:dt="string">2015-08-21T15:26:51Z</DateUtc></FrequencyChange></FrequencyChanges></Clock>\n	1 ver1_main_procedure-39-1	99.921	1.0.0.880	1	ad	-54491760	prawa	1	2.0.10.182	08-21-2015	2015-08-21 15:26:52	17:26:52	kobieta	2.0.10.92	3	1	1	1																							d	{SPACE}		no	BlockProc1		BlockList									36	Cued	d	color_blue.png		-1	8	159517	160																								75	prime_right.png	0	159037	0	0	13	0	159037	0	159037	1	159037	20	0	-1	157538	159037	159036	0		TrialProc1	left	0		0	10	159347	-159347		0	0	TrialList1	target_left.png	1	d	-1	3	159087	260	d	421	159508												3	1	36				incomp			150
1 ver1_main_procedure	39	1	27	<?xml version="1.0"?>\n<Clock xmlns:dt="urn:schemas-microsoft-com:datatypes"><Description dt:dt="string">E-Prime Primary Realtime Clock</Description><StartTime><Timestamp dt:dt="int">0</Timestamp><DateUtc dt:dt="string">2015-08-21T15:26:51Z</DateUtc></StartTime><FrequencyChanges><FrequencyChange><Frequency dt:dt="r8">2612285</Frequency><Timestamp dt:dt="r8">17124860029</Timestamp><Current dt:dt="r8">0</Current><DateUtc dt:dt="string">2015-08-21T15:26:51Z</DateUtc></FrequencyChange></FrequencyChanges></Clock>\n	1 ver1_main_procedure-39-1	99.921	1.0.0.880	1	ad	-54491760	prawa	1	2.0.10.182	08-21-2015	2015-08-21 15:26:52	17:26:52	kobieta	2.0.10.92	3	1	1	1																							d	{SPACE}		no	BlockProc1		BlockList									37	Cued	l	color_orange.png		-1	12	162089	160																								25	prime_right.png	1	161489	0	0	13	1	161489	1	161489	0	161488	20	0	-1	159989	161488	161488	0		TrialProc1	right	0		0	11	161799	-161799		0	0	TrialList1	target_right.png	1	l	-1	3	161538	261	l	538	162076												4	1	37				comp			150
1 ver1_main_procedure	39	1	27	<?xml version="1.0"?>\n<Clock xmlns:dt="urn:schemas-microsoft-com:datatypes"><Description dt:dt="string">E-Prime Primary Realtime Clock</Description><StartTime><Timestamp dt:dt="int">0</Timestamp><DateUtc dt:dt="string">2015-08-21T15:26:51Z</DateUtc></StartTime><FrequencyChanges><FrequencyChange><Frequency dt:dt="r8">2612285</Frequency><Timestamp dt:dt="r8">17124860029</Timestamp><Current dt:dt="r8">0</Current><DateUtc dt:dt="string">2015-08-21T15:26:51Z</DateUtc></FrequencyChange></FrequencyChanges></Clock>\n	1 ver1_main_procedure-39-1	99.921	1.0.0.880	1	ad	-54491760	prawa	1	2.0.10.182	08-21-2015	2015-08-21 15:26:52	17:26:52	kobieta	2.0.10.92	3	1	1	1																							d	{SPACE}		no	BlockProc1		BlockList									38	Cued	d	color_yellow.png		-1	13	164610	160																								75	prime_left.png	0	164060	0	0	13	0	164060	0	164060	1	164060	20	0	-1	162561	164060	164059	0		TrialProc1	left	0		0	10	164370	-164370		0	0	TrialList1	target_left.png	1	d	-1	3	164110	260	d	486	164596												1	1	38				comp			150
1 ver1_main_procedure	39	1	27	<?xml version="1.0"?>\n<Clock xmlns:dt="urn:schemas-microsoft-com:datatypes"><Description dt:dt="string">E-Prime Primary Realtime Clock</Description><StartTime><Timestamp dt:dt="int">0</Timestamp><DateUtc dt:dt="string">2015-08-21T15:26:51Z</DateUtc></StartTime><FrequencyChanges><FrequencyChange><Frequency dt:dt="r8">2612285</Frequency><Timestamp dt:dt="r8">17124860029</Timestamp><Current dt:dt="r8">0</Current><DateUtc dt:dt="string">2015-08-21T15:26:51Z</DateUtc></FrequencyChange></FrequencyChanges></Clock>\n	1 ver1_main_procedure-39-1	99.921	1.0.0.880	1	ad	-54491760	prawa	1	2.0.10.182	08-21-2015	2015-08-21 15:26:52	17:26:52	kobieta	2.0.10.92	3	1	1	1																							d	{SPACE}		no	BlockProc1		BlockList									39	Cued	l	color_orange.png		-1	9	167142	460																								75	prime_right.png	1	166582	0	0	13	1	166582	1	166582	0	166581	20	0	-1	165082	166581	166581	0		TrialProc1	right	0		0	10	166892	-166892		0	0	TrialList1	target_right.png	1	l	-1	4	166632	260	l	500	167132												4	1	39				comp			450
1 ver1_main_procedure	39	1	27	<?xml version="1.0"?>\n<Clock xmlns:dt="urn:schemas-microsoft-com:datatypes"><Description dt:dt="string">E-Prime Primary Realtime Clock</Description><StartTime><Timestamp dt:dt="int">0</Timestamp><DateUtc dt:dt="string">2015-08-21T15:26:51Z</DateUtc></StartTime><FrequencyChanges><FrequencyChange><Frequency dt:dt="r8">2612285</Frequency><Timestamp dt:dt="r8">17124860029</Timestamp><Current dt:dt="r8">0</Current><DateUtc dt:dt="string">2015-08-21T15:26:51Z</DateUtc></FrequencyChange></FrequencyChanges></Clock>\n	1 ver1_main_procedure-39-1	99.921	1.0.0.880	1	ad	-54491760	prawa	1	2.0.10.182	08-21-2015	2015-08-21 15:26:52	17:26:52	kobieta	2.0.10.92	3	1	1	1																							d	{SPACE}		no	BlockProc1		BlockList									40	Free	dl	color_red.png		-1	8	169893	311																			1					75	prime_left.png	0	169413	0	0	13	0	169413	0	169413	1	169413	20	0	-1	167914	169413	169412	0	prime_left.png	TrialProc1	right	0		1	10	169723	-169723		0	0	TrialList1	target_both.png	0	dl	-1	3	169463	260	d	421	169884												11	1	40				neut			300
1 ver1_main_procedure	39	1	27	<?xml version="1.0"?>\n<Clock xmlns:dt="urn:schemas-microsoft-com:datatypes"><Description dt:dt="string">E-Prime Primary Realtime Clock</Description><StartTime><Timestamp dt:dt="int">0</Timestamp><DateUtc dt:dt="string">2015-08-21T15:26:51Z</DateUtc></StartTime><FrequencyChanges><FrequencyChange><Frequency dt:dt="r8">2612285</Frequency><Timestamp dt:dt="r8">17124860029</Timestamp><Current dt:dt="r8">0</Current><DateUtc dt:dt="string">2015-08-21T15:26:51Z</DateUtc></FrequencyChange></FrequencyChanges></Clock>\n	1 ver1_main_procedure-39-1	99.921	1.0.0.880	1	ad	-54491760	prawa	1	2.0.10.182	08-21-2015	2015-08-21 15:26:52	17:26:52	kobieta	2.0.10.92	3	1	1	1																							d	{SPACE}		no	BlockProc1		BlockList									41	Free	dl	color_blue.png		-1	10	172535	160																								75	prime_right.png	0	172015	0	0	13	0	172015	0	172015	1	172015	20	0	-1	170516	172015	172014	0		TrialProc1	right	0		0	10	172325	-172325		0	0	TrialList1	target_both.png	0	dl	-1	3	172065	260	d	459	172524												10	1	41				comp			150
1 ver1_main_procedure	39	1	27	<?xml version="1.0"?>\n<Clock xmlns:dt="urn:schemas-microsoft-com:datatypes"><Description dt:dt="string">E-Prime Primary Realtime Clock</Description><StartTime><Timestamp dt:dt="int">0</Timestamp><DateUtc dt:dt="string">2015-08-21T15:26:51Z</DateUtc></StartTime><FrequencyChanges><FrequencyChange><Frequency dt:dt="r8">2612285</Frequency><Timestamp dt:dt="r8">17124860029</Timestamp><Current dt:dt="r8">0</Current><DateUtc dt:dt="string">2015-08-21T15:26:51Z</DateUtc></FrequencyChange></FrequencyChanges></Clock>\n	1 ver1_main_procedure-39-1	99.921	1.0.0.880	1	ad	-54491760	prawa	1	2.0.10.182	08-21-2015	2015-08-21 15:26:52	17:26:52	kobieta	2.0.10.92	3	1	1	1																							d	{SPACE}		no	BlockProc1		BlockList									42	Cued	l	color_orange.png		-1	6	174947	460																								25	prime_right.png	0	174506	0	0	13	0	174506	0	174506	1	174506	20	0	-1	173007	174506	174505	0		TrialProc1	right	0		1	10	174816	-174816		0	0	TrialList1	target_right.png	1	l	-1	3	174556	260	l	384	174940												4	1	42				comp			450
1 ver1_main_procedure	39	1	27	<?xml version="1.0"?>\n<Clock xmlns:dt="urn:schemas-microsoft-com:datatypes"><Description dt:dt="string">E-Prime Primary Realtime Clock</Description><StartTime><Timestamp dt:dt="int">0</Timestamp><DateUtc dt:dt="string">2015-08-21T15:26:51Z</DateUtc></StartTime><FrequencyChanges><FrequencyChange><Frequency dt:dt="r8">2612285</Frequency><Timestamp dt:dt="r8">17124860029</Timestamp><Current dt:dt="r8">0</Current><DateUtc dt:dt="string">2015-08-21T15:26:51Z</DateUtc></FrequencyChange></FrequencyChanges></Clock>\n	1 ver1_main_procedure-39-1	99.921	1.0.0.880	1	ad	-54491760	prawa	1	2.0.10.182	08-21-2015	2015-08-21 15:26:52	17:26:52	kobieta	2.0.10.92	3	1	1	1																							d	{SPACE}		no	BlockProc1		BlockList									43	Free	dl	color_red.png		-1	5	177858	160																			2					25	prime_right.png	0	177218	0	0	13	0	177218	0	177218	1	177218	20	0	-1	175719	177218	177217	0	prime_right.png	TrialProc1	left	0		0	10	177528	-177528		0	0	TrialList1	target_both.png	0	dl	-1	3	177268	260	d	585	177853												8	1	43				neut			150
1 ver1_main_procedure	39	1	27	<?xml version="1.0"?>\n<Clock xmlns:dt="urn:schemas-microsoft-com:datatypes"><Description dt:dt="string">E-Prime Primary Realtime Clock</Description><StartTime><Timestamp dt:dt="int">0</Timestamp><DateUtc dt:dt="string">2015-08-21T15:26:51Z</DateUtc></StartTime><FrequencyChanges><FrequencyChange><Frequency dt:dt="r8">2612285</Frequency><Timestamp dt:dt="r8">17124860029</Timestamp><Current dt:dt="r8">0</Current><DateUtc dt:dt="string">2015-08-21T15:26:51Z</DateUtc></FrequencyChange></FrequencyChanges></Clock>\n	1 ver1_main_procedure-39-1	99.921	1.0.0.880	1	ad	-54491760	prawa	1	2.0.10.182	08-21-2015	2015-08-21 15:26:52	17:26:52	kobieta	2.0.10.92	3	1	1	1																							d	{SPACE}		no	BlockProc1		BlockList									44	Free	dl	color_green.png		-1	7	180460	460																								75	prime_left.png	1	179830	0	0	13	1	179830	1	179830	0	179829	20	0	-1	178330	179829	179829	0		TrialProc1	right	0		0	11	180140	-180140		0	0	TrialList1	target_both.png	0	dl	-1	3	179879	261	l	574	180453												12	1	44				incomp			450
1 ver1_main_procedure	39	1	27	<?xml version="1.0"?>\n<Clock xmlns:dt="urn:schemas-microsoft-com:datatypes"><Description dt:dt="string">E-Prime Primary Realtime Clock</Description><StartTime><Timestamp dt:dt="int">0</Timestamp><DateUtc dt:dt="string">2015-08-21T15:26:51Z</DateUtc></StartTime><FrequencyChanges><FrequencyChange><Frequency dt:dt="r8">2612285</Frequency><Timestamp dt:dt="r8">17124860029</Timestamp><Current dt:dt="r8">0</Current><DateUtc dt:dt="string">2015-08-21T15:26:51Z</DateUtc></FrequencyChange></FrequencyChanges></Clock>\n	1 ver1_main_procedure-39-1	99.921	1.0.0.880	1	ad	-54491760	prawa	1	2.0.10.182	08-21-2015	2015-08-21 15:26:52	17:26:52	kobieta	2.0.10.92	3	1	1	1																							d	{SPACE}		no	BlockProc1		BlockList									45	Free	dl	color_yellow.png		-1	11	183352	310																								25	prime_left.png	0	182731	0	0	13	0	182731	0	182731	1	182731	20	0	-1	181232	182731	182730	0		TrialProc1	right	0		1	10	183041	-183041		0	0	TrialList1	target_both.png	0	dl	-1	3	182781	260	d	560	183341												12	1	45				incomp			300
1 ver1_main_procedure	39	1	27	<?xml version="1.0"?>\n<Clock xmlns:dt="urn:schemas-microsoft-com:datatypes"><Description dt:dt="string">E-Prime Primary Realtime Clock</Description><StartTime><Timestamp dt:dt="int">0</Timestamp><DateUtc dt:dt="string">2015-08-21T15:26:51Z</DateUtc></StartTime><FrequencyChanges><FrequencyChange><Frequency dt:dt="r8">2612285</Frequency><Timestamp dt:dt="r8">17124860029</Timestamp><Current dt:dt="r8">0</Current><DateUtc dt:dt="string">2015-08-21T15:26:51Z</DateUtc></FrequencyChange></FrequencyChanges></Clock>\n	1 ver1_main_procedure-39-1	99.921	1.0.0.880	1	ad	-54491760	prawa	1	2.0.10.182	08-21-2015	2015-08-21 15:26:52	17:26:52	kobieta	2.0.10.92	3	1	1	1																							d	{SPACE}		no	BlockProc1		BlockList									46	Cued	l	color_green.png		-1	14	186003	461																								75	prime_left.png	0	185473	0	0	13	0	185473	0	185473	1	185473	20	0	-1	183974	185473	185472	0		TrialProc1	right	0		0	10	185783	-185783		0	0	TrialList1	target_right.png	1	l	-1	3	185523	260	l	466	185989												6	1	46				incomp			450
1 ver1_main_procedure	39	1	27	<?xml version="1.0"?>\n<Clock xmlns:dt="urn:schemas-microsoft-com:datatypes"><Description dt:dt="string">E-Prime Primary Realtime Clock</Description><StartTime><Timestamp dt:dt="int">0</Timestamp><DateUtc dt:dt="string">2015-08-21T15:26:51Z</DateUtc></StartTime><FrequencyChanges><FrequencyChange><Frequency dt:dt="r8">2612285</Frequency><Timestamp dt:dt="r8">17124860029</Timestamp><Current dt:dt="r8">0</Current><DateUtc dt:dt="string">2015-08-21T15:26:51Z</DateUtc></FrequencyChange></FrequencyChanges></Clock>\n	1 ver1_main_procedure-39-1	99.921	1.0.0.880	1	ad	-54491760	prawa	1	2.0.10.182	08-21-2015	2015-08-21 15:26:52	17:26:52	kobieta	2.0.10.92	3	1	1	1																							d	{SPACE}		no	BlockProc1		BlockList									47	Cued	d	color_yellow.png		-1	8	188845	310																								75	prime_left.png	0	188275	0	0	13	0	188275	0	188275	1	188275	20	0	-1	186775	188275	188274	0		TrialProc1	left	0		0	10	188585	-188585		0	0	TrialList1	target_left.png	1	d	-1	3	188325	260	d	512	188837												1	1	47				comp			300
1 ver1_main_procedure	39	1	27	<?xml version="1.0"?>\n<Clock xmlns:dt="urn:schemas-microsoft-com:datatypes"><Description dt:dt="string">E-Prime Primary Realtime Clock</Description><StartTime><Timestamp dt:dt="int">0</Timestamp><DateUtc dt:dt="string">2015-08-21T15:26:51Z</DateUtc></StartTime><FrequencyChanges><FrequencyChange><Frequency dt:dt="r8">2612285</Frequency><Timestamp dt:dt="r8">17124860029</Timestamp><Current dt:dt="r8">0</Current><DateUtc dt:dt="string">2015-08-21T15:26:51Z</DateUtc></FrequencyChange></FrequencyChanges></Clock>\n	1 ver1_main_procedure-39-1	99.921	1.0.0.880	1	ad	-54491760	prawa	1	2.0.10.182	08-21-2015	2015-08-21 15:26:52	17:26:52	kobieta	2.0.10.92	3	1	1	1																							d	{SPACE}		no	BlockProc1		BlockList									48	Cued	d	color_yellow.png		-1	12	191346	311																								75	prime_left.png	0	190966	0	0	13	0	190966	0	190966	1	190966	20	0	-1	189467	190966	190965	0		TrialProc1	left	0		0	10	191276	-191276		0	0	TrialList1	target_left.png	1	d	-1	3	191016	260	d	317	191333												1	1	48				comp			300
1 ver1_main_procedure	39	1	27	<?xml version="1.0"?>\n<Clock xmlns:dt="urn:schemas-microsoft-com:datatypes"><Description dt:dt="string">E-Prime Primary Realtime Clock</Description><StartTime><Timestamp dt:dt="int">0</Timestamp><DateUtc dt:dt="string">2015-08-21T15:26:51Z</DateUtc></StartTime><FrequencyChanges><FrequencyChange><Frequency dt:dt="r8">2612285</Frequency><Timestamp dt:dt="r8">17124860029</Timestamp><Current dt:dt="r8">0</Current><DateUtc dt:dt="string">2015-08-21T15:26:51Z</DateUtc></FrequencyChange></FrequencyChanges></Clock>\n	1 ver1_main_procedure-39-1	99.921	1.0.0.880	1	ad	-54491760	prawa	1	2.0.10.182	08-21-2015	2015-08-21 15:26:52	17:26:52	kobieta	2.0.10.92	3	1	1	1																							d	{SPACE}		no	BlockProc1		BlockList									49	Cued	l	color_purple.png		-1	10	194008	310																			1					25	prime_left.png	0	193468	0	0	13	0	193468	0	193468	1	193468	20	0	-1	191969	193468	193467	0	prime_left.png	TrialProc1	right	0		0	10	193778	-193778		0	0	TrialList1	target_right.png	1	l	-1	3	193518	260	l	479	193997												5	1	49				neut			300
1 ver1_main_procedure	39	1	27	<?xml version="1.0"?>\n<Clock xmlns:dt="urn:schemas-microsoft-com:datatypes"><Description dt:dt="string">E-Prime Primary Realtime Clock</Description><StartTime><Timestamp dt:dt="int">0</Timestamp><DateUtc dt:dt="string">2015-08-21T15:26:51Z</DateUtc></StartTime><FrequencyChanges><FrequencyChange><Frequency dt:dt="r8">2612285</Frequency><Timestamp dt:dt="r8">17124860029</Timestamp><Current dt:dt="r8">0</Current><DateUtc dt:dt="string">2015-08-21T15:26:51Z</DateUtc></FrequencyChange></FrequencyChanges></Clock>\n	1 ver1_main_procedure-39-1	99.921	1.0.0.880	1	ad	-54491760	prawa	1	2.0.10.182	08-21-2015	2015-08-21 15:26:52	17:26:52	kobieta	2.0.10.92	3	1	1	1																							d	{SPACE}		no	BlockProc1		BlockList									50	Cued	l			-1	12	196730	160																			2					75	prime_right.png	0	196129	0	0	13	0	196129	0	196129	1	196129	20	0	-1	194630	196129	196128	0	prime_right.png	TrialProc1	right	0		1	10	196439	-196439		0	0	TrialList1	target_right.png	0	l	-1	3	196179	260	d	538	196717												5	1	50				neut			150
1 ver1_main_procedure	39	1	27	<?xml version="1.0"?>\n<Clock xmlns:dt="urn:schemas-microsoft-com:datatypes"><Description dt:dt="string">E-Prime Primary Realtime Clock</Description><StartTime><Timestamp dt:dt="int">0</Timestamp><DateUtc dt:dt="string">2015-08-21T15:26:51Z</DateUtc></StartTime><FrequencyChanges><FrequencyChange><Frequency dt:dt="r8">2612285</Frequency><Timestamp dt:dt="r8">17124860029</Timestamp><Current dt:dt="r8">0</Current><DateUtc dt:dt="string">2015-08-21T15:26:51Z</DateUtc></FrequencyChange></FrequencyChanges></Clock>\n	1 ver1_main_procedure-39-1	99.921	1.0.0.880	1	ad	-54491760	prawa	1	2.0.10.182	08-21-2015	2015-08-21 15:26:52	17:26:52	kobieta	2.0.10.92	3	1	1	1																							d	{SPACE}		no	BlockProc1		BlockList									51	Cued	l	color_orange.png		-1	11	199081	460																								75	prime_right.png	0	198701	0	0	13	0	198701	0	198701	1	198701	20	0	-1	197202	198701	198700	0		TrialProc1	right	0		0	10	199011	-199011		0	0	TrialList1	target_right.png	1	l	-1	3	198751	260	l	318	199069												4	1	51				comp			450
1 ver1_main_procedure	39	1	27	<?xml version="1.0"?>\n<Clock xmlns:dt="urn:schemas-microsoft-com:datatypes"><Description dt:dt="string">E-Prime Primary Realtime Clock</Description><StartTime><Timestamp dt:dt="int">0</Timestamp><DateUtc dt:dt="string">2015-08-21T15:26:51Z</DateUtc></StartTime><FrequencyChanges><FrequencyChange><Frequency dt:dt="r8">2612285</Frequency><Timestamp dt:dt="r8">17124860029</Timestamp><Current dt:dt="r8">0</Current><DateUtc dt:dt="string">2015-08-21T15:26:51Z</DateUtc></FrequencyChange></FrequencyChanges></Clock>\n	1 ver1_main_procedure-39-1	99.921	1.0.0.880	1	ad	-54491760	prawa	1	2.0.10.182	08-21-2015	2015-08-21 15:26:52	17:26:52	kobieta	2.0.10.92	3	1	1	1																							d	{SPACE}		no	BlockProc1		BlockList									52	Cued	d	color_yellow.png		-1	9	201903	310																								75	prime_left.png	0	201352	0	0	13	1	201353	1	201353	0	201352	20	0	-1	199853	201352	201352	0		TrialProc1	left	0		0	11	201663	-201663		0	0	TrialList1	target_left.png	1	d	-1	3	201402	261	d	491	201893												1	1	52				comp			300
1 ver1_main_procedure	39	1	27	<?xml version="1.0"?>\n<Clock xmlns:dt="urn:schemas-microsoft-com:datatypes"><Description dt:dt="string">E-Prime Primary Realtime Clock</Description><StartTime><Timestamp dt:dt="int">0</Timestamp><DateUtc dt:dt="string">2015-08-21T15:26:51Z</DateUtc></StartTime><FrequencyChanges><FrequencyChange><Frequency dt:dt="r8">2612285</Frequency><Timestamp dt:dt="r8">17124860029</Timestamp><Current dt:dt="r8">0</Current><DateUtc dt:dt="string">2015-08-21T15:26:51Z</DateUtc></FrequencyChange></FrequencyChanges></Clock>\n	1 ver1_main_procedure-39-1	99.921	1.0.0.880	1	ad	-54491760	prawa	1	2.0.10.182	08-21-2015	2015-08-21 15:26:52	17:26:52	kobieta	2.0.10.92	3	1	1	1																							d	{SPACE}		no	BlockProc1		BlockList									53	Cued	d	color_yellow.png		-1	12	204594	311																								25	prime_left.png	0	204024	0	0	13	0	204024	0	204024	1	204024	20	0	-1	202525	204024	204023	0		TrialProc1	left	0		0	10	204334	-204334		0	0	TrialList1	target_left.png	1	d	-1	3	204074	260	d	507	204581												1	1	53				comp			300
1 ver1_main_procedure	39	1	27	<?xml version="1.0"?>\n<Clock xmlns:dt="urn:schemas-microsoft-com:datatypes"><Description dt:dt="string">E-Prime Primary Realtime Clock</Description><StartTime><Timestamp dt:dt="int">0</Timestamp><DateUtc dt:dt="string">2015-08-21T15:26:51Z</DateUtc></StartTime><FrequencyChanges><FrequencyChange><Frequency dt:dt="r8">2612285</Frequency><Timestamp dt:dt="r8">17124860029</Timestamp><Current dt:dt="r8">0</Current><DateUtc dt:dt="string">2015-08-21T15:26:51Z</DateUtc></FrequencyChange></FrequencyChanges></Clock>\n	1 ver1_main_procedure-39-1	99.921	1.0.0.880	1	ad	-54491760	prawa	1	2.0.10.182	08-21-2015	2015-08-21 15:26:52	17:26:52	kobieta	2.0.10.92	3	1	1	1																							d	{SPACE}		no	BlockProc1		BlockList									54	Free	dl	color_orange.png		-1	6	207356	160																								75	prime_right.png	0	206716	0	0	13	0	206716	0	206716	1	206716	20	0	-1	205216	206716	206715	0		TrialProc1	left	0		0	10	207026	-207026		0	0	TrialList1	target_both.png	0	dl	-1	3	206766	260	l	583	207349												9	1	54				incomp			150
1 ver1_main_procedure	39	1	27	<?xml version="1.0"?>\n<Clock xmlns:dt="urn:schemas-microsoft-com:datatypes"><Description dt:dt="string">E-Prime Primary Realtime Clock</Description><StartTime><Timestamp dt:dt="int">0</Timestamp><DateUtc dt:dt="string">2015-08-21T15:26:51Z</DateUtc></StartTime><FrequencyChanges><FrequencyChange><Frequency dt:dt="r8">2612285</Frequency><Timestamp dt:dt="r8">17124860029</Timestamp><Current dt:dt="r8">0</Current><DateUtc dt:dt="string">2015-08-21T15:26:51Z</DateUtc></FrequencyChange></FrequencyChanges></Clock>\n	1 ver1_main_procedure-39-1	99.921	1.0.0.880	1	ad	-54491760	prawa	1	2.0.10.182	08-21-2015	2015-08-21 15:26:52	17:26:52	kobieta	2.0.10.92	3	1	1	1																							d	{SPACE}		no	BlockProc1		BlockList									55	Cued	d	color_red.png		-1	8	209878	160																			1					75	prime_left.png	0	209327	0	0	13	1	209328	1	209328	1	209327	20	0	-1	207828	209327	209326	0	prime_left.png	TrialProc1	left	0		1	10	209637	-209637		0	0	TrialList1	target_left.png	1	d	-1	3	209377	260	d	492	209869												2	1	55				neut			150
1 ver1_main_procedure	39	1	27	<?xml version="1.0"?>\n<Clock xmlns:dt="urn:schemas-microsoft-com:datatypes"><Description dt:dt="string">E-Prime Primary Realtime Clock</Description><StartTime><Timestamp dt:dt="int">0</Timestamp><DateUtc dt:dt="string">2015-08-21T15:26:51Z</DateUtc></StartTime><FrequencyChanges><FrequencyChange><Frequency dt:dt="r8">2612285</Frequency><Timestamp dt:dt="r8">17124860029</Timestamp><Current dt:dt="r8">0</Current><DateUtc dt:dt="string">2015-08-21T15:26:51Z</DateUtc></FrequencyChange></FrequencyChanges></Clock>\n	1 ver1_main_procedure-39-1	99.921	1.0.0.880	1	ad	-54491760	prawa	1	2.0.10.182	08-21-2015	2015-08-21 15:26:52	17:26:52	kobieta	2.0.10.92	3	1	1	1																							d	{SPACE}		no	BlockProc1		BlockList									56	Cued	d	color_blue.png		-1	11	212449	460																								25	prime_right.png	0	211849	0	0	13	0	211849	0	211849	1	211849	20	0	-1	210349	211849	211848	0		TrialProc1	left	0		0	10	212159	-212159		0	0	TrialList1	target_left.png	1	d	-1	3	211899	260	d	538	212437												3	1	56				incomp			450
1 ver1_main_procedure	39	1	27	<?xml version="1.0"?>\n<Clock xmlns:dt="urn:schemas-microsoft-com:datatypes"><Description dt:dt="string">E-Prime Primary Realtime Clock</Description><StartTime><Timestamp dt:dt="int">0</Timestamp><DateUtc dt:dt="string">2015-08-21T15:26:51Z</DateUtc></StartTime><FrequencyChanges><FrequencyChange><Frequency dt:dt="r8">2612285</Frequency><Timestamp dt:dt="r8">17124860029</Timestamp><Current dt:dt="r8">0</Current><DateUtc dt:dt="string">2015-08-21T15:26:51Z</DateUtc></FrequencyChange></FrequencyChanges></Clock>\n	1 ver1_main_procedure-39-1	99.921	1.0.0.880	1	ad	-54491760	prawa	1	2.0.10.182	08-21-2015	2015-08-21 15:26:52	17:26:52	kobieta	2.0.10.92	3	1	1	1																							d	{SPACE}		no	BlockProc1		BlockList									57	Cued	l	color_orange.png		-1	15	215301	310																								25	prime_right.png	1	214721	0	0	13	1	214721	1	214721	0	214720	20	0	-1	213221	214720	214720	0		TrialProc1	right	0		0	10	215031	-215031		0	0	TrialList1	target_right.png	1	l	-1	4	214771	260	l	515	215286												4	1	57				comp			300
1 ver1_main_procedure	39	1	27	<?xml version="1.0"?>\n<Clock xmlns:dt="urn:schemas-microsoft-com:datatypes"><Description dt:dt="string">E-Prime Primary Realtime Clock</Description><StartTime><Timestamp dt:dt="int">0</Timestamp><DateUtc dt:dt="string">2015-08-21T15:26:51Z</DateUtc></StartTime><FrequencyChanges><FrequencyChange><Frequency dt:dt="r8">2612285</Frequency><Timestamp dt:dt="r8">17124860029</Timestamp><Current dt:dt="r8">0</Current><DateUtc dt:dt="string">2015-08-21T15:26:51Z</DateUtc></FrequencyChange></FrequencyChanges></Clock>\n	1 ver1_main_procedure-39-1	99.921	1.0.0.880	1	ad	-54491760	prawa	1	2.0.10.182	08-21-2015	2015-08-21 15:26:52	17:26:52	kobieta	2.0.10.92	3	1	1	1																							d	{SPACE}		no	BlockProc1		BlockList									58	Cued	l			-1	11	217913	160																			2					75	prime_right.png	0	217422	0	0	13	0	217422	0	217422	1	217422	20	0	-1	215923	217422	217421	0	prime_right.png	TrialProc1	right	0		0	10	217732	-217732		0	0	TrialList1	target_right.png	0	l	-1	3	217472	260	d	430	217902												5	1	58				neut			150
1 ver1_main_procedure	39	1	27	<?xml version="1.0"?>\n<Clock xmlns:dt="urn:schemas-microsoft-com:datatypes"><Description dt:dt="string">E-Prime Primary Realtime Clock</Description><StartTime><Timestamp dt:dt="int">0</Timestamp><DateUtc dt:dt="string">2015-08-21T15:26:51Z</DateUtc></StartTime><FrequencyChanges><FrequencyChange><Frequency dt:dt="r8">2612285</Frequency><Timestamp dt:dt="r8">17124860029</Timestamp><Current dt:dt="r8">0</Current><DateUtc dt:dt="string">2015-08-21T15:26:51Z</DateUtc></FrequencyChange></FrequencyChanges></Clock>\n	1 ver1_main_procedure-39-1	99.921	1.0.0.880	1	ad	-54491760	prawa	1	2.0.10.182	08-21-2015	2015-08-21 15:26:52	17:26:52	kobieta	2.0.10.92	3	1	1	1																							d	{SPACE}		no	BlockProc1		BlockList									59	Cued	d	color_red.png		-1	6	220404	460																			1					25	prime_left.png	0	219884	0	0	13	0	219884	0	219884	1	219884	20	0	-1	218385	219884	219883	0	prime_left.png	TrialProc1	left	0		0	10	220194	-220194		0	0	TrialList1	target_left.png	1	d	-1	3	219934	260	d	464	220398												2	1	59				neut			450
1 ver1_main_procedure	39	1	27	<?xml version="1.0"?>\n<Clock xmlns:dt="urn:schemas-microsoft-com:datatypes"><Description dt:dt="string">E-Prime Primary Realtime Clock</Description><StartTime><Timestamp dt:dt="int">0</Timestamp><DateUtc dt:dt="string">2015-08-21T15:26:51Z</DateUtc></StartTime><FrequencyChanges><FrequencyChange><Frequency dt:dt="r8">2612285</Frequency><Timestamp dt:dt="r8">17124860029</Timestamp><Current dt:dt="r8">0</Current><DateUtc dt:dt="string">2015-08-21T15:26:51Z</DateUtc></FrequencyChange></FrequencyChanges></Clock>\n	1 ver1_main_procedure-39-1	99.921	1.0.0.880	1	ad	-54491760	prawa	1	2.0.10.182	08-21-2015	2015-08-21 15:26:52	17:26:52	kobieta	2.0.10.92	3	1	1	1																							d	{SPACE}		no	BlockProc1		BlockList									60	Cued	d	color_blue.png		-1	12	223266	310																								25	prime_right.png	0	222675	0	0	13	1	222676	1	222676	1	222675	20	0	-1	221176	222675	222674	0		TrialProc1	left	0		1	10	222985	-222985		0	0	TrialList1	target_left.png	1	d	-1	3	222725	260	d	529	223254												3	1	60				incomp			300
1 ver1_main_procedure	39	1	27	<?xml version="1.0"?>\n<Clock xmlns:dt="urn:schemas-microsoft-com:datatypes"><Description dt:dt="string">E-Prime Primary Realtime Clock</Description><StartTime><Timestamp dt:dt="int">0</Timestamp><DateUtc dt:dt="string">2015-08-21T15:26:51Z</DateUtc></StartTime><FrequencyChanges><FrequencyChange><Frequency dt:dt="r8">2612285</Frequency><Timestamp dt:dt="r8">17124860029</Timestamp><Current dt:dt="r8">0</Current><DateUtc dt:dt="string">2015-08-21T15:26:51Z</DateUtc></FrequencyChange></FrequencyChanges></Clock>\n	1 ver1_main_procedure-39-1	99.921	1.0.0.880	1	ad	-54491760	prawa	1	2.0.10.182	08-21-2015	2015-08-21 15:26:52	17:26:52	kobieta	2.0.10.92	3	1	1	1																							d	{SPACE}		no	BlockProc1		BlockList									61	Cued	d	color_red.png		-1	9	225927	310																			2					75	prime_right.png	0	225387	0	0	13	0	225387	0	225387	1	225387	20	0	-1	223888	225387	225386	0	prime_right.png	TrialProc1	left	0		0	10	225697	-225697		0	0	TrialList1	target_left.png	1	d	-1	3	225437	260	d	481	225918												2	1	61				neut			300
1 ver1_main_procedure	39	1	27	<?xml version="1.0"?>\n<Clock xmlns:dt="urn:schemas-microsoft-com:datatypes"><Description dt:dt="string">E-Prime Primary Realtime Clock</Description><StartTime><Timestamp dt:dt="int">0</Timestamp><DateUtc dt:dt="string">2015-08-21T15:26:51Z</DateUtc></StartTime><FrequencyChanges><FrequencyChange><Frequency dt:dt="r8">2612285</Frequency><Timestamp dt:dt="r8">17124860029</Timestamp><Current dt:dt="r8">0</Current><DateUtc dt:dt="string">2015-08-21T15:26:51Z</DateUtc></FrequencyChange></FrequencyChanges></Clock>\n	1 ver1_main_procedure-39-1	99.921	1.0.0.880	1	ad	-54491760	prawa	1	2.0.10.182	08-21-2015	2015-08-21 15:26:52	17:26:52	kobieta	2.0.10.92	3	1	1	1																							d	{SPACE}		no	BlockProc1		BlockList									62	Cued	l	color_purple.png		-1	10	228529	310																			1					75	prime_left.png	0	228049	0	0	13	0	228049	0	228049	1	228049	20	0	-1	226549	228049	228048	0	prime_left.png	TrialProc1	right	0		0	10	228359	-228359		0	0	TrialList1	target_right.png	1	l	-1	3	228099	260	l	419	228518												5	1	62				neut			300
1 ver1_main_procedure	39	1	27	<?xml version="1.0"?>\n<Clock xmlns:dt="urn:schemas-microsoft-com:datatypes"><Description dt:dt="string">E-Prime Primary Realtime Clock</Description><StartTime><Timestamp dt:dt="int">0</Timestamp><DateUtc dt:dt="string">2015-08-21T15:26:51Z</DateUtc></StartTime><FrequencyChanges><FrequencyChange><Frequency dt:dt="r8">2612285</Frequency><Timestamp dt:dt="r8">17124860029</Timestamp><Current dt:dt="r8">0</Current><DateUtc dt:dt="string">2015-08-21T15:26:51Z</DateUtc></FrequencyChange></FrequencyChanges></Clock>\n	1 ver1_main_procedure-39-1	99.921	1.0.0.880	1	ad	-54491760	prawa	1	2.0.10.182	08-21-2015	2015-08-21 15:26:52	17:26:52	kobieta	2.0.10.92	3	1	1	1																							d	{SPACE}		no	BlockProc1		BlockList									63	Cued	l	color_green.png		-1	8	231631	460																								75	prime_left.png	0	230650	0	0	13	0	230650	0	230650	1	230650	20	0	-1	229151	230650	230649	0		TrialProc1	right	0		0	10	230960	-230960		0	0	TrialList1	target_right.png	1	l	-1	3	230700	260	l	922	231622												6	1	63				incomp			450
1 ver1_main_procedure	39	1	27	<?xml version="1.0"?>\n<Clock xmlns:dt="urn:schemas-microsoft-com:datatypes"><Description dt:dt="string">E-Prime Primary Realtime Clock</Description><StartTime><Timestamp dt:dt="int">0</Timestamp><DateUtc dt:dt="string">2015-08-21T15:26:51Z</DateUtc></StartTime><FrequencyChanges><FrequencyChange><Frequency dt:dt="r8">2612285</Frequency><Timestamp dt:dt="r8">17124860029</Timestamp><Current dt:dt="r8">0</Current><DateUtc dt:dt="string">2015-08-21T15:26:51Z</DateUtc></FrequencyChange></FrequencyChanges></Clock>\n	1 ver1_main_procedure-39-1	99.921	1.0.0.880	1	ad	-54491760	prawa	1	2.0.10.182	08-21-2015	2015-08-21 15:26:52	17:26:52	kobieta	2.0.10.92	3	1	1	1																							d	{SPACE}		no	BlockProc1		BlockList									64	Cued	l	color_orange.png		-1	10	234673	160																								75	prime_right.png	0	233902	0	0	13	0	233902	0	233902	1	233902	20	0	-1	232403	233902	233901	0		TrialProc1	right	0		0	10	234212	-234212		0	0	TrialList1	target_right.png	1	l	-1	3	233952	260	l	710	234662												4	1	64				comp			150
1 ver1_main_procedure	39	1	27	<?xml version="1.0"?>\n<Clock xmlns:dt="urn:schemas-microsoft-com:datatypes"><Description dt:dt="string">E-Prime Primary Realtime Clock</Description><StartTime><Timestamp dt:dt="int">0</Timestamp><DateUtc dt:dt="string">2015-08-21T15:26:51Z</DateUtc></StartTime><FrequencyChanges><FrequencyChange><Frequency dt:dt="r8">2612285</Frequency><Timestamp dt:dt="r8">17124860029</Timestamp><Current dt:dt="r8">0</Current><DateUtc dt:dt="string">2015-08-21T15:26:51Z</DateUtc></FrequencyChange></FrequencyChanges></Clock>\n	1 ver1_main_procedure-39-1	99.921	1.0.0.880	1	ad	-54491760	prawa	1	2.0.10.182	08-21-2015	2015-08-21 15:26:52	17:26:52	kobieta	2.0.10.92	3	1	1	1																							d	{SPACE}		no	BlockProc1		BlockList									65	Cued	l	color_green.png		-1	5	237204	160																								75	prime_left.png	0	236644	0	0	13	0	236644	0	236644	1	236644	20	0	-1	235145	236644	236643	0		TrialProc1	right	0		0	10	236954	-236954		0	0	TrialList1	target_right.png	1	l	-1	3	236694	260	l	504	237198												6	1	65				incomp			150
1 ver1_main_procedure	39	1	27	<?xml version="1.0"?>\n<Clock xmlns:dt="urn:schemas-microsoft-com:datatypes"><Description dt:dt="string">E-Prime Primary Realtime Clock</Description><StartTime><Timestamp dt:dt="int">0</Timestamp><DateUtc dt:dt="string">2015-08-21T15:26:51Z</DateUtc></StartTime><FrequencyChanges><FrequencyChange><Frequency dt:dt="r8">2612285</Frequency><Timestamp dt:dt="r8">17124860029</Timestamp><Current dt:dt="r8">0</Current><DateUtc dt:dt="string">2015-08-21T15:26:51Z</DateUtc></FrequencyChange></FrequencyChanges></Clock>\n	1 ver1_main_procedure-39-1	99.921	1.0.0.880	1	ad	-54491760	prawa	1	2.0.10.182	08-21-2015	2015-08-21 15:26:52	17:26:52	kobieta	2.0.10.92	3	1	1	1																							d	{SPACE}		no	BlockProc1		BlockList									66	Cued	l	color_purple.png		-1	13	239676	160																			2					75	prime_right.png	0	239175	0	0	13	0	239176	0	239175	1	239175	20	0	-1	237676	239175	239174	0	prime_right.png	TrialProc1	right	0		1	10	239485	-239485		0	0	TrialList1	target_right.png	1	l	-1	3	239225	260	l	437	239662												5	1	66				neut			150
1 ver1_main_procedure	39	1	27	<?xml version="1.0"?>\n<Clock xmlns:dt="urn:schemas-microsoft-com:datatypes"><Description dt:dt="string">E-Prime Primary Realtime Clock</Description><StartTime><Timestamp dt:dt="int">0</Timestamp><DateUtc dt:dt="string">2015-08-21T15:26:51Z</DateUtc></StartTime><FrequencyChanges><FrequencyChange><Frequency dt:dt="r8">2612285</Frequency><Timestamp dt:dt="r8">17124860029</Timestamp><Current dt:dt="r8">0</Current><DateUtc dt:dt="string">2015-08-21T15:26:51Z</DateUtc></FrequencyChange></FrequencyChanges></Clock>\n	1 ver1_main_procedure-39-1	99.921	1.0.0.880	1	ad	-54491760	prawa	1	2.0.10.182	08-21-2015	2015-08-21 15:26:52	17:26:52	kobieta	2.0.10.92	3	1	1	1																							d	{SPACE}		no	BlockProc1		BlockList									67	Free	dl	color_blue.png		-1	12	242387	460																								25	prime_right.png	0	241647	0	0	13	0	241647	0	241647	1	241647	20	0	-1	240148	241647	241646	0		TrialProc1	right	0		0	10	241957	-241957		0	0	TrialList1	target_both.png	0	dl	-1	3	241697	260	d	677	242374												10	1	67				comp			450
1 ver1_main_procedure	39	1	27	<?xml version="1.0"?>\n<Clock xmlns:dt="urn:schemas-microsoft-com:datatypes"><Description dt:dt="string">E-Prime Primary Realtime Clock</Description><StartTime><Timestamp dt:dt="int">0</Timestamp><DateUtc dt:dt="string">2015-08-21T15:26:51Z</DateUtc></StartTime><FrequencyChanges><FrequencyChange><Frequency dt:dt="r8">2612285</Frequency><Timestamp dt:dt="r8">17124860029</Timestamp><Current dt:dt="r8">0</Current><DateUtc dt:dt="string">2015-08-21T15:26:51Z</DateUtc></FrequencyChange></FrequencyChanges></Clock>\n	1 ver1_main_procedure-39-1	99.921	1.0.0.880	1	ad	-54491760	prawa	1	2.0.10.182	08-21-2015	2015-08-21 15:26:52	17:26:52	kobieta	2.0.10.92	3	1	1	1																							d	{SPACE}		no	BlockProc1		BlockList									68	Cued	l	color_purple.png		-1	8	245159	160																			1					75	prime_left.png	1	244659	0	0	13	1	244659	1	244659	0	244658	21	0	-1	243159	244658	244658	0	prime_left.png	TrialProc1	right	0		0	10	244969	-244969		0	0	TrialList1	target_right.png	1	l	-1	3	244709	260	l	441	245150												5	1	68				neut			150
1 ver1_main_procedure	39	1	27	<?xml version="1.0"?>\n<Clock xmlns:dt="urn:schemas-microsoft-com:datatypes"><Description dt:dt="string">E-Prime Primary Realtime Clock</Description><StartTime><Timestamp dt:dt="int">0</Timestamp><DateUtc dt:dt="string">2015-08-21T15:26:51Z</DateUtc></StartTime><FrequencyChanges><FrequencyChange><Frequency dt:dt="r8">2612285</Frequency><Timestamp dt:dt="r8">17124860029</Timestamp><Current dt:dt="r8">0</Current><DateUtc dt:dt="string">2015-08-21T15:26:51Z</DateUtc></FrequencyChange></FrequencyChanges></Clock>\n	1 ver1_main_procedure-39-1	99.921	1.0.0.880	1	ad	-54491760	prawa	1	2.0.10.182	08-21-2015	2015-08-21 15:26:52	17:26:52	kobieta	2.0.10.92	3	1	1	1																							d	{SPACE}		no	BlockProc1		BlockList									69	Cued	l	color_green.png		-1	11	247690	311																								75	prime_left.png	0	247130	0	0	13	0	247130	0	247130	1	247130	20	0	-1	245631	247130	247129	0		TrialProc1	right	0		0	10	247440	-247440		0	0	TrialList1	target_right.png	1	l	-1	3	247180	260	l	498	247678												6	1	69				incomp			300
1 ver1_main_procedure	39	1	27	<?xml version="1.0"?>\n<Clock xmlns:dt="urn:schemas-microsoft-com:datatypes"><Description dt:dt="string">E-Prime Primary Realtime Clock</Description><StartTime><Timestamp dt:dt="int">0</Timestamp><DateUtc dt:dt="string">2015-08-21T15:26:51Z</DateUtc></StartTime><FrequencyChanges><FrequencyChange><Frequency dt:dt="r8">2612285</Frequency><Timestamp dt:dt="r8">17124860029</Timestamp><Current dt:dt="r8">0</Current><DateUtc dt:dt="string">2015-08-21T15:26:51Z</DateUtc></FrequencyChange></FrequencyChanges></Clock>\n	1 ver1_main_procedure-39-1	99.921	1.0.0.880	1	ad	-54491760	prawa	1	2.0.10.182	08-21-2015	2015-08-21 15:26:52	17:26:52	kobieta	2.0.10.92	3	1	1	1																							d	{SPACE}		no	BlockProc1		BlockList									70	Cued	l	color_green.png		-1	7	250382	460																								25	prime_left.png	0	249812	0	0	13	0	249812	0	249812	1	249812	20	0	-1	248312	249812	249811	0		TrialProc1	right	0		0	10	250122	-250122		0	0	TrialList1	target_right.png	1	l	-1	3	249862	260	l	513	250375												6	1	70				incomp			450
1 ver1_main_procedure	39	1	27	<?xml version="1.0"?>\n<Clock xmlns:dt="urn:schemas-microsoft-com:datatypes"><Description dt:dt="string">E-Prime Primary Realtime Clock</Description><StartTime><Timestamp dt:dt="int">0</Timestamp><DateUtc dt:dt="string">2015-08-21T15:26:51Z</DateUtc></StartTime><FrequencyChanges><FrequencyChange><Frequency dt:dt="r8">2612285</Frequency><Timestamp dt:dt="r8">17124860029</Timestamp><Current dt:dt="r8">0</Current><DateUtc dt:dt="string">2015-08-21T15:26:51Z</DateUtc></FrequencyChange></FrequencyChanges></Clock>\n	1 ver1_main_procedure-39-1	99.921	1.0.0.880	1	ad	-54491760	prawa	1	2.0.10.182	08-21-2015	2015-08-21 15:26:52	17:26:52	kobieta	2.0.10.92	3	1	1	1																							d	{SPACE}		no	BlockProc1		BlockList									71	Cued	d	color_blue.png		-1	11	253274	160																								25	prime_right.png	0	252653	0	0	13	0	252653	0	252653	1	252653	20	0	-1	251154	252653	252652	0		TrialProc1	left	0		1	10	252963	-252963		0	0	TrialList1	target_left.png	1	d	-1	3	252703	260	d	560	253263												3	1	71				incomp			150
1 ver1_main_procedure	39	1	27	<?xml version="1.0"?>\n<Clock xmlns:dt="urn:schemas-microsoft-com:datatypes"><Description dt:dt="string">E-Prime Primary Realtime Clock</Description><StartTime><Timestamp dt:dt="int">0</Timestamp><DateUtc dt:dt="string">2015-08-21T15:26:51Z</DateUtc></StartTime><FrequencyChanges><FrequencyChange><Frequency dt:dt="r8">2612285</Frequency><Timestamp dt:dt="r8">17124860029</Timestamp><Current dt:dt="r8">0</Current><DateUtc dt:dt="string">2015-08-21T15:26:51Z</DateUtc></FrequencyChange></FrequencyChanges></Clock>\n	1 ver1_main_procedure-39-1	99.921	1.0.0.880	1	ad	-54491760	prawa	1	2.0.10.182	08-21-2015	2015-08-21 15:26:52	17:26:52	kobieta	2.0.10.92	3	1	1	1																							d	{SPACE}		no	BlockProc1		BlockList									72	Cued	d	color_red.png		-1	10	255905	461																			2					25	prime_right.png	0	255245	0	0	13	0	255245	0	255245	1	255245	20	0	-1	253746	255245	255244	0	prime_right.png	TrialProc1	left	0		0	10	255555	-255555		0	0	TrialList1	target_left.png	1	d	-1	3	255295	260	d	600	255895												2	1	72				neut			450
1 ver1_main_procedure	39	1	27	<?xml version="1.0"?>\n<Clock xmlns:dt="urn:schemas-microsoft-com:datatypes"><Description dt:dt="string">E-Prime Primary Realtime Clock</Description><StartTime><Timestamp dt:dt="int">0</Timestamp><DateUtc dt:dt="string">2015-08-21T15:26:51Z</DateUtc></StartTime><FrequencyChanges><FrequencyChange><Frequency dt:dt="r8">2612285</Frequency><Timestamp dt:dt="r8">17124860029</Timestamp><Current dt:dt="r8">0</Current><DateUtc dt:dt="string">2015-08-21T15:26:51Z</DateUtc></FrequencyChange></FrequencyChanges></Clock>\n	1 ver1_main_procedure-39-1	99.921	1.0.0.880	1	ad	-54491760	prawa	1	2.0.10.182	08-21-2015	2015-08-21 15:26:52	17:26:52	kobieta	2.0.10.92	3	1	1	1																							d	{SPACE}		no	BlockProc1		BlockList									73									1	6	5	2	4	3	color_yellow.png	color_orange.png	color_green.png	color_purple.png	color_red.png	color_blue.png	color_yellow.png	color_purple.png	color_blue.png	color_red.png	color_green.png	color_orange.png		1	1	1	19390																						DragProc											Ocena																															
1 ver1_main_procedure	39	1	27	<?xml version="1.0"?>\n<Clock xmlns:dt="urn:schemas-microsoft-com:datatypes"><Description dt:dt="string">E-Prime Primary Realtime Clock</Description><StartTime><Timestamp dt:dt="int">0</Timestamp><DateUtc dt:dt="string">2015-08-21T15:26:51Z</DateUtc></StartTime><FrequencyChanges><FrequencyChange><Frequency dt:dt="r8">2612285</Frequency><Timestamp dt:dt="r8">17124860029</Timestamp><Current dt:dt="r8">0</Current><DateUtc dt:dt="string">2015-08-21T15:26:51Z</DateUtc></FrequencyChange></FrequencyChanges></Clock>\n	1 ver1_main_procedure-39-1	99.921	1.0.0.880	1	ad	-54491760	prawa	1	2.0.10.182	08-21-2015	2015-08-21 15:26:52	17:26:52	kobieta	2.0.10.92	3	1	1	1																							d	{SPACE}		no	BlockProc1		BlockList									74															color_yellow.png	color_orange.png	color_green.png	color_purple.png	color_red.png	color_blue.png								2	1	2																							EnterProc											Ocena												1	11	56	67	78	87														
1 ver1_main_procedure	39	1	27	<?xml version="1.0"?>\n<Clock xmlns:dt="urn:schemas-microsoft-com:datatypes"><Description dt:dt="string">E-Prime Primary Realtime Clock</Description><StartTime><Timestamp dt:dt="int">0</Timestamp><DateUtc dt:dt="string">2015-08-21T15:26:51Z</DateUtc></StartTime><FrequencyChanges><FrequencyChange><Frequency dt:dt="r8">2612285</Frequency><Timestamp dt:dt="r8">17124860029</Timestamp><Current dt:dt="r8">0</Current><DateUtc dt:dt="string">2015-08-21T15:26:51Z</DateUtc></FrequencyChange></FrequencyChanges></Clock>\n	1 ver1_main_procedure-39-1	99.921	1.0.0.880	1	ad	-54491760	prawa	1	2.0.10.182	08-21-2015	2015-08-21 15:26:52	17:26:52	kobieta	2.0.10.92	4	2	1	2																							d	{SPACE}		no	BlockProc1		BlockList									1	Cued	d	color_red.png		-1	7	320864	461																								25	prime_left.png	0	320184	0	0	13	0	320184	0	320184	1	320184	20	0	-1	318685	320184	320183	0		TrialProc1	left	0		0	10	320494	-320494		0	0	TrialList1	target_left.png	1	d	-1	3	320234	260	d	622	320856												1	2	73				comp			450
1 ver1_main_procedure	39	1	27	<?xml version="1.0"?>\n<Clock xmlns:dt="urn:schemas-microsoft-com:datatypes"><Description dt:dt="string">E-Prime Primary Realtime Clock</Description><StartTime><Timestamp dt:dt="int">0</Timestamp><DateUtc dt:dt="string">2015-08-21T15:26:51Z</DateUtc></StartTime><FrequencyChanges><FrequencyChange><Frequency dt:dt="r8">2612285</Frequency><Timestamp dt:dt="r8">17124860029</Timestamp><Current dt:dt="r8">0</Current><DateUtc dt:dt="string">2015-08-21T15:26:51Z</DateUtc></FrequencyChange></FrequencyChanges></Clock>\n	1 ver1_main_procedure-39-1	99.921	1.0.0.880	1	ad	-54491760	prawa	1	2.0.10.182	08-21-2015	2015-08-21 15:26:52	17:26:52	kobieta	2.0.10.92	4	2	1	2																							d	{SPACE}		no	BlockProc1		BlockList									2	Free	dl	color_yellow.png		-1	11	323876	160																								25	prime_right.png	0	323136	0	0	13	0	323136	0	323136	1	323136	20	0	-1	321637	323136	323135	0		TrialProc1	right	0		0	10	323446	-323446		0	0	TrialList1	target_both.png	0	dl	-1	3	323186	260	d	679	323865												10	2	74				comp			150
1 ver1_main_procedure	39	1	27	<?xml version="1.0"?>\n<Clock xmlns:dt="urn:schemas-microsoft-com:datatypes"><Description dt:dt="string">E-Prime Primary Realtime Clock</Description><StartTime><Timestamp dt:dt="int">0</Timestamp><DateUtc dt:dt="string">2015-08-21T15:26:51Z</DateUtc></StartTime><FrequencyChanges><FrequencyChange><Frequency dt:dt="r8">2612285</Frequency><Timestamp dt:dt="r8">17124860029</Timestamp><Current dt:dt="r8">0</Current><DateUtc dt:dt="string">2015-08-21T15:26:51Z</DateUtc></FrequencyChange></FrequencyChanges></Clock>\n	1 ver1_main_procedure-39-1	99.921	1.0.0.880	1	ad	-54491760	prawa	1	2.0.10.182	08-21-2015	2015-08-21 15:26:52	17:26:52	kobieta	2.0.10.92	4	2	1	2																							d	{SPACE}		no	BlockProc1		BlockList									3	Free	dl	color_purple.png		-1	7	326568	460																								75	prime_left.png	0	325847	0	0	13	1	325848	1	325848	0	325847	20	0	-1	324348	325847	325847	0		TrialProc1	left	0		0	11	326158	-326158		0	0	TrialList1	target_both.png	0	dl	-1	3	325897	261	l	664	326561												7	2	75				comp			450
1 ver1_main_procedure	39	1	27	<?xml version="1.0"?>\n<Clock xmlns:dt="urn:schemas-microsoft-com:datatypes"><Description dt:dt="string">E-Prime Primary Realtime Clock</Description><StartTime><Timestamp dt:dt="int">0</Timestamp><DateUtc dt:dt="string">2015-08-21T15:26:51Z</DateUtc></StartTime><FrequencyChanges><FrequencyChange><Frequency dt:dt="r8">2612285</Frequency><Timestamp dt:dt="r8">17124860029</Timestamp><Current dt:dt="r8">0</Current><DateUtc dt:dt="string">2015-08-21T15:26:51Z</DateUtc></FrequencyChange></FrequencyChanges></Clock>\n	1 ver1_main_procedure-39-1	99.921	1.0.0.880	1	ad	-54491760	prawa	1	2.0.10.182	08-21-2015	2015-08-21 15:26:52	17:26:52	kobieta	2.0.10.92	4	2	1	2																							d	{SPACE}		no	BlockProc1		BlockList									4	Cued	d	color_red.png		-1	9	329370	460																								75	prime_left.png	0	328839	0	0	13	0	328839	0	328839	1	328839	20	0	-1	327340	328839	328838	0		TrialProc1	left	0		1	10	329149	-329149		0	0	TrialList1	target_left.png	1	d	-1	3	328889	260	d	472	329361												1	2	76				comp			450
1 ver1_main_procedure	39	1	27	<?xml version="1.0"?>\n<Clock xmlns:dt="urn:schemas-microsoft-com:datatypes"><Description dt:dt="string">E-Prime Primary Realtime Clock</Description><StartTime><Timestamp dt:dt="int">0</Timestamp><DateUtc dt:dt="string">2015-08-21T15:26:51Z</DateUtc></StartTime><FrequencyChanges><FrequencyChange><Frequency dt:dt="r8">2612285</Frequency><Timestamp dt:dt="r8">17124860029</Timestamp><Current dt:dt="r8">0</Current><DateUtc dt:dt="string">2015-08-21T15:26:51Z</DateUtc></FrequencyChange></FrequencyChanges></Clock>\n	1 ver1_main_procedure-39-1	99.921	1.0.0.880	1	ad	-54491760	prawa	1	2.0.10.182	08-21-2015	2015-08-21 15:26:52	17:26:52	kobieta	2.0.10.92	4	2	1	2																							d	{SPACE}		no	BlockProc1		BlockList									5	Cued	d	color_yellow.png		-1	10	332131	310																								75	prime_right.png	0	331641	0	0	13	0	331641	0	331641	1	331641	20	0	-1	330142	331641	331640	0		TrialProc1	left	0		0	10	331951	-331951		0	0	TrialList1	target_left.png	1	d	-1	3	331691	260	d	430	332121												3	2	77				incomp			300
1 ver1_main_procedure	39	1	27	<?xml version="1.0"?>\n<Clock xmlns:dt="urn:schemas-microsoft-com:datatypes"><Description dt:dt="string">E-Prime Primary Realtime Clock</Description><StartTime><Timestamp dt:dt="int">0</Timestamp><DateUtc dt:dt="string">2015-08-21T15:26:51Z</DateUtc></StartTime><FrequencyChanges><FrequencyChange><Frequency dt:dt="r8">2612285</Frequency><Timestamp dt:dt="r8">17124860029</Timestamp><Current dt:dt="r8">0</Current><DateUtc dt:dt="string">2015-08-21T15:26:51Z</DateUtc></FrequencyChange></FrequencyChanges></Clock>\n	1 ver1_main_procedure-39-1	99.921	1.0.0.880	1	ad	-54491760	prawa	1	2.0.10.182	08-21-2015	2015-08-21 15:26:52	17:26:52	kobieta	2.0.10.92	4	2	1	2																							d	{SPACE}		no	BlockProc1		BlockList									6	Cued	d	color_orange.png		-1	8	334873	310																			1					25	prime_left.png	1	334253	0	0	13	1	334253	1	334253	0	334252	20	0	-1	332753	334252	334252	0	prime_left.png	TrialProc1	left	0		0	11	334563	-334563		0	0	TrialList1	target_left.png	1	d	-1	3	334302	261	d	563	334865												2	2	78				neut			300
1 ver1_main_procedure	39	1	27	<?xml version="1.0"?>\n<Clock xmlns:dt="urn:schemas-microsoft-com:datatypes"><Description dt:dt="string">E-Prime Primary Realtime Clock</Description><StartTime><Timestamp dt:dt="int">0</Timestamp><DateUtc dt:dt="string">2015-08-21T15:26:51Z</DateUtc></StartTime><FrequencyChanges><FrequencyChange><Frequency dt:dt="r8">2612285</Frequency><Timestamp dt:dt="r8">17124860029</Timestamp><Current dt:dt="r8">0</Current><DateUtc dt:dt="string">2015-08-21T15:26:51Z</DateUtc></FrequencyChange></FrequencyChanges></Clock>\n	1 ver1_main_procedure-39-1	99.921	1.0.0.880	1	ad	-54491760	prawa	1	2.0.10.182	08-21-2015	2015-08-21 15:26:52	17:26:52	kobieta	2.0.10.92	4	2	1	2																							d	{SPACE}		no	BlockProc1		BlockList									7	Cued	d	color_orange.png		-1	10	337484	461																			2					75	prime_right.png	0	336994	0	0	13	0	336994	0	336994	1	336994	20	0	-1	335495	336994	336993	0	prime_right.png	TrialProc1	left	0		0	10	337304	-337304		0	0	TrialList1	target_left.png	1	d	-1	3	337044	260	d	429	337473												2	2	79				neut			450
1 ver1_main_procedure	39	1	27	<?xml version="1.0"?>\n<Clock xmlns:dt="urn:schemas-microsoft-com:datatypes"><Description dt:dt="string">E-Prime Primary Realtime Clock</Description><StartTime><Timestamp dt:dt="int">0</Timestamp><DateUtc dt:dt="string">2015-08-21T15:26:51Z</DateUtc></StartTime><FrequencyChanges><FrequencyChange><Frequency dt:dt="r8">2612285</Frequency><Timestamp dt:dt="r8">17124860029</Timestamp><Current dt:dt="r8">0</Current><DateUtc dt:dt="string">2015-08-21T15:26:51Z</DateUtc></FrequencyChange></FrequencyChanges></Clock>\n	1 ver1_main_procedure-39-1	99.921	1.0.0.880	1	ad	-54491760	prawa	1	2.0.10.182	08-21-2015	2015-08-21 15:26:52	17:26:52	kobieta	2.0.10.92	4	2	1	2																							d	{SPACE}		no	BlockProc1		BlockList									8	Cued	l	color_purple.png		-1	14	340416	460																								75	prime_left.png	0	339756	0	0	13	0	339756	0	339756	1	339756	20	0	-1	338256	339756	339755	0		TrialProc1	right	0		0	10	340066	-340066		0	0	TrialList1	target_right.png	1	l	-1	3	339806	260	l	595	340401												6	2	80				incomp			450
1 ver1_main_procedure	39	1	27	<?xml version="1.0"?>\n<Clock xmlns:dt="urn:schemas-microsoft-com:datatypes"><Description dt:dt="string">E-Prime Primary Realtime Clock</Description><StartTime><Timestamp dt:dt="int">0</Timestamp><DateUtc dt:dt="string">2015-08-21T15:26:51Z</DateUtc></StartTime><FrequencyChanges><FrequencyChange><Frequency dt:dt="r8">2612285</Frequency><Timestamp dt:dt="r8">17124860029</Timestamp><Current dt:dt="r8">0</Current><DateUtc dt:dt="string">2015-08-21T15:26:51Z</DateUtc></FrequencyChange></FrequencyChanges></Clock>\n	1 ver1_main_procedure-39-1	99.921	1.0.0.880	1	ad	-54491760	prawa	1	2.0.10.182	08-21-2015	2015-08-21 15:26:52	17:26:52	kobieta	2.0.10.92	4	2	1	2																							d	{SPACE}		no	BlockProc1		BlockList									9	Cued	d	color_red.png		-1	6	343288	310																								75	prime_left.png	0	342688	0	0	13	0	342688	0	342688	1	342688	20	0	-1	341188	342688	342687	0		TrialProc1	left	0		0	10	342998	-342998		0	0	TrialList1	target_left.png	1	d	-1	3	342738	260	d	543	343281												1	2	81				comp			300
1 ver1_main_procedure	39	1	27	<?xml version="1.0"?>\n<Clock xmlns:dt="urn:schemas-microsoft-com:datatypes"><Description dt:dt="string">E-Prime Primary Realtime Clock</Description><StartTime><Timestamp dt:dt="int">0</Timestamp><DateUtc dt:dt="string">2015-08-21T15:26:51Z</DateUtc></StartTime><FrequencyChanges><FrequencyChange><Frequency dt:dt="r8">2612285</Frequency><Timestamp dt:dt="r8">17124860029</Timestamp><Current dt:dt="r8">0</Current><DateUtc dt:dt="string">2015-08-21T15:26:51Z</DateUtc></FrequencyChange></FrequencyChanges></Clock>\n	1 ver1_main_procedure-39-1	99.921	1.0.0.880	1	ad	-54491760	prawa	1	2.0.10.182	08-21-2015	2015-08-21 15:26:52	17:26:52	kobieta	2.0.10.92	4	2	1	2																							d	{SPACE}		no	BlockProc1		BlockList									10	Cued	d	color_red.png		-1	11	345909	461																								25	prime_left.png	0	345409	0	0	13	0	345409	0	345409	1	345409	20	0	-1	343910	345409	345408	0		TrialProc1	left	0		0	10	345719	-345719		0	0	TrialList1	target_left.png	1	d	-1	3	345459	260	d	438	345897												1	2	82				comp			450
