ExperimentName	Subject	Session	Age	Clock.Information	DataFile.Basename	Display.RefreshRate	ExperimentVersion	Group	Name	RandomSeed	Recznosc	ResearcherID	RuntimeVersion	SessionDate	SessionStartDateTimeUtc	SessionTime	Sex	StudioVersion	Block	BlockList	BlockList.Cycle	BlockList.Sample	BlockNumber	GoodBye.RESP	GoodBye2.RESP	GoodByeList	GoodByeList.Cycle	GoodByeList.Sample	InstrList	InstrList.Cycle	InstrList.Sample	Instructions3.RESP	Instructions4.RESP	Instructions5.RESP	kobieta_S1	kobieta_S2	kobieta_S3	kobieta_S4	kobieta_S5	mezczyzna_S1	mezczyzna_S2	mezczyzna_S3	mezczyzna_S4	mezczyzna_S5	NextBlock.RESP	NextBlock0.RESP	planowanie	PracticeMode	Procedure[Block]	proszenie	Running[Block]	TrainingList	TrainingList.Cycle	TrainingList.Sample	WordList	WordList1	wykonanie	zauwazenie	zrozumienie	Trial	ChoiceType	CorrectRespon	Effect	ErrorText	Fixation2.DurationError	Fixation2.OnsetDelay	Fixation2.OnsetTime	Fixation2.OnsetToOnsetTime	GoalRespInd1	GoalRespInd2	GoalRespInd3	GoalRespInd4	GoalRespInd5	GoalRespInd6	GoalRespName1	GoalRespName2	GoalRespName3	GoalRespName4	GoalRespName5	GoalRespName6	kol1	kol2	kol3	kol4	kol5	kol6	NeutralPrimeList1	Ocena	Ocena.Cycle	Ocena.Sample	OverallRT	Posit	Prime	Prime.ActionDelay	Prime.ActionTime	Prime.CustomOffsetTime	Prime.CustomOnsetTime	Prime.Duration	Prime.DurationError	Prime.FinishTime	Prime.OffsetDelay	Prime.OffsetTime	Prime.OnsetDelay	Prime.OnsetTime	Prime.OnsetToOnsetTime	Prime.PendingInputMasks	Prime.PreRelease	Prime.StartTime	Prime.TargetOffsetTime	Prime.TargetOnsetTime	Prime.TimingMode	PrimeChoice	Procedure[Trial]	Resp	RespWin.ACC	RespWin.CRESP	RespWin.DurationError	RespWin.OnsetDelay	RespWin.OnsetTime	RespWin.OnsetToOnsetTime	RespWin.RESP	RespWin.RT	RespWin.RTTime	Running[Trial]	Target	TargetSlide.ACC	TargetSlide.CRESP	TargetSlide.DurationError	TargetSlide.OnsetDelay	TargetSlide.OnsetTime	TargetSlide.OnsetToOnsetTime	TargetSlide.RESP	TargetSlide.RT	TargetSlide.RTTime	TargetTraining	TBox1	TBox2	TBox3	TBox4	TBox5	TBox6	TrainingList1	TrainingList1.Cycle	TrainingList1.Sample	TrCorrectResp	TrialList1	TrialList1.Cycle	TrialList1.Sample	TrialList2	TrialList2.Cycle	TrialList2.Sample	TrialType	TrPosit	TrWaitTime	WaitTime
1 ver1_main_procedure	41	1	22	<?xml version="1.0"?>\n<Clock xmlns:dt="urn:schemas-microsoft-com:datatypes"><Description dt:dt="string">E-Prime Primary Realtime Clock</Description><StartTime><Timestamp dt:dt="int">0</Timestamp><DateUtc dt:dt="string">2015-08-21T16:13:39Z</DateUtc></StartTime><FrequencyChanges><FrequencyChange><Frequency dt:dt="r8">2612324</Frequency><Timestamp dt:dt="r8">256273194</Timestamp><Current dt:dt="r8">0</Current><DateUtc dt:dt="string">2015-08-21T16:13:39Z</DateUtc></FrequencyChange></FrequencyChanges></Clock>\n	1 ver1_main_procedure-41-1	99.940	1.0.0.880	1	kk	256765563	prawa	1	2.0.10.182	08-21-2015	2015-08-21 16:13:39	18:13:39	mezczyzna	2.0.10.92	1										1	1	1	{SPACE}	{SPACE}	l	poproszona	planowała	zrozumiałaś	wykonała		poproszony	planował	zrozumiałeś	wykonał				planował		InstrProc	poproszony	InstrList				1		wykonał		zrozumiałeś																																																																																																
1 ver1_main_procedure	41	1	22	<?xml version="1.0"?>\n<Clock xmlns:dt="urn:schemas-microsoft-com:datatypes"><Description dt:dt="string">E-Prime Primary Realtime Clock</Description><StartTime><Timestamp dt:dt="int">0</Timestamp><DateUtc dt:dt="string">2015-08-21T16:13:39Z</DateUtc></StartTime><FrequencyChanges><FrequencyChange><Frequency dt:dt="r8">2612324</Frequency><Timestamp dt:dt="r8">256273194</Timestamp><Current dt:dt="r8">0</Current><DateUtc dt:dt="string">2015-08-21T16:13:39Z</DateUtc></FrequencyChange></FrequencyChanges></Clock>\n	1 ver1_main_procedure-41-1	99.940	1.0.0.880	1	kk	256765563	prawa	1	2.0.10.182	08-21-2015	2015-08-21 16:13:39	18:13:39	mezczyzna	2.0.10.92	2																														TrainingProc1		TrainingList	1	1	1						1																																																					TrainProc											TrainingList1											target_left.png							1	1	1	d								25	150	
1 ver1_main_procedure	41	1	22	<?xml version="1.0"?>\n<Clock xmlns:dt="urn:schemas-microsoft-com:datatypes"><Description dt:dt="string">E-Prime Primary Realtime Clock</Description><StartTime><Timestamp dt:dt="int">0</Timestamp><DateUtc dt:dt="string">2015-08-21T16:13:39Z</DateUtc></StartTime><FrequencyChanges><FrequencyChange><Frequency dt:dt="r8">2612324</Frequency><Timestamp dt:dt="r8">256273194</Timestamp><Current dt:dt="r8">0</Current><DateUtc dt:dt="string">2015-08-21T16:13:39Z</DateUtc></FrequencyChange></FrequencyChanges></Clock>\n	1 ver1_main_procedure-41-1	99.940	1.0.0.880	1	kk	256765563	prawa	1	2.0.10.182	08-21-2015	2015-08-21 16:13:39	18:13:39	mezczyzna	2.0.10.92	2																														TrainingProc1		TrainingList	1	1	1						2																																																					TrainProc											TrainingList1											target_left.png							1	1	2	d								75	450	
1 ver1_main_procedure	41	1	22	<?xml version="1.0"?>\n<Clock xmlns:dt="urn:schemas-microsoft-com:datatypes"><Description dt:dt="string">E-Prime Primary Realtime Clock</Description><StartTime><Timestamp dt:dt="int">0</Timestamp><DateUtc dt:dt="string">2015-08-21T16:13:39Z</DateUtc></StartTime><FrequencyChanges><FrequencyChange><Frequency dt:dt="r8">2612324</Frequency><Timestamp dt:dt="r8">256273194</Timestamp><Current dt:dt="r8">0</Current><DateUtc dt:dt="string">2015-08-21T16:13:39Z</DateUtc></FrequencyChange></FrequencyChanges></Clock>\n	1 ver1_main_procedure-41-1	99.940	1.0.0.880	1	kk	256765563	prawa	1	2.0.10.182	08-21-2015	2015-08-21 16:13:39	18:13:39	mezczyzna	2.0.10.92	2																														TrainingProc1		TrainingList	1	1	1						3																																																					TrainProc											TrainingList1											target_both.png							3	1	3	dl								25	300	
1 ver1_main_procedure	41	1	22	<?xml version="1.0"?>\n<Clock xmlns:dt="urn:schemas-microsoft-com:datatypes"><Description dt:dt="string">E-Prime Primary Realtime Clock</Description><StartTime><Timestamp dt:dt="int">0</Timestamp><DateUtc dt:dt="string">2015-08-21T16:13:39Z</DateUtc></StartTime><FrequencyChanges><FrequencyChange><Frequency dt:dt="r8">2612324</Frequency><Timestamp dt:dt="r8">256273194</Timestamp><Current dt:dt="r8">0</Current><DateUtc dt:dt="string">2015-08-21T16:13:39Z</DateUtc></FrequencyChange></FrequencyChanges></Clock>\n	1 ver1_main_procedure-41-1	99.940	1.0.0.880	1	kk	256765563	prawa	1	2.0.10.182	08-21-2015	2015-08-21 16:13:39	18:13:39	mezczyzna	2.0.10.92	2																														TrainingProc1		TrainingList	1	1	1						4																																																					TrainProc											TrainingList1											target_right.png							2	1	4	l								75	450	
1 ver1_main_procedure	41	1	22	<?xml version="1.0"?>\n<Clock xmlns:dt="urn:schemas-microsoft-com:datatypes"><Description dt:dt="string">E-Prime Primary Realtime Clock</Description><StartTime><Timestamp dt:dt="int">0</Timestamp><DateUtc dt:dt="string">2015-08-21T16:13:39Z</DateUtc></StartTime><FrequencyChanges><FrequencyChange><Frequency dt:dt="r8">2612324</Frequency><Timestamp dt:dt="r8">256273194</Timestamp><Current dt:dt="r8">0</Current><DateUtc dt:dt="string">2015-08-21T16:13:39Z</DateUtc></FrequencyChange></FrequencyChanges></Clock>\n	1 ver1_main_procedure-41-1	99.940	1.0.0.880	1	kk	256765563	prawa	1	2.0.10.182	08-21-2015	2015-08-21 16:13:39	18:13:39	mezczyzna	2.0.10.92	2																														TrainingProc1		TrainingList	1	1	1						5																																																					TrainProc											TrainingList1											target_right.png							2	1	5	l								25	450	
1 ver1_main_procedure	41	1	22	<?xml version="1.0"?>\n<Clock xmlns:dt="urn:schemas-microsoft-com:datatypes"><Description dt:dt="string">E-Prime Primary Realtime Clock</Description><StartTime><Timestamp dt:dt="int">0</Timestamp><DateUtc dt:dt="string">2015-08-21T16:13:39Z</DateUtc></StartTime><FrequencyChanges><FrequencyChange><Frequency dt:dt="r8">2612324</Frequency><Timestamp dt:dt="r8">256273194</Timestamp><Current dt:dt="r8">0</Current><DateUtc dt:dt="string">2015-08-21T16:13:39Z</DateUtc></FrequencyChange></FrequencyChanges></Clock>\n	1 ver1_main_procedure-41-1	99.940	1.0.0.880	1	kk	256765563	prawa	1	2.0.10.182	08-21-2015	2015-08-21 16:13:39	18:13:39	mezczyzna	2.0.10.92	2																														TrainingProc1		TrainingList	1	1	1						6																																																					TrainProc											TrainingList1											target_left.png							1	1	6	d								25	450	
1 ver1_main_procedure	41	1	22	<?xml version="1.0"?>\n<Clock xmlns:dt="urn:schemas-microsoft-com:datatypes"><Description dt:dt="string">E-Prime Primary Realtime Clock</Description><StartTime><Timestamp dt:dt="int">0</Timestamp><DateUtc dt:dt="string">2015-08-21T16:13:39Z</DateUtc></StartTime><FrequencyChanges><FrequencyChange><Frequency dt:dt="r8">2612324</Frequency><Timestamp dt:dt="r8">256273194</Timestamp><Current dt:dt="r8">0</Current><DateUtc dt:dt="string">2015-08-21T16:13:39Z</DateUtc></FrequencyChange></FrequencyChanges></Clock>\n	1 ver1_main_procedure-41-1	99.940	1.0.0.880	1	kk	256765563	prawa	1	2.0.10.182	08-21-2015	2015-08-21 16:13:39	18:13:39	mezczyzna	2.0.10.92	2																														TrainingProc1		TrainingList	1	1	1						7																																																					TrainProc											TrainingList1											target_both.png							3	1	7	dl								75	450	
1 ver1_main_procedure	41	1	22	<?xml version="1.0"?>\n<Clock xmlns:dt="urn:schemas-microsoft-com:datatypes"><Description dt:dt="string">E-Prime Primary Realtime Clock</Description><StartTime><Timestamp dt:dt="int">0</Timestamp><DateUtc dt:dt="string">2015-08-21T16:13:39Z</DateUtc></StartTime><FrequencyChanges><FrequencyChange><Frequency dt:dt="r8">2612324</Frequency><Timestamp dt:dt="r8">256273194</Timestamp><Current dt:dt="r8">0</Current><DateUtc dt:dt="string">2015-08-21T16:13:39Z</DateUtc></FrequencyChange></FrequencyChanges></Clock>\n	1 ver1_main_procedure-41-1	99.940	1.0.0.880	1	kk	256765563	prawa	1	2.0.10.182	08-21-2015	2015-08-21 16:13:39	18:13:39	mezczyzna	2.0.10.92	2																														TrainingProc1		TrainingList	1	1	1						8																																																					TrainProc											TrainingList1											target_both.png							3	1	8	dl								75	450	
1 ver1_main_procedure	41	1	22	<?xml version="1.0"?>\n<Clock xmlns:dt="urn:schemas-microsoft-com:datatypes"><Description dt:dt="string">E-Prime Primary Realtime Clock</Description><StartTime><Timestamp dt:dt="int">0</Timestamp><DateUtc dt:dt="string">2015-08-21T16:13:39Z</DateUtc></StartTime><FrequencyChanges><FrequencyChange><Frequency dt:dt="r8">2612324</Frequency><Timestamp dt:dt="r8">256273194</Timestamp><Current dt:dt="r8">0</Current><DateUtc dt:dt="string">2015-08-21T16:13:39Z</DateUtc></FrequencyChange></FrequencyChanges></Clock>\n	1 ver1_main_procedure-41-1	99.940	1.0.0.880	1	kk	256765563	prawa	1	2.0.10.182	08-21-2015	2015-08-21 16:13:39	18:13:39	mezczyzna	2.0.10.92	2																														TrainingProc1		TrainingList	1	1	1						9																																																					TrainProc											TrainingList1											target_right.png							2	1	9	l								25	450	
1 ver1_main_procedure	41	1	22	<?xml version="1.0"?>\n<Clock xmlns:dt="urn:schemas-microsoft-com:datatypes"><Description dt:dt="string">E-Prime Primary Realtime Clock</Description><StartTime><Timestamp dt:dt="int">0</Timestamp><DateUtc dt:dt="string">2015-08-21T16:13:39Z</DateUtc></StartTime><FrequencyChanges><FrequencyChange><Frequency dt:dt="r8">2612324</Frequency><Timestamp dt:dt="r8">256273194</Timestamp><Current dt:dt="r8">0</Current><DateUtc dt:dt="string">2015-08-21T16:13:39Z</DateUtc></FrequencyChange></FrequencyChanges></Clock>\n	1 ver1_main_procedure-41-1	99.940	1.0.0.880	1	kk	256765563	prawa	1	2.0.10.182	08-21-2015	2015-08-21 16:13:39	18:13:39	mezczyzna	2.0.10.92	3	6	1	1																							l	{SPACE}		no	BlockProc2		BlockList									1	Free	dl	color_red.png		-1	11	88627	350																								75	prime_left.png	0	88197	0	0	13	0	88197	0	88197	1	88197	20	0	-1	86698	88197	88196	0		TrialProc1	right	0		0	20	88517	-88517		0	0	TrialList2	target_both.png	0	dl	-1	3	88247	270	l	367	88614															12	1	1	incomp			300
1 ver1_main_procedure	41	1	22	<?xml version="1.0"?>\n<Clock xmlns:dt="urn:schemas-microsoft-com:datatypes"><Description dt:dt="string">E-Prime Primary Realtime Clock</Description><StartTime><Timestamp dt:dt="int">0</Timestamp><DateUtc dt:dt="string">2015-08-21T16:13:39Z</DateUtc></StartTime><FrequencyChanges><FrequencyChange><Frequency dt:dt="r8">2612324</Frequency><Timestamp dt:dt="r8">256273194</Timestamp><Current dt:dt="r8">0</Current><DateUtc dt:dt="string">2015-08-21T16:13:39Z</DateUtc></FrequencyChange></FrequencyChanges></Clock>\n	1 ver1_main_procedure-41-1	99.940	1.0.0.880	1	kk	256765563	prawa	1	2.0.10.182	08-21-2015	2015-08-21 16:13:39	18:13:39	mezczyzna	2.0.10.92	3	6	1	1																							l	{SPACE}		no	BlockProc2		BlockList									2	Free	dl	color_purple.png		-1	14	91189	480																								75	prime_left.png	0	90788	0	0	13	0	90789	0	90788	1	90788	20	0	-1	89290	90788	90787	0		TrialProc1	right	0		0	11	91099	-91099		0	0	TrialList2	target_both.png	0	dl	-1	3	90838	261	d	336	91174															12	1	2	incomp			450
1 ver1_main_procedure	41	1	22	<?xml version="1.0"?>\n<Clock xmlns:dt="urn:schemas-microsoft-com:datatypes"><Description dt:dt="string">E-Prime Primary Realtime Clock</Description><StartTime><Timestamp dt:dt="int">0</Timestamp><DateUtc dt:dt="string">2015-08-21T16:13:39Z</DateUtc></StartTime><FrequencyChanges><FrequencyChange><Frequency dt:dt="r8">2612324</Frequency><Timestamp dt:dt="r8">256273194</Timestamp><Current dt:dt="r8">0</Current><DateUtc dt:dt="string">2015-08-21T16:13:39Z</DateUtc></FrequencyChange></FrequencyChanges></Clock>\n	1 ver1_main_procedure-41-1	99.940	1.0.0.880	1	kk	256765563	prawa	1	2.0.10.182	08-21-2015	2015-08-21 16:13:39	18:13:39	mezczyzna	2.0.10.92	3	6	1	1																							l	{SPACE}		no	BlockProc2		BlockList									3	Cued	l	color_orange.png		-1	13	93940	331																			2					75	prime_right.png	0	93480	0	0	13	0	93480	0	93480	1	93480	20	0	-1	91981	93480	93479	0	prime_right.png	TrialProc1	right	0		0	10	93790	-93790		0	0	TrialList2	target_right.png	1	l	-1	3	93530	260	l	396	93926															5	1	3	neut			300
1 ver1_main_procedure	41	1	22	<?xml version="1.0"?>\n<Clock xmlns:dt="urn:schemas-microsoft-com:datatypes"><Description dt:dt="string">E-Prime Primary Realtime Clock</Description><StartTime><Timestamp dt:dt="int">0</Timestamp><DateUtc dt:dt="string">2015-08-21T16:13:39Z</DateUtc></StartTime><FrequencyChanges><FrequencyChange><Frequency dt:dt="r8">2612324</Frequency><Timestamp dt:dt="r8">256273194</Timestamp><Current dt:dt="r8">0</Current><DateUtc dt:dt="string">2015-08-21T16:13:39Z</DateUtc></FrequencyChange></FrequencyChanges></Clock>\n	1 ver1_main_procedure-41-1	99.940	1.0.0.880	1	kk	256765563	prawa	1	2.0.10.182	08-21-2015	2015-08-21 16:13:39	18:13:39	mezczyzna	2.0.10.92	3	6	1	1																							l	{SPACE}		no	BlockProc2		BlockList									4	Free	dl	color_blue.png		-1	11	96522	180																								25	prime_right.png	1	96082	0	0	13	1	96082	1	96082	0	96081	20	0	-1	94582	96081	96081	0		TrialProc1	left	0		0	11	96392	-96392		0	0	TrialList2	target_both.png	0	dl	-1	3	96131	261	l	379	96510															9	1	4	incomp			150
1 ver1_main_procedure	41	1	22	<?xml version="1.0"?>\n<Clock xmlns:dt="urn:schemas-microsoft-com:datatypes"><Description dt:dt="string">E-Prime Primary Realtime Clock</Description><StartTime><Timestamp dt:dt="int">0</Timestamp><DateUtc dt:dt="string">2015-08-21T16:13:39Z</DateUtc></StartTime><FrequencyChanges><FrequencyChange><Frequency dt:dt="r8">2612324</Frequency><Timestamp dt:dt="r8">256273194</Timestamp><Current dt:dt="r8">0</Current><DateUtc dt:dt="string">2015-08-21T16:13:39Z</DateUtc></FrequencyChange></FrequencyChanges></Clock>\n	1 ver1_main_procedure-41-1	99.940	1.0.0.880	1	kk	256765563	prawa	1	2.0.10.182	08-21-2015	2015-08-21 16:13:39	18:13:39	mezczyzna	2.0.10.92	3	6	1	1																							l	{SPACE}		no	BlockProc2		BlockList									5	Free	dl	color_purple.png		-1	8	98863	310																								25	prime_left.png	0	98513	0	0	13	0	98513	0	98513	1	98513	20	0	-1	97014	98513	98512	0		TrialProc1	right	0		0	10	98823	-98823		0	0	TrialList2	target_both.png	0	dl	-1	3	98563	260	d	291	98854															12	1	5	incomp			300
1 ver1_main_procedure	41	1	22	<?xml version="1.0"?>\n<Clock xmlns:dt="urn:schemas-microsoft-com:datatypes"><Description dt:dt="string">E-Prime Primary Realtime Clock</Description><StartTime><Timestamp dt:dt="int">0</Timestamp><DateUtc dt:dt="string">2015-08-21T16:13:39Z</DateUtc></StartTime><FrequencyChanges><FrequencyChange><Frequency dt:dt="r8">2612324</Frequency><Timestamp dt:dt="r8">256273194</Timestamp><Current dt:dt="r8">0</Current><DateUtc dt:dt="string">2015-08-21T16:13:39Z</DateUtc></FrequencyChange></FrequencyChanges></Clock>\n	1 ver1_main_procedure-41-1	99.940	1.0.0.880	1	kk	256765563	prawa	1	2.0.10.182	08-21-2015	2015-08-21 16:13:39	18:13:39	mezczyzna	2.0.10.92	3	6	1	1																							l	{SPACE}		no	BlockProc2		BlockList									6	Cued	l	color_red.png		-1	14	101405	160																								25	prime_left.png	0	100984	0	0	13	1	100985	1	100985	1	100984	20	0	-1	99485	100984	100983	0		TrialProc1	right	0		0	11	101295	-101295		0	0	TrialList2	target_right.png	1	l	-1	3	101034	261	l	356	101390															6	1	6	incomp			150
1 ver1_main_procedure	41	1	22	<?xml version="1.0"?>\n<Clock xmlns:dt="urn:schemas-microsoft-com:datatypes"><Description dt:dt="string">E-Prime Primary Realtime Clock</Description><StartTime><Timestamp dt:dt="int">0</Timestamp><DateUtc dt:dt="string">2015-08-21T16:13:39Z</DateUtc></StartTime><FrequencyChanges><FrequencyChange><Frequency dt:dt="r8">2612324</Frequency><Timestamp dt:dt="r8">256273194</Timestamp><Current dt:dt="r8">0</Current><DateUtc dt:dt="string">2015-08-21T16:13:39Z</DateUtc></FrequencyChange></FrequencyChanges></Clock>\n	1 ver1_main_procedure-41-1	99.940	1.0.0.880	1	kk	256765563	prawa	1	2.0.10.182	08-21-2015	2015-08-21 16:13:39	18:13:39	mezczyzna	2.0.10.92	3	6	1	1																							l	{SPACE}		no	BlockProc2		BlockList									7	Free	dl	color_yellow.png		-1	7	103806	170																								25	prime_right.png	0	103376	0	0	13	0	103376	0	103376	1	103376	20	0	-1	101876	103376	103375	0		TrialProc1	right	0		0	10	103686	-103686		0	0	TrialList2	target_both.png	0	dl	-1	3	103426	260	d	372	103798															10	1	7	comp			150
1 ver1_main_procedure	41	1	22	<?xml version="1.0"?>\n<Clock xmlns:dt="urn:schemas-microsoft-com:datatypes"><Description dt:dt="string">E-Prime Primary Realtime Clock</Description><StartTime><Timestamp dt:dt="int">0</Timestamp><DateUtc dt:dt="string">2015-08-21T16:13:39Z</DateUtc></StartTime><FrequencyChanges><FrequencyChange><Frequency dt:dt="r8">2612324</Frequency><Timestamp dt:dt="r8">256273194</Timestamp><Current dt:dt="r8">0</Current><DateUtc dt:dt="string">2015-08-21T16:13:39Z</DateUtc></FrequencyChange></FrequencyChanges></Clock>\n	1 ver1_main_procedure-41-1	99.940	1.0.0.880	1	kk	256765563	prawa	1	2.0.10.182	08-21-2015	2015-08-21 16:13:39	18:13:39	mezczyzna	2.0.10.92	3	6	1	1																							l	{SPACE}		no	BlockProc2		BlockList									8	Free	dl	color_blue.png		-1	8	106167	160																								25	prime_right.png	0	105787	0	0	13	0	105787	0	105787	1	105787	20	0	-1	104288	105787	105786	0		TrialProc1	right	0		0	10	106097	-106097		0	0	TrialList2	target_both.png	0	dl	-1	3	105837	260	l	321	106158															10	1	8	comp			150
1 ver1_main_procedure	41	1	22	<?xml version="1.0"?>\n<Clock xmlns:dt="urn:schemas-microsoft-com:datatypes"><Description dt:dt="string">E-Prime Primary Realtime Clock</Description><StartTime><Timestamp dt:dt="int">0</Timestamp><DateUtc dt:dt="string">2015-08-21T16:13:39Z</DateUtc></StartTime><FrequencyChanges><FrequencyChange><Frequency dt:dt="r8">2612324</Frequency><Timestamp dt:dt="r8">256273194</Timestamp><Current dt:dt="r8">0</Current><DateUtc dt:dt="string">2015-08-21T16:13:39Z</DateUtc></FrequencyChange></FrequencyChanges></Clock>\n	1 ver1_main_procedure-41-1	99.940	1.0.0.880	1	kk	256765563	prawa	1	2.0.10.182	08-21-2015	2015-08-21 16:13:39	18:13:39	mezczyzna	2.0.10.92	3	6	1	1																							l	{SPACE}		no	BlockProc2		BlockList									9	Free	dl	color_red.png		-1	10	108529	460																								75	prime_left.png	0	108139	0	0	13	0	108139	0	108139	1	108139	20	0	-1	106639	108139	108138	0		TrialProc1	left	0		0	10	108449	-108449		0	0	TrialList2	target_both.png	0	dl	-1	3	108189	260	l	330	108519															7	1	9	comp			450
1 ver1_main_procedure	41	1	22	<?xml version="1.0"?>\n<Clock xmlns:dt="urn:schemas-microsoft-com:datatypes"><Description dt:dt="string">E-Prime Primary Realtime Clock</Description><StartTime><Timestamp dt:dt="int">0</Timestamp><DateUtc dt:dt="string">2015-08-21T16:13:39Z</DateUtc></StartTime><FrequencyChanges><FrequencyChange><Frequency dt:dt="r8">2612324</Frequency><Timestamp dt:dt="r8">256273194</Timestamp><Current dt:dt="r8">0</Current><DateUtc dt:dt="string">2015-08-21T16:13:39Z</DateUtc></FrequencyChange></FrequencyChanges></Clock>\n	1 ver1_main_procedure-41-1	99.940	1.0.0.880	1	kk	256765563	prawa	1	2.0.10.182	08-21-2015	2015-08-21 16:13:39	18:13:39	mezczyzna	2.0.10.92	3	6	1	1																							l	{SPACE}		no	BlockProc2		BlockList									10	Free	dl	color_green.png		-1	7	111190	180																			1					25	prime_left.png	0	110800	0	0	13	0	110800	0	110800	1	110800	20	0	-1	109301	110800	110799	0	prime_left.png	TrialProc1	left	0		0	10	111110	-111110		0	0	TrialList2	target_both.png	0	dl	-1	3	110850	260	d	333	111183															8	1	10	neut			150
1 ver1_main_procedure	41	1	22	<?xml version="1.0"?>\n<Clock xmlns:dt="urn:schemas-microsoft-com:datatypes"><Description dt:dt="string">E-Prime Primary Realtime Clock</Description><StartTime><Timestamp dt:dt="int">0</Timestamp><DateUtc dt:dt="string">2015-08-21T16:13:39Z</DateUtc></StartTime><FrequencyChanges><FrequencyChange><Frequency dt:dt="r8">2612324</Frequency><Timestamp dt:dt="r8">256273194</Timestamp><Current dt:dt="r8">0</Current><DateUtc dt:dt="string">2015-08-21T16:13:39Z</DateUtc></FrequencyChange></FrequencyChanges></Clock>\n	1 ver1_main_procedure-41-1	99.940	1.0.0.880	1	kk	256765563	prawa	1	2.0.10.182	08-21-2015	2015-08-21 16:13:39	18:13:39	mezczyzna	2.0.10.92	3	6	1	1																							l	{SPACE}		no	BlockProc2		BlockList									11	Cued	l	color_blue.png		-1	9	113552	160																								25	prime_right.png	0	113182	0	0	13	0	113182	0	113182	1	113182	20	0	-1	111682	113182	113181	0		TrialProc1	right	0		0	10	113492	-113492		0	0	TrialList2	target_right.png	1	l	-1	3	113232	260	l	311	113543															4	1	11	comp			150
1 ver1_main_procedure	41	1	22	<?xml version="1.0"?>\n<Clock xmlns:dt="urn:schemas-microsoft-com:datatypes"><Description dt:dt="string">E-Prime Primary Realtime Clock</Description><StartTime><Timestamp dt:dt="int">0</Timestamp><DateUtc dt:dt="string">2015-08-21T16:13:39Z</DateUtc></StartTime><FrequencyChanges><FrequencyChange><Frequency dt:dt="r8">2612324</Frequency><Timestamp dt:dt="r8">256273194</Timestamp><Current dt:dt="r8">0</Current><DateUtc dt:dt="string">2015-08-21T16:13:39Z</DateUtc></FrequencyChange></FrequencyChanges></Clock>\n	1 ver1_main_procedure-41-1	99.940	1.0.0.880	1	kk	256765563	prawa	1	2.0.10.182	08-21-2015	2015-08-21 16:13:39	18:13:39	mezczyzna	2.0.10.92	3	6	1	1																							l	{SPACE}		no	BlockProc2		BlockList									12	Free	dl	color_blue.png		-1	10	115913	310																								75	prime_right.png	0	115523	0	0	13	0	115523	0	115523	1	115523	20	0	-1	114024	115523	115522	0		TrialProc1	left	0		0	10	115833	-115833		0	0	TrialList2	target_both.png	0	dl	-1	3	115573	260	l	330	115903															9	1	12	incomp			300
1 ver1_main_procedure	41	1	22	<?xml version="1.0"?>\n<Clock xmlns:dt="urn:schemas-microsoft-com:datatypes"><Description dt:dt="string">E-Prime Primary Realtime Clock</Description><StartTime><Timestamp dt:dt="int">0</Timestamp><DateUtc dt:dt="string">2015-08-21T16:13:39Z</DateUtc></StartTime><FrequencyChanges><FrequencyChange><Frequency dt:dt="r8">2612324</Frequency><Timestamp dt:dt="r8">256273194</Timestamp><Current dt:dt="r8">0</Current><DateUtc dt:dt="string">2015-08-21T16:13:39Z</DateUtc></FrequencyChange></FrequencyChanges></Clock>\n	1 ver1_main_procedure-41-1	99.940	1.0.0.880	1	kk	256765563	prawa	1	2.0.10.182	08-21-2015	2015-08-21 16:13:39	18:13:39	mezczyzna	2.0.10.92	3	6	1	1																							l	{SPACE}		no	BlockProc2		BlockList									13	Cued	l	color_red.png		-1	14	118485	310																								75	prime_left.png	1	118035	0	0	13	1	118035	1	118035	1	118034	20	0	-1	116535	118034	118033	0		TrialProc1	right	0		0	11	118345	-118345		0	0	TrialList2	target_right.png	1	l	-1	3	118084	261	l	387	118471															6	1	13	incomp			300
1 ver1_main_procedure	41	1	22	<?xml version="1.0"?>\n<Clock xmlns:dt="urn:schemas-microsoft-com:datatypes"><Description dt:dt="string">E-Prime Primary Realtime Clock</Description><StartTime><Timestamp dt:dt="int">0</Timestamp><DateUtc dt:dt="string">2015-08-21T16:13:39Z</DateUtc></StartTime><FrequencyChanges><FrequencyChange><Frequency dt:dt="r8">2612324</Frequency><Timestamp dt:dt="r8">256273194</Timestamp><Current dt:dt="r8">0</Current><DateUtc dt:dt="string">2015-08-21T16:13:39Z</DateUtc></FrequencyChange></FrequencyChanges></Clock>\n	1 ver1_main_procedure-41-1	99.940	1.0.0.880	1	kk	256765563	prawa	1	2.0.10.182	08-21-2015	2015-08-21 16:13:39	18:13:39	mezczyzna	2.0.10.92	3	6	1	1																							l	{SPACE}		no	BlockProc2		BlockList									14	Free	dl	color_red.png		-1	13	121076	460																								25	prime_left.png	0	120606	0	0	13	0	120606	0	120606	1	120606	20	0	-1	119107	120606	120605	0		TrialProc1	left	0		0	10	120916	-120916		0	0	TrialList2	target_both.png	0	dl	-1	3	120656	260	l	407	121063															7	1	14	comp			450
1 ver1_main_procedure	41	1	22	<?xml version="1.0"?>\n<Clock xmlns:dt="urn:schemas-microsoft-com:datatypes"><Description dt:dt="string">E-Prime Primary Realtime Clock</Description><StartTime><Timestamp dt:dt="int">0</Timestamp><DateUtc dt:dt="string">2015-08-21T16:13:39Z</DateUtc></StartTime><FrequencyChanges><FrequencyChange><Frequency dt:dt="r8">2612324</Frequency><Timestamp dt:dt="r8">256273194</Timestamp><Current dt:dt="r8">0</Current><DateUtc dt:dt="string">2015-08-21T16:13:39Z</DateUtc></FrequencyChange></FrequencyChanges></Clock>\n	1 ver1_main_procedure-41-1	99.940	1.0.0.880	1	kk	256765563	prawa	1	2.0.10.182	08-21-2015	2015-08-21 16:13:39	18:13:39	mezczyzna	2.0.10.92	3	6	1	1																							l	{SPACE}		no	BlockProc2		BlockList									15	Free	dl	color_orange.png		-1	15	123958	160																			2					75	prime_right.png	48	123568	0	0	13	48	123568	48	123568	173	123520	268	0	-1	121848	123520	123347	0	prime_right.png	TrialProc1	left	0		0	0	0	0		0	0	TrialList2	target_both.png	0	dl	-999999	3	123818	0	l	125	123943															8	1	15	neut			150
1 ver1_main_procedure	41	1	22	<?xml version="1.0"?>\n<Clock xmlns:dt="urn:schemas-microsoft-com:datatypes"><Description dt:dt="string">E-Prime Primary Realtime Clock</Description><StartTime><Timestamp dt:dt="int">0</Timestamp><DateUtc dt:dt="string">2015-08-21T16:13:39Z</DateUtc></StartTime><FrequencyChanges><FrequencyChange><Frequency dt:dt="r8">2612324</Frequency><Timestamp dt:dt="r8">256273194</Timestamp><Current dt:dt="r8">0</Current><DateUtc dt:dt="string">2015-08-21T16:13:39Z</DateUtc></FrequencyChange></FrequencyChanges></Clock>\n	1 ver1_main_procedure-41-1	99.940	1.0.0.880	1	kk	256765563	prawa	1	2.0.10.182	08-21-2015	2015-08-21 16:13:39	18:13:39	mezczyzna	2.0.10.92	3	6	1	1																							l	{SPACE}		no	BlockProc2		BlockList									16	Free	dl	color_blue.png		-1	8	126479	310																								75	prime_right.png	0	125929	0	0	13	0	125929	0	125929	1	125929	20	0	-1	124430	125929	125928	0		TrialProc1	left	0		0	10	126239	-126239		0	0	TrialList2	target_both.png	0	dl	-1	3	125979	260	l	492	126471															9	1	16	incomp			300
1 ver1_main_procedure	41	1	22	<?xml version="1.0"?>\n<Clock xmlns:dt="urn:schemas-microsoft-com:datatypes"><Description dt:dt="string">E-Prime Primary Realtime Clock</Description><StartTime><Timestamp dt:dt="int">0</Timestamp><DateUtc dt:dt="string">2015-08-21T16:13:39Z</DateUtc></StartTime><FrequencyChanges><FrequencyChange><Frequency dt:dt="r8">2612324</Frequency><Timestamp dt:dt="r8">256273194</Timestamp><Current dt:dt="r8">0</Current><DateUtc dt:dt="string">2015-08-21T16:13:39Z</DateUtc></FrequencyChange></FrequencyChanges></Clock>\n	1 ver1_main_procedure-41-1	99.940	1.0.0.880	1	kk	256765563	prawa	1	2.0.10.182	08-21-2015	2015-08-21 16:13:39	18:13:39	mezczyzna	2.0.10.92	3	6	1	1																							l	{SPACE}		no	BlockProc2		BlockList									17	Free	dl	color_yellow.png		-1	10	129041	460																								25	prime_right.png	0	128601	0	0	13	0	128601	0	128601	1	128601	20	0	-1	127101	128601	128600	0		TrialProc1	left	0		0	10	128911	-128911		0	0	TrialList2	target_both.png	0	dl	-1	3	128651	260	d	380	129031															9	1	17	incomp			450
1 ver1_main_procedure	41	1	22	<?xml version="1.0"?>\n<Clock xmlns:dt="urn:schemas-microsoft-com:datatypes"><Description dt:dt="string">E-Prime Primary Realtime Clock</Description><StartTime><Timestamp dt:dt="int">0</Timestamp><DateUtc dt:dt="string">2015-08-21T16:13:39Z</DateUtc></StartTime><FrequencyChanges><FrequencyChange><Frequency dt:dt="r8">2612324</Frequency><Timestamp dt:dt="r8">256273194</Timestamp><Current dt:dt="r8">0</Current><DateUtc dt:dt="string">2015-08-21T16:13:39Z</DateUtc></FrequencyChange></FrequencyChanges></Clock>\n	1 ver1_main_procedure-41-1	99.940	1.0.0.880	1	kk	256765563	prawa	1	2.0.10.182	08-21-2015	2015-08-21 16:13:39	18:13:39	mezczyzna	2.0.10.92	3	6	1	1																							l	{SPACE}		no	BlockProc2		BlockList									18	Free	dl	color_red.png		-1	13	131772	461																								25	prime_left.png	0	131312	0	0	13	1	131313	1	131313	1	131312	20	0	-1	129813	131312	131311	0		TrialProc1	right	0		0	10	131622	-131622		0	0	TrialList2	target_both.png	0	dl	-1	3	131362	260	l	397	131759															12	1	18	incomp			450
1 ver1_main_procedure	41	1	22	<?xml version="1.0"?>\n<Clock xmlns:dt="urn:schemas-microsoft-com:datatypes"><Description dt:dt="string">E-Prime Primary Realtime Clock</Description><StartTime><Timestamp dt:dt="int">0</Timestamp><DateUtc dt:dt="string">2015-08-21T16:13:39Z</DateUtc></StartTime><FrequencyChanges><FrequencyChange><Frequency dt:dt="r8">2612324</Frequency><Timestamp dt:dt="r8">256273194</Timestamp><Current dt:dt="r8">0</Current><DateUtc dt:dt="string">2015-08-21T16:13:39Z</DateUtc></FrequencyChange></FrequencyChanges></Clock>\n	1 ver1_main_procedure-41-1	99.940	1.0.0.880	1	kk	256765563	prawa	1	2.0.10.182	08-21-2015	2015-08-21 16:13:39	18:13:39	mezczyzna	2.0.10.92	3	6	1	1																							l	{SPACE}		no	BlockProc2		BlockList									19	Free	dl	color_purple.png		-1	11	134474	460																								75	prime_left.png	0	134044	0	0	13	0	134044	0	134044	1	134044	20	0	-1	132545	134044	134043	0		TrialProc1	left	0		0	10	134354	-134354		0	0	TrialList2	target_both.png	0	dl	-1	3	134094	260	d	369	134463															7	1	19	comp			450
1 ver1_main_procedure	41	1	22	<?xml version="1.0"?>\n<Clock xmlns:dt="urn:schemas-microsoft-com:datatypes"><Description dt:dt="string">E-Prime Primary Realtime Clock</Description><StartTime><Timestamp dt:dt="int">0</Timestamp><DateUtc dt:dt="string">2015-08-21T16:13:39Z</DateUtc></StartTime><FrequencyChanges><FrequencyChange><Frequency dt:dt="r8">2612324</Frequency><Timestamp dt:dt="r8">256273194</Timestamp><Current dt:dt="r8">0</Current><DateUtc dt:dt="string">2015-08-21T16:13:39Z</DateUtc></FrequencyChange></FrequencyChanges></Clock>\n	1 ver1_main_procedure-41-1	99.940	1.0.0.880	1	kk	256765563	prawa	1	2.0.10.182	08-21-2015	2015-08-21 16:13:39	18:13:39	mezczyzna	2.0.10.92	3	6	1	1																							l	{SPACE}		no	BlockProc2		BlockList									20	Free	dl	color_blue.png		-1	15	137206	160																								25	prime_right.png	0	136745	0	0	13	0	136746	0	136745	1	136745	20	0	-1	135246	136745	136744	0		TrialProc1	left	0		0	11	137056	-137056		0	0	TrialList2	target_both.png	0	dl	-1	3	136795	261	l	396	137191															9	1	20	incomp			150
1 ver1_main_procedure	41	1	22	<?xml version="1.0"?>\n<Clock xmlns:dt="urn:schemas-microsoft-com:datatypes"><Description dt:dt="string">E-Prime Primary Realtime Clock</Description><StartTime><Timestamp dt:dt="int">0</Timestamp><DateUtc dt:dt="string">2015-08-21T16:13:39Z</DateUtc></StartTime><FrequencyChanges><FrequencyChange><Frequency dt:dt="r8">2612324</Frequency><Timestamp dt:dt="r8">256273194</Timestamp><Current dt:dt="r8">0</Current><DateUtc dt:dt="string">2015-08-21T16:13:39Z</DateUtc></FrequencyChange></FrequencyChanges></Clock>\n	1 ver1_main_procedure-41-1	99.940	1.0.0.880	1	kk	256765563	prawa	1	2.0.10.182	08-21-2015	2015-08-21 16:13:39	18:13:39	mezczyzna	2.0.10.92	3	6	1	1																							l	{SPACE}		no	BlockProc2		BlockList									21	Cued	d	color_yellow.png		-1	10	139657	310																								75	prime_right.png	0	139177	0	0	13	0	139177	0	139177	1	139177	20	0	-1	137678	139177	139176	0		TrialProc1	left	0		0	10	139487	-139487		0	0	TrialList2	target_left.png	1	d	-1	3	139227	260	d	420	139647															3	1	21	incomp			300
1 ver1_main_procedure	41	1	22	<?xml version="1.0"?>\n<Clock xmlns:dt="urn:schemas-microsoft-com:datatypes"><Description dt:dt="string">E-Prime Primary Realtime Clock</Description><StartTime><Timestamp dt:dt="int">0</Timestamp><DateUtc dt:dt="string">2015-08-21T16:13:39Z</DateUtc></StartTime><FrequencyChanges><FrequencyChange><Frequency dt:dt="r8">2612324</Frequency><Timestamp dt:dt="r8">256273194</Timestamp><Current dt:dt="r8">0</Current><DateUtc dt:dt="string">2015-08-21T16:13:39Z</DateUtc></FrequencyChange></FrequencyChanges></Clock>\n	1 ver1_main_procedure-41-1	99.940	1.0.0.880	1	kk	256765563	prawa	1	2.0.10.182	08-21-2015	2015-08-21 16:13:39	18:13:39	mezczyzna	2.0.10.92	3	6	1	1																							l	{SPACE}		no	BlockProc2		BlockList									22	Cued	d	color_purple.png		-1	7	142319	310																								75	prime_left.png	0	141778	0	0	13	0	141778	0	141778	1	141778	20	0	-1	140279	141778	141777	0		TrialProc1	left	0		1	10	142088	-142088		0	0	TrialList2	target_left.png	1	d	-1	3	141828	260	d	483	142311															1	1	22	comp			300
1 ver1_main_procedure	41	1	22	<?xml version="1.0"?>\n<Clock xmlns:dt="urn:schemas-microsoft-com:datatypes"><Description dt:dt="string">E-Prime Primary Realtime Clock</Description><StartTime><Timestamp dt:dt="int">0</Timestamp><DateUtc dt:dt="string">2015-08-21T16:13:39Z</DateUtc></StartTime><FrequencyChanges><FrequencyChange><Frequency dt:dt="r8">2612324</Frequency><Timestamp dt:dt="r8">256273194</Timestamp><Current dt:dt="r8">0</Current><DateUtc dt:dt="string">2015-08-21T16:13:39Z</DateUtc></FrequencyChange></FrequencyChanges></Clock>\n	1 ver1_main_procedure-41-1	99.940	1.0.0.880	1	kk	256765563	prawa	1	2.0.10.182	08-21-2015	2015-08-21 16:13:39	18:13:39	mezczyzna	2.0.10.92	3	6	1	1																							l	{SPACE}		no	BlockProc2		BlockList									23	Free	dl	color_purple.png		-1	8	144880	160																								75	prime_left.png	0	144440	0	0	13	0	144440	0	144440	1	144440	20	0	-1	142941	144440	144439	0		TrialProc1	left	0		0	10	144750	-144750		0	0	TrialList2	target_both.png	0	dl	-1	3	144490	260	d	381	144871															7	1	23	comp			150
1 ver1_main_procedure	41	1	22	<?xml version="1.0"?>\n<Clock xmlns:dt="urn:schemas-microsoft-com:datatypes"><Description dt:dt="string">E-Prime Primary Realtime Clock</Description><StartTime><Timestamp dt:dt="int">0</Timestamp><DateUtc dt:dt="string">2015-08-21T16:13:39Z</DateUtc></StartTime><FrequencyChanges><FrequencyChange><Frequency dt:dt="r8">2612324</Frequency><Timestamp dt:dt="r8">256273194</Timestamp><Current dt:dt="r8">0</Current><DateUtc dt:dt="string">2015-08-21T16:13:39Z</DateUtc></FrequencyChange></FrequencyChanges></Clock>\n	1 ver1_main_procedure-41-1	99.940	1.0.0.880	1	kk	256765563	prawa	1	2.0.10.182	08-21-2015	2015-08-21 16:13:39	18:13:39	mezczyzna	2.0.10.92	3	6	1	1																							l	{SPACE}		no	BlockProc2		BlockList									24	Free	dl	color_blue.png		-1	13	147221	161																								25	prime_right.png	0	146851	0	0	13	0	146851	0	146851	1	146851	20	0	-1	145352	146851	146850	0		TrialProc1	right	0		1	10	147161	-147161		0	0	TrialList2	target_both.png	0	dl	-1	3	146901	260	l	306	147207															10	1	24	comp			150
1 ver1_main_procedure	41	1	22	<?xml version="1.0"?>\n<Clock xmlns:dt="urn:schemas-microsoft-com:datatypes"><Description dt:dt="string">E-Prime Primary Realtime Clock</Description><StartTime><Timestamp dt:dt="int">0</Timestamp><DateUtc dt:dt="string">2015-08-21T16:13:39Z</DateUtc></StartTime><FrequencyChanges><FrequencyChange><Frequency dt:dt="r8">2612324</Frequency><Timestamp dt:dt="r8">256273194</Timestamp><Current dt:dt="r8">0</Current><DateUtc dt:dt="string">2015-08-21T16:13:39Z</DateUtc></FrequencyChange></FrequencyChanges></Clock>\n	1 ver1_main_procedure-41-1	99.940	1.0.0.880	1	kk	256765563	prawa	1	2.0.10.182	08-21-2015	2015-08-21 16:13:39	18:13:39	mezczyzna	2.0.10.92	3	6	1	1																							l	{SPACE}		no	BlockProc2		BlockList									25	Free	dl	color_yellow.png		-1	5	149613	310																								25	prime_right.png	0	149193	0	0	13	0	149193	0	149193	1	149193	20	0	-1	147693	149193	149192	0		TrialProc1	right	0		0	10	149503	-149503		0	0	TrialList2	target_both.png	0	dl	-1	3	149243	260	d	364	149607															10	1	25	comp			300
1 ver1_main_procedure	41	1	22	<?xml version="1.0"?>\n<Clock xmlns:dt="urn:schemas-microsoft-com:datatypes"><Description dt:dt="string">E-Prime Primary Realtime Clock</Description><StartTime><Timestamp dt:dt="int">0</Timestamp><DateUtc dt:dt="string">2015-08-21T16:13:39Z</DateUtc></StartTime><FrequencyChanges><FrequencyChange><Frequency dt:dt="r8">2612324</Frequency><Timestamp dt:dt="r8">256273194</Timestamp><Current dt:dt="r8">0</Current><DateUtc dt:dt="string">2015-08-21T16:13:39Z</DateUtc></FrequencyChange></FrequencyChanges></Clock>\n	1 ver1_main_procedure-41-1	99.940	1.0.0.880	1	kk	256765563	prawa	1	2.0.10.182	08-21-2015	2015-08-21 16:13:39	18:13:39	mezczyzna	2.0.10.92	3	6	1	1																							l	{SPACE}		no	BlockProc2		BlockList									26	Free	dl	color_blue.png		-1	10	152114	311																								25	prime_right.png	0	151734	0	0	13	0	151734	0	151734	1	151734	20	0	-1	150235	151734	151733	0		TrialProc1	left	0		1	10	152044	-152044		0	0	TrialList2	target_both.png	0	dl	-1	3	151784	260	l	319	152103															9	1	26	incomp			300
1 ver1_main_procedure	41	1	22	<?xml version="1.0"?>\n<Clock xmlns:dt="urn:schemas-microsoft-com:datatypes"><Description dt:dt="string">E-Prime Primary Realtime Clock</Description><StartTime><Timestamp dt:dt="int">0</Timestamp><DateUtc dt:dt="string">2015-08-21T16:13:39Z</DateUtc></StartTime><FrequencyChanges><FrequencyChange><Frequency dt:dt="r8">2612324</Frequency><Timestamp dt:dt="r8">256273194</Timestamp><Current dt:dt="r8">0</Current><DateUtc dt:dt="string">2015-08-21T16:13:39Z</DateUtc></FrequencyChange></FrequencyChanges></Clock>\n	1 ver1_main_procedure-41-1	99.940	1.0.0.880	1	kk	256765563	prawa	1	2.0.10.182	08-21-2015	2015-08-21 16:13:39	18:13:39	mezczyzna	2.0.10.92	3	6	1	1																							l	{SPACE}		no	BlockProc2		BlockList									27	Free	dl	color_blue.png		-1	14	154686	460																								25	prime_right.png	0	154236	0	0	13	0	154236	0	154236	1	154236	20	0	-1	152736	154236	154235	0		TrialProc1	right	0		0	10	154546	-154546		0	0	TrialList2	target_both.png	0	dl	-1	3	154286	260	l	385	154671															10	1	27	comp			450
1 ver1_main_procedure	41	1	22	<?xml version="1.0"?>\n<Clock xmlns:dt="urn:schemas-microsoft-com:datatypes"><Description dt:dt="string">E-Prime Primary Realtime Clock</Description><StartTime><Timestamp dt:dt="int">0</Timestamp><DateUtc dt:dt="string">2015-08-21T16:13:39Z</DateUtc></StartTime><FrequencyChanges><FrequencyChange><Frequency dt:dt="r8">2612324</Frequency><Timestamp dt:dt="r8">256273194</Timestamp><Current dt:dt="r8">0</Current><DateUtc dt:dt="string">2015-08-21T16:13:39Z</DateUtc></FrequencyChange></FrequencyChanges></Clock>\n	1 ver1_main_procedure-41-1	99.940	1.0.0.880	1	kk	256765563	prawa	1	2.0.10.182	08-21-2015	2015-08-21 16:13:39	18:13:39	mezczyzna	2.0.10.92	3	6	1	1																							l	{SPACE}		no	BlockProc2		BlockList									28	Free	dl	color_green.png		-1	13	157397	461																			1					25	prime_left.png	0	156957	0	0	13	0	156958	0	156957	1	156957	20	0	-1	155458	156957	156956	0	prime_left.png	TrialProc1	right	0		1	10	157267	-157267		0	0	TrialList2	target_both.png	0	dl	-1	3	157007	260	d	376	157383															11	1	28	neut			450
1 ver1_main_procedure	41	1	22	<?xml version="1.0"?>\n<Clock xmlns:dt="urn:schemas-microsoft-com:datatypes"><Description dt:dt="string">E-Prime Primary Realtime Clock</Description><StartTime><Timestamp dt:dt="int">0</Timestamp><DateUtc dt:dt="string">2015-08-21T16:13:39Z</DateUtc></StartTime><FrequencyChanges><FrequencyChange><Frequency dt:dt="r8">2612324</Frequency><Timestamp dt:dt="r8">256273194</Timestamp><Current dt:dt="r8">0</Current><DateUtc dt:dt="string">2015-08-21T16:13:39Z</DateUtc></FrequencyChange></FrequencyChanges></Clock>\n	1 ver1_main_procedure-41-1	99.940	1.0.0.880	1	kk	256765563	prawa	1	2.0.10.182	08-21-2015	2015-08-21 16:13:39	18:13:39	mezczyzna	2.0.10.92	3	6	1	1																							l	{SPACE}		no	BlockProc2		BlockList									29	Free	dl	color_blue.png		-1	9	160049	460																								25	prime_right.png	0	159669	0	0	13	0	159669	0	159669	1	159669	20	0	-1	158170	159669	159668	0		TrialProc1	right	0		0	10	159979	-159979		0	0	TrialList2	target_both.png	0	dl	-1	3	159719	260	l	320	160039															10	1	29	comp			450
1 ver1_main_procedure	41	1	22	<?xml version="1.0"?>\n<Clock xmlns:dt="urn:schemas-microsoft-com:datatypes"><Description dt:dt="string">E-Prime Primary Realtime Clock</Description><StartTime><Timestamp dt:dt="int">0</Timestamp><DateUtc dt:dt="string">2015-08-21T16:13:39Z</DateUtc></StartTime><FrequencyChanges><FrequencyChange><Frequency dt:dt="r8">2612324</Frequency><Timestamp dt:dt="r8">256273194</Timestamp><Current dt:dt="r8">0</Current><DateUtc dt:dt="string">2015-08-21T16:13:39Z</DateUtc></FrequencyChange></FrequencyChanges></Clock>\n	1 ver1_main_procedure-41-1	99.940	1.0.0.880	1	kk	256765563	prawa	1	2.0.10.182	08-21-2015	2015-08-21 16:13:39	18:13:39	mezczyzna	2.0.10.92	3	6	1	1																							l	{SPACE}		no	BlockProc2		BlockList									30	Free	dl	color_purple.png		-1	13	162741	160																								25	prime_left.png	0	162320	0	0	13	1	162321	1	162321	1	162320	20	0	-1	160821	162320	162319	0		TrialProc1	left	0		0	11	162631	-162631		0	0	TrialList2	target_both.png	0	dl	-1	3	162370	261	d	357	162727															7	1	30	comp			150
1 ver1_main_procedure	41	1	22	<?xml version="1.0"?>\n<Clock xmlns:dt="urn:schemas-microsoft-com:datatypes"><Description dt:dt="string">E-Prime Primary Realtime Clock</Description><StartTime><Timestamp dt:dt="int">0</Timestamp><DateUtc dt:dt="string">2015-08-21T16:13:39Z</DateUtc></StartTime><FrequencyChanges><FrequencyChange><Frequency dt:dt="r8">2612324</Frequency><Timestamp dt:dt="r8">256273194</Timestamp><Current dt:dt="r8">0</Current><DateUtc dt:dt="string">2015-08-21T16:13:39Z</DateUtc></FrequencyChange></FrequencyChanges></Clock>\n	1 ver1_main_procedure-41-1	99.940	1.0.0.880	1	kk	256765563	prawa	1	2.0.10.182	08-21-2015	2015-08-21 16:13:39	18:13:39	mezczyzna	2.0.10.92	3	6	1	1																							l	{SPACE}		no	BlockProc2		BlockList									31	Cued	l	color_blue.png		-1	6	165102	160																								25	prime_right.png	0	164712	0	0	13	0	164712	0	164712	1	164712	20	0	-1	163213	164712	164711	0		TrialProc1	right	0		0	10	165022	-165022		0	0	TrialList2	target_right.png	1	l	-1	3	164762	260	l	333	165095															4	1	31	comp			150
1 ver1_main_procedure	41	1	22	<?xml version="1.0"?>\n<Clock xmlns:dt="urn:schemas-microsoft-com:datatypes"><Description dt:dt="string">E-Prime Primary Realtime Clock</Description><StartTime><Timestamp dt:dt="int">0</Timestamp><DateUtc dt:dt="string">2015-08-21T16:13:39Z</DateUtc></StartTime><FrequencyChanges><FrequencyChange><Frequency dt:dt="r8">2612324</Frequency><Timestamp dt:dt="r8">256273194</Timestamp><Current dt:dt="r8">0</Current><DateUtc dt:dt="string">2015-08-21T16:13:39Z</DateUtc></FrequencyChange></FrequencyChanges></Clock>\n	1 ver1_main_procedure-41-1	99.940	1.0.0.880	1	kk	256765563	prawa	1	2.0.10.182	08-21-2015	2015-08-21 16:13:39	18:13:39	mezczyzna	2.0.10.92	3	6	1	1																							l	{SPACE}		no	BlockProc2		BlockList									32	Cued	d	color_green.png		-1	9	167553	461																			2					75	prime_right.png	0	167073	0	0	13	0	167073	0	167073	1	167073	20	0	-1	165574	167073	167072	0	prime_right.png	TrialProc1	left	0		0	10	167383	-167383		0	0	TrialList2	target_left.png	1	d	-1	3	167123	260	d	420	167543															2	1	32	neut			450
1 ver1_main_procedure	41	1	22	<?xml version="1.0"?>\n<Clock xmlns:dt="urn:schemas-microsoft-com:datatypes"><Description dt:dt="string">E-Prime Primary Realtime Clock</Description><StartTime><Timestamp dt:dt="int">0</Timestamp><DateUtc dt:dt="string">2015-08-21T16:13:39Z</DateUtc></StartTime><FrequencyChanges><FrequencyChange><Frequency dt:dt="r8">2612324</Frequency><Timestamp dt:dt="r8">256273194</Timestamp><Current dt:dt="r8">0</Current><DateUtc dt:dt="string">2015-08-21T16:13:39Z</DateUtc></FrequencyChange></FrequencyChanges></Clock>\n	1 ver1_main_procedure-41-1	99.940	1.0.0.880	1	kk	256765563	prawa	1	2.0.10.182	08-21-2015	2015-08-21 16:13:39	18:13:39	mezczyzna	2.0.10.92	3	6	1	1																							l	{SPACE}		no	BlockProc2		BlockList									33	Free	dl	color_orange.png		-1	7	170295	460																			1					75	prime_left.png	0	169825	0	0	13	0	169825	0	169825	1	169825	20	0	-1	168326	169825	169824	0	prime_left.png	TrialProc1	right	0		0	10	170135	-170135		0	0	TrialList2	target_both.png	0	dl	-1	3	169875	260	l	412	170287															11	1	33	neut			450
1 ver1_main_procedure	41	1	22	<?xml version="1.0"?>\n<Clock xmlns:dt="urn:schemas-microsoft-com:datatypes"><Description dt:dt="string">E-Prime Primary Realtime Clock</Description><StartTime><Timestamp dt:dt="int">0</Timestamp><DateUtc dt:dt="string">2015-08-21T16:13:39Z</DateUtc></StartTime><FrequencyChanges><FrequencyChange><Frequency dt:dt="r8">2612324</Frequency><Timestamp dt:dt="r8">256273194</Timestamp><Current dt:dt="r8">0</Current><DateUtc dt:dt="string">2015-08-21T16:13:39Z</DateUtc></FrequencyChange></FrequencyChanges></Clock>\n	1 ver1_main_procedure-41-1	99.940	1.0.0.880	1	kk	256765563	prawa	1	2.0.10.182	08-21-2015	2015-08-21 16:13:39	18:13:39	mezczyzna	2.0.10.92	3	6	1	1																							l	{SPACE}		no	BlockProc2		BlockList									34	Free	dl	color_orange.png		-1	15	173007	460																			2					25	prime_right.png	1	172567	0	0	13	1	172567	1	172567	1	172566	20	0	-1	171067	172566	172565	0	prime_right.png	TrialProc1	right	0		0	11	172877	-172877		0	0	TrialList2	target_both.png	0	dl	-1	3	172616	261	l	375	172991															11	1	34	neut			450
1 ver1_main_procedure	41	1	22	<?xml version="1.0"?>\n<Clock xmlns:dt="urn:schemas-microsoft-com:datatypes"><Description dt:dt="string">E-Prime Primary Realtime Clock</Description><StartTime><Timestamp dt:dt="int">0</Timestamp><DateUtc dt:dt="string">2015-08-21T16:13:39Z</DateUtc></StartTime><FrequencyChanges><FrequencyChange><Frequency dt:dt="r8">2612324</Frequency><Timestamp dt:dt="r8">256273194</Timestamp><Current dt:dt="r8">0</Current><DateUtc dt:dt="string">2015-08-21T16:13:39Z</DateUtc></FrequencyChange></FrequencyChanges></Clock>\n	1 ver1_main_procedure-41-1	99.940	1.0.0.880	1	kk	256765563	prawa	1	2.0.10.182	08-21-2015	2015-08-21 16:13:39	18:13:39	mezczyzna	2.0.10.92	3	6	1	1																							l	{SPACE}		no	BlockProc2		BlockList									35	Cued	d	color_green.png		-1	8	175688	160																			1					75	prime_left.png	0	175278	0	0	13	0	175278	0	175278	1	175278	20	0	-1	173779	175278	175277	0	prime_left.png	TrialProc1	left	0		0	10	175588	-175588		0	0	TrialList2	target_left.png	1	d	-1	3	175328	260	d	351	175679															2	1	35	neut			150
1 ver1_main_procedure	41	1	22	<?xml version="1.0"?>\n<Clock xmlns:dt="urn:schemas-microsoft-com:datatypes"><Description dt:dt="string">E-Prime Primary Realtime Clock</Description><StartTime><Timestamp dt:dt="int">0</Timestamp><DateUtc dt:dt="string">2015-08-21T16:13:39Z</DateUtc></StartTime><FrequencyChanges><FrequencyChange><Frequency dt:dt="r8">2612324</Frequency><Timestamp dt:dt="r8">256273194</Timestamp><Current dt:dt="r8">0</Current><DateUtc dt:dt="string">2015-08-21T16:13:39Z</DateUtc></FrequencyChange></FrequencyChanges></Clock>\n	1 ver1_main_procedure-41-1	99.940	1.0.0.880	1	kk	256765563	prawa	1	2.0.10.182	08-21-2015	2015-08-21 16:13:39	18:13:39	mezczyzna	2.0.10.92	3	6	1	1																							l	{SPACE}		no	BlockProc2		BlockList									36	Free	dl	color_purple.png		-1	6	178190	310																								25	prime_left.png	0	177659	0	0	13	0	177660	0	177659	1	177659	20	0	-1	176160	177659	177658	0		TrialProc1	right	0		0	11	177970	-177970		0	0	TrialList2	target_both.png	0	dl	-1	3	177709	261	d	474	178183															12	1	36	incomp			300
1 ver1_main_procedure	41	1	22	<?xml version="1.0"?>\n<Clock xmlns:dt="urn:schemas-microsoft-com:datatypes"><Description dt:dt="string">E-Prime Primary Realtime Clock</Description><StartTime><Timestamp dt:dt="int">0</Timestamp><DateUtc dt:dt="string">2015-08-21T16:13:39Z</DateUtc></StartTime><FrequencyChanges><FrequencyChange><Frequency dt:dt="r8">2612324</Frequency><Timestamp dt:dt="r8">256273194</Timestamp><Current dt:dt="r8">0</Current><DateUtc dt:dt="string">2015-08-21T16:13:39Z</DateUtc></FrequencyChange></FrequencyChanges></Clock>\n	1 ver1_main_procedure-41-1	99.940	1.0.0.880	1	kk	256765563	prawa	1	2.0.10.182	08-21-2015	2015-08-21 16:13:39	18:13:39	mezczyzna	2.0.10.92	3	6	1	1																							l	{SPACE}		no	BlockProc2		BlockList									37	Free	dl	color_orange.png		-1	9	180721	160																			2					25	prime_right.png	0	180311	0	0	13	0	180311	0	180311	1	180311	20	0	-1	178812	180311	180310	0	prime_right.png	TrialProc1	right	0		0	10	180621	-180621		0	0	TrialList2	target_both.png	0	dl	-1	3	180361	260	l	350	180711															11	1	37	neut			150
1 ver1_main_procedure	41	1	22	<?xml version="1.0"?>\n<Clock xmlns:dt="urn:schemas-microsoft-com:datatypes"><Description dt:dt="string">E-Prime Primary Realtime Clock</Description><StartTime><Timestamp dt:dt="int">0</Timestamp><DateUtc dt:dt="string">2015-08-21T16:13:39Z</DateUtc></StartTime><FrequencyChanges><FrequencyChange><Frequency dt:dt="r8">2612324</Frequency><Timestamp dt:dt="r8">256273194</Timestamp><Current dt:dt="r8">0</Current><DateUtc dt:dt="string">2015-08-21T16:13:39Z</DateUtc></FrequencyChange></FrequencyChanges></Clock>\n	1 ver1_main_procedure-41-1	99.940	1.0.0.880	1	kk	256765563	prawa	1	2.0.10.182	08-21-2015	2015-08-21 16:13:39	18:13:39	mezczyzna	2.0.10.92	3	6	1	1																							l	{SPACE}		no	BlockProc2		BlockList									38	Cued	d	color_purple.png		-1	7	183063	160																								25	prime_left.png	1	182693	0	0	13	1	182693	1	182693	1	182692	20	0	-1	181193	182692	182691	0		TrialProc1	left	0		1	10	183002	-183002		0	0	TrialList2	target_left.png	1	d	-1	3	182742	260	d	313	183055															1	1	38	comp			150
1 ver1_main_procedure	41	1	22	<?xml version="1.0"?>\n<Clock xmlns:dt="urn:schemas-microsoft-com:datatypes"><Description dt:dt="string">E-Prime Primary Realtime Clock</Description><StartTime><Timestamp dt:dt="int">0</Timestamp><DateUtc dt:dt="string">2015-08-21T16:13:39Z</DateUtc></StartTime><FrequencyChanges><FrequencyChange><Frequency dt:dt="r8">2612324</Frequency><Timestamp dt:dt="r8">256273194</Timestamp><Current dt:dt="r8">0</Current><DateUtc dt:dt="string">2015-08-21T16:13:39Z</DateUtc></FrequencyChange></FrequencyChanges></Clock>\n	1 ver1_main_procedure-41-1	99.940	1.0.0.880	1	kk	256765563	prawa	1	2.0.10.182	08-21-2015	2015-08-21 16:13:39	18:13:39	mezczyzna	2.0.10.92	3	6	1	1																							l	{SPACE}		no	BlockProc2		BlockList									39	Free	dl	color_blue.png		-1	8	185544	310																								25	prime_right.png	0	185034	0	0	13	0	185034	0	185034	1	185034	20	0	-1	183534	185034	185033	0		TrialProc1	right	0		0	10	185344	-185344		0	0	TrialList2	target_both.png	0	dl	-1	3	185084	260	l	451	185535															10	1	39	comp			300
1 ver1_main_procedure	41	1	22	<?xml version="1.0"?>\n<Clock xmlns:dt="urn:schemas-microsoft-com:datatypes"><Description dt:dt="string">E-Prime Primary Realtime Clock</Description><StartTime><Timestamp dt:dt="int">0</Timestamp><DateUtc dt:dt="string">2015-08-21T16:13:39Z</DateUtc></StartTime><FrequencyChanges><FrequencyChange><Frequency dt:dt="r8">2612324</Frequency><Timestamp dt:dt="r8">256273194</Timestamp><Current dt:dt="r8">0</Current><DateUtc dt:dt="string">2015-08-21T16:13:39Z</DateUtc></FrequencyChange></FrequencyChanges></Clock>\n	1 ver1_main_procedure-41-1	99.940	1.0.0.880	1	kk	256765563	prawa	1	2.0.10.182	08-21-2015	2015-08-21 16:13:39	18:13:39	mezczyzna	2.0.10.92	3	6	1	1																							l	{SPACE}		no	BlockProc2		BlockList									40	Free	dl	color_blue.png		-1	13	188085	311																								75	prime_right.png	0	187665	0	0	13	0	187665	0	187665	1	187665	20	0	-1	186166	187665	187664	0		TrialProc1	right	0		1	10	187975	-187975		0	0	TrialList2	target_both.png	0	dl	-1	3	187715	260	l	356	188071															10	1	40	comp			300
1 ver1_main_procedure	41	1	22	<?xml version="1.0"?>\n<Clock xmlns:dt="urn:schemas-microsoft-com:datatypes"><Description dt:dt="string">E-Prime Primary Realtime Clock</Description><StartTime><Timestamp dt:dt="int">0</Timestamp><DateUtc dt:dt="string">2015-08-21T16:13:39Z</DateUtc></StartTime><FrequencyChanges><FrequencyChange><Frequency dt:dt="r8">2612324</Frequency><Timestamp dt:dt="r8">256273194</Timestamp><Current dt:dt="r8">0</Current><DateUtc dt:dt="string">2015-08-21T16:13:39Z</DateUtc></FrequencyChange></FrequencyChanges></Clock>\n	1 ver1_main_procedure-41-1	99.940	1.0.0.880	1	kk	256765563	prawa	1	2.0.10.182	08-21-2015	2015-08-21 16:13:39	18:13:39	mezczyzna	2.0.10.92	3	6	1	1																							l	{SPACE}		no	BlockProc2		BlockList									41	Cued	l	color_blue.png		-1	7	190687	310																								25	prime_right.png	0	190207	0	0	13	0	190207	0	190207	1	190207	20	0	-1	188708	190207	190206	0		TrialProc1	right	0		0	10	190517	-190517		0	0	TrialList2	target_right.png	1	l	-1	3	190257	260	l	422	190679															4	1	41	comp			300
1 ver1_main_procedure	41	1	22	<?xml version="1.0"?>\n<Clock xmlns:dt="urn:schemas-microsoft-com:datatypes"><Description dt:dt="string">E-Prime Primary Realtime Clock</Description><StartTime><Timestamp dt:dt="int">0</Timestamp><DateUtc dt:dt="string">2015-08-21T16:13:39Z</DateUtc></StartTime><FrequencyChanges><FrequencyChange><Frequency dt:dt="r8">2612324</Frequency><Timestamp dt:dt="r8">256273194</Timestamp><Current dt:dt="r8">0</Current><DateUtc dt:dt="string">2015-08-21T16:13:39Z</DateUtc></FrequencyChange></FrequencyChanges></Clock>\n	1 ver1_main_procedure-41-1	99.940	1.0.0.880	1	kk	256765563	prawa	1	2.0.10.182	08-21-2015	2015-08-21 16:13:39	18:13:39	mezczyzna	2.0.10.92	3	6	1	1																							l	{SPACE}		no	BlockProc2		BlockList									42	Free	dl	color_purple.png		-1	10	193218	161																								75	prime_left.png	0	192808	0	0	13	0	192808	0	192808	1	192808	20	0	-1	191309	192808	192807	0		TrialProc1	right	0		1	10	193118	-193118		0	0	TrialList2	target_both.png	0	dl	-1	3	192858	260	d	350	193208															12	1	42	incomp			150
1 ver1_main_procedure	41	1	22	<?xml version="1.0"?>\n<Clock xmlns:dt="urn:schemas-microsoft-com:datatypes"><Description dt:dt="string">E-Prime Primary Realtime Clock</Description><StartTime><Timestamp dt:dt="int">0</Timestamp><DateUtc dt:dt="string">2015-08-21T16:13:39Z</DateUtc></StartTime><FrequencyChanges><FrequencyChange><Frequency dt:dt="r8">2612324</Frequency><Timestamp dt:dt="r8">256273194</Timestamp><Current dt:dt="r8">0</Current><DateUtc dt:dt="string">2015-08-21T16:13:39Z</DateUtc></FrequencyChange></FrequencyChanges></Clock>\n	1 ver1_main_procedure-41-1	99.940	1.0.0.880	1	kk	256765563	prawa	1	2.0.10.182	08-21-2015	2015-08-21 16:13:39	18:13:39	mezczyzna	2.0.10.92	3	6	1	1																							l	{SPACE}		no	BlockProc2		BlockList									43	Cued	l	color_red.png		-1	14	195630	310																								25	prime_left.png	0	195190	0	0	13	0	195190	0	195190	1	195190	20	0	-1	193690	195190	195189	0		TrialProc1	right	0		0	10	195500	-195500		0	0	TrialList2	target_right.png	1	l	-1	3	195240	260	l	376	195616															6	1	43	incomp			300
1 ver1_main_procedure	41	1	22	<?xml version="1.0"?>\n<Clock xmlns:dt="urn:schemas-microsoft-com:datatypes"><Description dt:dt="string">E-Prime Primary Realtime Clock</Description><StartTime><Timestamp dt:dt="int">0</Timestamp><DateUtc dt:dt="string">2015-08-21T16:13:39Z</DateUtc></StartTime><FrequencyChanges><FrequencyChange><Frequency dt:dt="r8">2612324</Frequency><Timestamp dt:dt="r8">256273194</Timestamp><Current dt:dt="r8">0</Current><DateUtc dt:dt="string">2015-08-21T16:13:39Z</DateUtc></FrequencyChange></FrequencyChanges></Clock>\n	1 ver1_main_procedure-41-1	99.940	1.0.0.880	1	kk	256765563	prawa	1	2.0.10.182	08-21-2015	2015-08-21 16:13:39	18:13:39	mezczyzna	2.0.10.92	3	6	1	1																							l	{SPACE}		no	BlockProc2		BlockList									44	Free	dl	color_blue.png		-1	8	198272	310																								75	prime_right.png	0	197751	0	0	13	0	197751	0	197751	1	197751	20	0	-1	196252	197751	197750	0		TrialProc1	left	0		0	10	198061	-198061		0	0	TrialList2	target_both.png	0	dl	-1	3	197801	260	l	463	198264															9	1	44	incomp			300
1 ver1_main_procedure	41	1	22	<?xml version="1.0"?>\n<Clock xmlns:dt="urn:schemas-microsoft-com:datatypes"><Description dt:dt="string">E-Prime Primary Realtime Clock</Description><StartTime><Timestamp dt:dt="int">0</Timestamp><DateUtc dt:dt="string">2015-08-21T16:13:39Z</DateUtc></StartTime><FrequencyChanges><FrequencyChange><Frequency dt:dt="r8">2612324</Frequency><Timestamp dt:dt="r8">256273194</Timestamp><Current dt:dt="r8">0</Current><DateUtc dt:dt="string">2015-08-21T16:13:39Z</DateUtc></FrequencyChange></FrequencyChanges></Clock>\n	1 ver1_main_procedure-41-1	99.940	1.0.0.880	1	kk	256765563	prawa	1	2.0.10.182	08-21-2015	2015-08-21 16:13:39	18:13:39	mezczyzna	2.0.10.92	3	6	1	1																							l	{SPACE}		no	BlockProc2		BlockList									45	Free	dl	color_green.png		-1	9	200913	460																			1					25	prime_left.png	0	200393	0	0	13	0	200393	0	200393	1	200393	20	0	-1	198893	200393	200392	0	prime_left.png	TrialProc1	right	0		0	10	200703	-200703		0	0	TrialList2	target_both.png	0	dl	-1	3	200443	260	d	461	200904															11	1	45	neut			450
1 ver1_main_procedure	41	1	22	<?xml version="1.0"?>\n<Clock xmlns:dt="urn:schemas-microsoft-com:datatypes"><Description dt:dt="string">E-Prime Primary Realtime Clock</Description><StartTime><Timestamp dt:dt="int">0</Timestamp><DateUtc dt:dt="string">2015-08-21T16:13:39Z</DateUtc></StartTime><FrequencyChanges><FrequencyChange><Frequency dt:dt="r8">2612324</Frequency><Timestamp dt:dt="r8">256273194</Timestamp><Current dt:dt="r8">0</Current><DateUtc dt:dt="string">2015-08-21T16:13:39Z</DateUtc></FrequencyChange></FrequencyChanges></Clock>\n	1 ver1_main_procedure-41-1	99.940	1.0.0.880	1	kk	256765563	prawa	1	2.0.10.182	08-21-2015	2015-08-21 16:13:39	18:13:39	mezczyzna	2.0.10.92	3	6	1	1																							l	{SPACE}		no	BlockProc2		BlockList									46	Cued	d	color_purple.png		-1	11	203635	310																								25	prime_left.png	0	203184	0	0	13	0	203185	0	203184	1	203184	20	0	-1	201685	203184	203183	0		TrialProc1	left	0		0	11	203495	-203495		0	0	TrialList2	target_left.png	1	d	-1	3	203234	261	d	390	203624															1	1	46	comp			300
1 ver1_main_procedure	41	1	22	<?xml version="1.0"?>\n<Clock xmlns:dt="urn:schemas-microsoft-com:datatypes"><Description dt:dt="string">E-Prime Primary Realtime Clock</Description><StartTime><Timestamp dt:dt="int">0</Timestamp><DateUtc dt:dt="string">2015-08-21T16:13:39Z</DateUtc></StartTime><FrequencyChanges><FrequencyChange><Frequency dt:dt="r8">2612324</Frequency><Timestamp dt:dt="r8">256273194</Timestamp><Current dt:dt="r8">0</Current><DateUtc dt:dt="string">2015-08-21T16:13:39Z</DateUtc></FrequencyChange></FrequencyChanges></Clock>\n	1 ver1_main_procedure-41-1	99.940	1.0.0.880	1	kk	256765563	prawa	1	2.0.10.182	08-21-2015	2015-08-21 16:13:39	18:13:39	mezczyzna	2.0.10.92	3	6	1	1																							l	{SPACE}		no	BlockProc2		BlockList									47	Free	dl	color_red.png		-1	14	206246	310																								75	prime_left.png	0	205756	0	0	13	0	205756	0	205756	1	205756	20	0	-1	204257	205756	205755	0		TrialProc1	left	0		0	10	206066	-206066		0	0	TrialList2	target_both.png	0	dl	-1	3	205806	260	l	426	206232															7	1	47	comp			300
1 ver1_main_procedure	41	1	22	<?xml version="1.0"?>\n<Clock xmlns:dt="urn:schemas-microsoft-com:datatypes"><Description dt:dt="string">E-Prime Primary Realtime Clock</Description><StartTime><Timestamp dt:dt="int">0</Timestamp><DateUtc dt:dt="string">2015-08-21T16:13:39Z</DateUtc></StartTime><FrequencyChanges><FrequencyChange><Frequency dt:dt="r8">2612324</Frequency><Timestamp dt:dt="r8">256273194</Timestamp><Current dt:dt="r8">0</Current><DateUtc dt:dt="string">2015-08-21T16:13:39Z</DateUtc></FrequencyChange></FrequencyChanges></Clock>\n	1 ver1_main_procedure-41-1	99.940	1.0.0.880	1	kk	256765563	prawa	1	2.0.10.182	08-21-2015	2015-08-21 16:13:39	18:13:39	mezczyzna	2.0.10.92	3	6	1	1																							l	{SPACE}		no	BlockProc2		BlockList									48	Cued	d	color_green.png		-1	10	208738	460																			2					25	prime_right.png	0	208367	0	0	13	1	208368	1	208368	0	208367	20	0	-1	206868	208367	208367	0	prime_right.png	TrialProc1	left	0		0	11	208678	-208678		0	0	TrialList2	target_left.png	1	d	-1	3	208417	261	d	311	208728															2	1	48	neut			450
1 ver1_main_procedure	41	1	22	<?xml version="1.0"?>\n<Clock xmlns:dt="urn:schemas-microsoft-com:datatypes"><Description dt:dt="string">E-Prime Primary Realtime Clock</Description><StartTime><Timestamp dt:dt="int">0</Timestamp><DateUtc dt:dt="string">2015-08-21T16:13:39Z</DateUtc></StartTime><FrequencyChanges><FrequencyChange><Frequency dt:dt="r8">2612324</Frequency><Timestamp dt:dt="r8">256273194</Timestamp><Current dt:dt="r8">0</Current><DateUtc dt:dt="string">2015-08-21T16:13:39Z</DateUtc></FrequencyChange></FrequencyChanges></Clock>\n	1 ver1_main_procedure-41-1	99.940	1.0.0.880	1	kk	256765563	prawa	1	2.0.10.182	08-21-2015	2015-08-21 16:13:39	18:13:39	mezczyzna	2.0.10.92	3	6	1	1																							l	{SPACE}		no	BlockProc2		BlockList									49	Cued	l	color_orange.png		-1	13	211469	160																			1					25	prime_left.png	0	211009	0	0	13	0	211009	0	211009	1	211009	20	0	-1	209510	211009	211008	0	prime_left.png	TrialProc1	right	0		0	10	211319	-211319		0	0	TrialList2	target_right.png	1	l	-1	3	211059	260	l	397	211456															5	1	49	neut			150
1 ver1_main_procedure	41	1	22	<?xml version="1.0"?>\n<Clock xmlns:dt="urn:schemas-microsoft-com:datatypes"><Description dt:dt="string">E-Prime Primary Realtime Clock</Description><StartTime><Timestamp dt:dt="int">0</Timestamp><DateUtc dt:dt="string">2015-08-21T16:13:39Z</DateUtc></StartTime><FrequencyChanges><FrequencyChange><Frequency dt:dt="r8">2612324</Frequency><Timestamp dt:dt="r8">256273194</Timestamp><Current dt:dt="r8">0</Current><DateUtc dt:dt="string">2015-08-21T16:13:39Z</DateUtc></FrequencyChange></FrequencyChanges></Clock>\n	1 ver1_main_procedure-41-1	99.940	1.0.0.880	1	kk	256765563	prawa	1	2.0.10.182	08-21-2015	2015-08-21 16:13:39	18:13:39	mezczyzna	2.0.10.92	3	6	1	1																							l	{SPACE}		no	BlockProc2		BlockList									50	Free	dl	color_blue.png		-1	7	214031	310																								75	prime_right.png	0	213440	0	0	13	1	213441	1	213441	1	213440	20	0	-1	211941	213440	213439	0		TrialProc1	left	0		0	11	213751	-213751		0	0	TrialList2	target_both.png	0	dl	-1	3	213490	261	l	534	214024															9	1	50	incomp			300
1 ver1_main_procedure	41	1	22	<?xml version="1.0"?>\n<Clock xmlns:dt="urn:schemas-microsoft-com:datatypes"><Description dt:dt="string">E-Prime Primary Realtime Clock</Description><StartTime><Timestamp dt:dt="int">0</Timestamp><DateUtc dt:dt="string">2015-08-21T16:13:39Z</DateUtc></StartTime><FrequencyChanges><FrequencyChange><Frequency dt:dt="r8">2612324</Frequency><Timestamp dt:dt="r8">256273194</Timestamp><Current dt:dt="r8">0</Current><DateUtc dt:dt="string">2015-08-21T16:13:39Z</DateUtc></FrequencyChange></FrequencyChanges></Clock>\n	1 ver1_main_procedure-41-1	99.940	1.0.0.880	1	kk	256765563	prawa	1	2.0.10.182	08-21-2015	2015-08-21 16:13:39	18:13:39	mezczyzna	2.0.10.92	3	6	1	1																							l	{SPACE}		no	BlockProc2		BlockList									51	Free	dl	color_green.png		-1	6	216782	310																			2					25	prime_right.png	0	216152	0	0	13	0	216152	0	216152	1	216152	20	0	-1	214653	216152	216151	0	prime_right.png	TrialProc1	left	0		0	10	216462	-216462		0	0	TrialList2	target_both.png	0	dl	-1	3	216202	260	d	574	216776															8	1	51	neut			300
1 ver1_main_procedure	41	1	22	<?xml version="1.0"?>\n<Clock xmlns:dt="urn:schemas-microsoft-com:datatypes"><Description dt:dt="string">E-Prime Primary Realtime Clock</Description><StartTime><Timestamp dt:dt="int">0</Timestamp><DateUtc dt:dt="string">2015-08-21T16:13:39Z</DateUtc></StartTime><FrequencyChanges><FrequencyChange><Frequency dt:dt="r8">2612324</Frequency><Timestamp dt:dt="r8">256273194</Timestamp><Current dt:dt="r8">0</Current><DateUtc dt:dt="string">2015-08-21T16:13:39Z</DateUtc></FrequencyChange></FrequencyChanges></Clock>\n	1 ver1_main_procedure-41-1	99.940	1.0.0.880	1	kk	256765563	prawa	1	2.0.10.182	08-21-2015	2015-08-21 16:13:39	18:13:39	mezczyzna	2.0.10.92	3	6	1	1																							l	{SPACE}		no	BlockProc2		BlockList									52	Free	dl	color_green.png		-1	8	219384	160																			1					75	prime_left.png	0	218904	0	0	13	0	218904	0	218904	1	218904	20	0	-1	217404	218904	218903	0	prime_left.png	TrialProc1	left	0		0	10	219214	-219214		0	0	TrialList2	target_both.png	0	dl	-1	3	218954	260	d	422	219376															8	1	52	neut			150
1 ver1_main_procedure	41	1	22	<?xml version="1.0"?>\n<Clock xmlns:dt="urn:schemas-microsoft-com:datatypes"><Description dt:dt="string">E-Prime Primary Realtime Clock</Description><StartTime><Timestamp dt:dt="int">0</Timestamp><DateUtc dt:dt="string">2015-08-21T16:13:39Z</DateUtc></StartTime><FrequencyChanges><FrequencyChange><Frequency dt:dt="r8">2612324</Frequency><Timestamp dt:dt="r8">256273194</Timestamp><Current dt:dt="r8">0</Current><DateUtc dt:dt="string">2015-08-21T16:13:39Z</DateUtc></FrequencyChange></FrequencyChanges></Clock>\n	1 ver1_main_procedure-41-1	99.940	1.0.0.880	1	kk	256765563	prawa	1	2.0.10.182	08-21-2015	2015-08-21 16:13:39	18:13:39	mezczyzna	2.0.10.92	3	6	1	1																							l	{SPACE}		no	BlockProc2		BlockList									53	Free	dl	color_orange.png		-1	9	221745	160																			2					75	prime_right.png	0	221355	0	0	13	0	221355	0	221355	1	221355	20	0	-1	219856	221355	221354	0	prime_right.png	TrialProc1	left	0		0	10	221665	-221665		0	0	TrialList2	target_both.png	0	dl	-1	3	221405	260	l	331	221736															8	1	53	neut			150
1 ver1_main_procedure	41	1	22	<?xml version="1.0"?>\n<Clock xmlns:dt="urn:schemas-microsoft-com:datatypes"><Description dt:dt="string">E-Prime Primary Realtime Clock</Description><StartTime><Timestamp dt:dt="int">0</Timestamp><DateUtc dt:dt="string">2015-08-21T16:13:39Z</DateUtc></StartTime><FrequencyChanges><FrequencyChange><Frequency dt:dt="r8">2612324</Frequency><Timestamp dt:dt="r8">256273194</Timestamp><Current dt:dt="r8">0</Current><DateUtc dt:dt="string">2015-08-21T16:13:39Z</DateUtc></FrequencyChange></FrequencyChanges></Clock>\n	1 ver1_main_procedure-41-1	99.940	1.0.0.880	1	kk	256765563	prawa	1	2.0.10.182	08-21-2015	2015-08-21 16:13:39	18:13:39	mezczyzna	2.0.10.92	3	6	1	1																							l	{SPACE}		no	BlockProc2		BlockList									54	Free	dl	color_green.png		-1	8	224097	460																			1					25	prime_left.png	0	223716	0	0	13	1	223717	1	223717	0	223716	20	0	-1	222217	223716	223716	0	prime_left.png	TrialProc1	left	0		0	11	224027	-224027		0	0	TrialList2	target_both.png	0	dl	-1	3	223766	261	d	322	224088															8	1	54	neut			450
1 ver1_main_procedure	41	1	22	<?xml version="1.0"?>\n<Clock xmlns:dt="urn:schemas-microsoft-com:datatypes"><Description dt:dt="string">E-Prime Primary Realtime Clock</Description><StartTime><Timestamp dt:dt="int">0</Timestamp><DateUtc dt:dt="string">2015-08-21T16:13:39Z</DateUtc></StartTime><FrequencyChanges><FrequencyChange><Frequency dt:dt="r8">2612324</Frequency><Timestamp dt:dt="r8">256273194</Timestamp><Current dt:dt="r8">0</Current><DateUtc dt:dt="string">2015-08-21T16:13:39Z</DateUtc></FrequencyChange></FrequencyChanges></Clock>\n	1 ver1_main_procedure-41-1	99.940	1.0.0.880	1	kk	256765563	prawa	1	2.0.10.182	08-21-2015	2015-08-21 16:13:39	18:13:39	mezczyzna	2.0.10.92	3	6	1	1																							l	{SPACE}		no	BlockProc2		BlockList									55	Free	dl	color_red.png		-1	10	226688	310																								25	prime_left.png	0	226368	0	0	13	0	226368	0	226368	1	226368	20	0	-1	224869	226368	226367	0		TrialProc1	right	0		-999999	10	226678	0		0	0	TrialList2	target_both.png	0	dl	-1	3	226418	0	l	254	226672															12	1	55	incomp			300
1 ver1_main_procedure	41	1	22	<?xml version="1.0"?>\n<Clock xmlns:dt="urn:schemas-microsoft-com:datatypes"><Description dt:dt="string">E-Prime Primary Realtime Clock</Description><StartTime><Timestamp dt:dt="int">0</Timestamp><DateUtc dt:dt="string">2015-08-21T16:13:39Z</DateUtc></StartTime><FrequencyChanges><FrequencyChange><Frequency dt:dt="r8">2612324</Frequency><Timestamp dt:dt="r8">256273194</Timestamp><Current dt:dt="r8">0</Current><DateUtc dt:dt="string">2015-08-21T16:13:39Z</DateUtc></FrequencyChange></FrequencyChanges></Clock>\n	1 ver1_main_procedure-41-1	99.940	1.0.0.880	1	kk	256765563	prawa	1	2.0.10.182	08-21-2015	2015-08-21 16:13:39	18:13:39	mezczyzna	2.0.10.92	3	6	1	1																							l	{SPACE}		no	BlockProc2		BlockList									56	Free	dl	color_green.png		-1	13	229230	160																			2					25	prime_right.png	1	228810	0	0	13	1	228810	1	228810	1	228809	20	0	-1	227310	228809	228808	0	prime_right.png	TrialProc1	right	0		0	11	229120	-229120		0	0	TrialList2	target_both.png	0	dl	-1	3	228859	261	d	357	229216															11	1	56	neut			150
1 ver1_main_procedure	41	1	22	<?xml version="1.0"?>\n<Clock xmlns:dt="urn:schemas-microsoft-com:datatypes"><Description dt:dt="string">E-Prime Primary Realtime Clock</Description><StartTime><Timestamp dt:dt="int">0</Timestamp><DateUtc dt:dt="string">2015-08-21T16:13:39Z</DateUtc></StartTime><FrequencyChanges><FrequencyChange><Frequency dt:dt="r8">2612324</Frequency><Timestamp dt:dt="r8">256273194</Timestamp><Current dt:dt="r8">0</Current><DateUtc dt:dt="string">2015-08-21T16:13:39Z</DateUtc></FrequencyChange></FrequencyChanges></Clock>\n	1 ver1_main_procedure-41-1	99.940	1.0.0.880	1	kk	256765563	prawa	1	2.0.10.182	08-21-2015	2015-08-21 16:13:39	18:13:39	mezczyzna	2.0.10.92	3	6	1	1																							l	{SPACE}		no	BlockProc2		BlockList									57	Free	dl	color_blue.png		-1	14	231591	160																								75	prime_right.png	0	231201	0	0	13	0	231201	0	231201	1	231201	20	0	-1	229702	231201	231200	0		TrialProc1	left	0		0	10	231511	-231511		0	0	TrialList2	target_both.png	0	dl	-1	3	231251	260	l	325	231576															9	1	57	incomp			150
1 ver1_main_procedure	41	1	22	<?xml version="1.0"?>\n<Clock xmlns:dt="urn:schemas-microsoft-com:datatypes"><Description dt:dt="string">E-Prime Primary Realtime Clock</Description><StartTime><Timestamp dt:dt="int">0</Timestamp><DateUtc dt:dt="string">2015-08-21T16:13:39Z</DateUtc></StartTime><FrequencyChanges><FrequencyChange><Frequency dt:dt="r8">2612324</Frequency><Timestamp dt:dt="r8">256273194</Timestamp><Current dt:dt="r8">0</Current><DateUtc dt:dt="string">2015-08-21T16:13:39Z</DateUtc></FrequencyChange></FrequencyChanges></Clock>\n	1 ver1_main_procedure-41-1	99.940	1.0.0.880	1	kk	256765563	prawa	1	2.0.10.182	08-21-2015	2015-08-21 16:13:39	18:13:39	mezczyzna	2.0.10.92	3	6	1	1																							l	{SPACE}		no	BlockProc2		BlockList									58	Free	dl	color_green.png		-1	5	233982	161																			1					75	prime_left.png	0	233562	0	0	13	0	233562	0	233562	1	233562	20	0	-1	232063	233562	233561	0	prime_left.png	TrialProc1	right	0		1	10	233872	-233872		0	0	TrialList2	target_both.png	0	dl	-1	3	233612	260	d	364	233976															11	1	58	neut			150
1 ver1_main_procedure	41	1	22	<?xml version="1.0"?>\n<Clock xmlns:dt="urn:schemas-microsoft-com:datatypes"><Description dt:dt="string">E-Prime Primary Realtime Clock</Description><StartTime><Timestamp dt:dt="int">0</Timestamp><DateUtc dt:dt="string">2015-08-21T16:13:39Z</DateUtc></StartTime><FrequencyChanges><FrequencyChange><Frequency dt:dt="r8">2612324</Frequency><Timestamp dt:dt="r8">256273194</Timestamp><Current dt:dt="r8">0</Current><DateUtc dt:dt="string">2015-08-21T16:13:39Z</DateUtc></FrequencyChange></FrequencyChanges></Clock>\n	1 ver1_main_procedure-41-1	99.940	1.0.0.880	1	kk	256765563	prawa	1	2.0.10.182	08-21-2015	2015-08-21 16:13:39	18:13:39	mezczyzna	2.0.10.92	3	6	1	1																							l	{SPACE}		no	BlockProc2		BlockList									59	Free	dl	color_orange.png		-1	10	236274	160																			2					75	prime_right.png	0	235954	0	0	13	0	235954	0	235954	1	235954	20	0	-1	234454	235954	235953	0	prime_right.png	TrialProc1	left	0		-999999	10	236264	0		0	0	TrialList2	target_both.png	0	dl	-1	3	236004	0	l	252	236256															8	1	59	neut			150
1 ver1_main_procedure	41	1	22	<?xml version="1.0"?>\n<Clock xmlns:dt="urn:schemas-microsoft-com:datatypes"><Description dt:dt="string">E-Prime Primary Realtime Clock</Description><StartTime><Timestamp dt:dt="int">0</Timestamp><DateUtc dt:dt="string">2015-08-21T16:13:39Z</DateUtc></StartTime><FrequencyChanges><FrequencyChange><Frequency dt:dt="r8">2612324</Frequency><Timestamp dt:dt="r8">256273194</Timestamp><Current dt:dt="r8">0</Current><DateUtc dt:dt="string">2015-08-21T16:13:39Z</DateUtc></FrequencyChange></FrequencyChanges></Clock>\n	1 ver1_main_procedure-41-1	99.940	1.0.0.880	1	kk	256765563	prawa	1	2.0.10.182	08-21-2015	2015-08-21 16:13:39	18:13:39	mezczyzna	2.0.10.92	3	6	1	1																							l	{SPACE}		no	BlockProc2		BlockList									60	Free	dl	color_green.png		-1	8	238625	460																			1					75	prime_left.png	0	238245	0	0	13	0	238245	0	238245	1	238245	20	0	-1	236747	238245	238244	0	prime_left.png	TrialProc1	right	0		0	10	238555	-238555		0	0	TrialList2	target_both.png	0	dl	-1	3	238295	260	d	321	238616															11	1	60	neut			450
1 ver1_main_procedure	41	1	22	<?xml version="1.0"?>\n<Clock xmlns:dt="urn:schemas-microsoft-com:datatypes"><Description dt:dt="string">E-Prime Primary Realtime Clock</Description><StartTime><Timestamp dt:dt="int">0</Timestamp><DateUtc dt:dt="string">2015-08-21T16:13:39Z</DateUtc></StartTime><FrequencyChanges><FrequencyChange><Frequency dt:dt="r8">2612324</Frequency><Timestamp dt:dt="r8">256273194</Timestamp><Current dt:dt="r8">0</Current><DateUtc dt:dt="string">2015-08-21T16:13:39Z</DateUtc></FrequencyChange></FrequencyChanges></Clock>\n	1 ver1_main_procedure-41-1	99.940	1.0.0.880	1	kk	256765563	prawa	1	2.0.10.182	08-21-2015	2015-08-21 16:13:39	18:13:39	mezczyzna	2.0.10.92	3	6	1	1																							l	{SPACE}		no	BlockProc2		BlockList									61	Free	dl	color_purple.png		-1	8	241377	460																								75	prime_left.png	1	240897	0	0	13	1	240897	1	240897	0	240896	20	0	-1	239397	240896	240896	0		TrialProc1	left	0		0	11	241207	-241207		0	0	TrialList2	target_both.png	0	dl	-1	3	240946	261	d	422	241368															7	1	61	comp			450
1 ver1_main_procedure	41	1	22	<?xml version="1.0"?>\n<Clock xmlns:dt="urn:schemas-microsoft-com:datatypes"><Description dt:dt="string">E-Prime Primary Realtime Clock</Description><StartTime><Timestamp dt:dt="int">0</Timestamp><DateUtc dt:dt="string">2015-08-21T16:13:39Z</DateUtc></StartTime><FrequencyChanges><FrequencyChange><Frequency dt:dt="r8">2612324</Frequency><Timestamp dt:dt="r8">256273194</Timestamp><Current dt:dt="r8">0</Current><DateUtc dt:dt="string">2015-08-21T16:13:39Z</DateUtc></FrequencyChange></FrequencyChanges></Clock>\n	1 ver1_main_procedure-41-1	99.940	1.0.0.880	1	kk	256765563	prawa	1	2.0.10.182	08-21-2015	2015-08-21 16:13:39	18:13:39	mezczyzna	2.0.10.92	3	6	1	1																							l	{SPACE}		no	BlockProc2		BlockList									62	Free	dl	color_red.png		-1	11	244028	311																								75	prime_left.png	0	243648	0	0	13	0	243648	0	243648	1	243648	20	0	-1	242149	243648	243647	0		TrialProc1	right	0		0	10	243958	-243958		0	0	TrialList2	target_both.png	0	dl	-1	3	243698	260	l	318	244016															12	1	62	incomp			300
1 ver1_main_procedure	41	1	22	<?xml version="1.0"?>\n<Clock xmlns:dt="urn:schemas-microsoft-com:datatypes"><Description dt:dt="string">E-Prime Primary Realtime Clock</Description><StartTime><Timestamp dt:dt="int">0</Timestamp><DateUtc dt:dt="string">2015-08-21T16:13:39Z</DateUtc></StartTime><FrequencyChanges><FrequencyChange><Frequency dt:dt="r8">2612324</Frequency><Timestamp dt:dt="r8">256273194</Timestamp><Current dt:dt="r8">0</Current><DateUtc dt:dt="string">2015-08-21T16:13:39Z</DateUtc></FrequencyChange></FrequencyChanges></Clock>\n	1 ver1_main_procedure-41-1	99.940	1.0.0.880	1	kk	256765563	prawa	1	2.0.10.182	08-21-2015	2015-08-21 16:13:39	18:13:39	mezczyzna	2.0.10.92	3	6	1	1																							l	{SPACE}		no	BlockProc2		BlockList									63	Cued	d	color_yellow.png		-1	5	246590	160																								25	prime_right.png	0	246150	0	0	13	0	246150	0	246150	1	246150	20	0	-1	244651	246150	246149	0		TrialProc1	left	0		0	10	246460	-246460		0	0	TrialList2	target_left.png	1	d	-1	3	246200	260	d	384	246584															3	1	63	incomp			150
1 ver1_main_procedure	41	1	22	<?xml version="1.0"?>\n<Clock xmlns:dt="urn:schemas-microsoft-com:datatypes"><Description dt:dt="string">E-Prime Primary Realtime Clock</Description><StartTime><Timestamp dt:dt="int">0</Timestamp><DateUtc dt:dt="string">2015-08-21T16:13:39Z</DateUtc></StartTime><FrequencyChanges><FrequencyChange><Frequency dt:dt="r8">2612324</Frequency><Timestamp dt:dt="r8">256273194</Timestamp><Current dt:dt="r8">0</Current><DateUtc dt:dt="string">2015-08-21T16:13:39Z</DateUtc></FrequencyChange></FrequencyChanges></Clock>\n	1 ver1_main_procedure-41-1	99.940	1.0.0.880	1	kk	256765563	prawa	1	2.0.10.182	08-21-2015	2015-08-21 16:13:39	18:13:39	mezczyzna	2.0.10.92	3	6	1	1																							l	{SPACE}		no	BlockProc2		BlockList									64	Free	dl	color_green.png		-1	6	248951	160																			2					25	prime_right.png	0	248561	0	0	13	0	248561	0	248561	1	248561	20	0	-1	247062	248561	248560	0	prime_right.png	TrialProc1	left	0		0	10	248871	-248871		0	0	TrialList2	target_both.png	0	dl	-1	3	248611	260	d	333	248944															8	1	64	neut			150
1 ver1_main_procedure	41	1	22	<?xml version="1.0"?>\n<Clock xmlns:dt="urn:schemas-microsoft-com:datatypes"><Description dt:dt="string">E-Prime Primary Realtime Clock</Description><StartTime><Timestamp dt:dt="int">0</Timestamp><DateUtc dt:dt="string">2015-08-21T16:13:39Z</DateUtc></StartTime><FrequencyChanges><FrequencyChange><Frequency dt:dt="r8">2612324</Frequency><Timestamp dt:dt="r8">256273194</Timestamp><Current dt:dt="r8">0</Current><DateUtc dt:dt="string">2015-08-21T16:13:39Z</DateUtc></FrequencyChange></FrequencyChanges></Clock>\n	1 ver1_main_procedure-41-1	99.940	1.0.0.880	1	kk	256765563	prawa	1	2.0.10.182	08-21-2015	2015-08-21 16:13:39	18:13:39	mezczyzna	2.0.10.92	3	6	1	1																							l	{SPACE}		no	BlockProc2		BlockList									65	Free	dl	color_red.png		-1	12	251333	160																								75	prime_left.png	1	250923	0	0	13	1	250923	1	250923	1	250922	20	0	-1	249423	250922	250921	0		TrialProc1	right	0		0	11	251233	-251233		0	0	TrialList2	target_both.png	0	dl	-1	3	250972	261	l	348	251320															12	1	65	incomp			150
1 ver1_main_procedure	41	1	22	<?xml version="1.0"?>\n<Clock xmlns:dt="urn:schemas-microsoft-com:datatypes"><Description dt:dt="string">E-Prime Primary Realtime Clock</Description><StartTime><Timestamp dt:dt="int">0</Timestamp><DateUtc dt:dt="string">2015-08-21T16:13:39Z</DateUtc></StartTime><FrequencyChanges><FrequencyChange><Frequency dt:dt="r8">2612324</Frequency><Timestamp dt:dt="r8">256273194</Timestamp><Current dt:dt="r8">0</Current><DateUtc dt:dt="string">2015-08-21T16:13:39Z</DateUtc></FrequencyChange></FrequencyChanges></Clock>\n	1 ver1_main_procedure-41-1	99.940	1.0.0.880	1	kk	256765563	prawa	1	2.0.10.182	08-21-2015	2015-08-21 16:13:39	18:13:39	mezczyzna	2.0.10.92	3	6	1	1																							l	{SPACE}		no	BlockProc2		BlockList									66	Free	dl	color_purple.png		-1	9	253674	160																								25	prime_left.png	0	253304	0	0	13	0	253304	0	253304	1	253304	20	0	-1	251805	253304	253303	0		TrialProc1	left	0		0	10	253614	-253614		0	0	TrialList2	target_both.png	0	dl	-1	3	253354	260	d	310	253664															7	1	66	comp			150
1 ver1_main_procedure	41	1	22	<?xml version="1.0"?>\n<Clock xmlns:dt="urn:schemas-microsoft-com:datatypes"><Description dt:dt="string">E-Prime Primary Realtime Clock</Description><StartTime><Timestamp dt:dt="int">0</Timestamp><DateUtc dt:dt="string">2015-08-21T16:13:39Z</DateUtc></StartTime><FrequencyChanges><FrequencyChange><Frequency dt:dt="r8">2612324</Frequency><Timestamp dt:dt="r8">256273194</Timestamp><Current dt:dt="r8">0</Current><DateUtc dt:dt="string">2015-08-21T16:13:39Z</DateUtc></FrequencyChange></FrequencyChanges></Clock>\n	1 ver1_main_procedure-41-1	99.940	1.0.0.880	1	kk	256765563	prawa	1	2.0.10.182	08-21-2015	2015-08-21 16:13:39	18:13:39	mezczyzna	2.0.10.92	3	6	1	1																							l	{SPACE}		no	BlockProc2		BlockList									67	Cued	l	color_orange.png		-1	10	256115	311																			1					75	prime_left.png	0	255645	0	0	13	0	255645	0	255645	1	255645	20	0	-1	254146	255645	255644	0	prime_left.png	TrialProc1	right	0		0	10	255955	-255955		0	0	TrialList2	target_right.png	1	l	-1	3	255695	260	l	409	256104															5	1	67	neut			300
1 ver1_main_procedure	41	1	22	<?xml version="1.0"?>\n<Clock xmlns:dt="urn:schemas-microsoft-com:datatypes"><Description dt:dt="string">E-Prime Primary Realtime Clock</Description><StartTime><Timestamp dt:dt="int">0</Timestamp><DateUtc dt:dt="string">2015-08-21T16:13:39Z</DateUtc></StartTime><FrequencyChanges><FrequencyChange><Frequency dt:dt="r8">2612324</Frequency><Timestamp dt:dt="r8">256273194</Timestamp><Current dt:dt="r8">0</Current><DateUtc dt:dt="string">2015-08-21T16:13:39Z</DateUtc></FrequencyChange></FrequencyChanges></Clock>\n	1 ver1_main_procedure-41-1	99.940	1.0.0.880	1	kk	256765563	prawa	1	2.0.10.182	08-21-2015	2015-08-21 16:13:39	18:13:39	mezczyzna	2.0.10.92	3	6	1	1																							l	{SPACE}		no	BlockProc2		BlockList									68	Free	dl	color_orange.png		-1	8	258697	310																			2					75	prime_right.png	0	258237	0	0	13	0	258237	0	258237	1	258237	20	0	-1	256737	258237	258236	0	prime_right.png	TrialProc1	left	0		0	10	258547	-258547		0	0	TrialList2	target_both.png	0	dl	-1	3	258287	260	l	401	258688															8	1	68	neut			300
1 ver1_main_procedure	41	1	22	<?xml version="1.0"?>\n<Clock xmlns:dt="urn:schemas-microsoft-com:datatypes"><Description dt:dt="string">E-Prime Primary Realtime Clock</Description><StartTime><Timestamp dt:dt="int">0</Timestamp><DateUtc dt:dt="string">2015-08-21T16:13:39Z</DateUtc></StartTime><FrequencyChanges><FrequencyChange><Frequency dt:dt="r8">2612324</Frequency><Timestamp dt:dt="r8">256273194</Timestamp><Current dt:dt="r8">0</Current><DateUtc dt:dt="string">2015-08-21T16:13:39Z</DateUtc></FrequencyChange></FrequencyChanges></Clock>\n	1 ver1_main_procedure-41-1	99.940	1.0.0.880	1	kk	256765563	prawa	1	2.0.10.182	08-21-2015	2015-08-21 16:13:39	18:13:39	mezczyzna	2.0.10.92	3	6	1	1																							l	{SPACE}		no	BlockProc2		BlockList									69	Free	dl	color_yellow.png		-1	11	261188	461																								25	prime_right.png	0	260818	0	0	13	0	260818	0	260818	1	260818	20	0	-1	259319	260818	260817	0		TrialProc1	right	0		1	10	261128	-261128		0	0	TrialList2	target_both.png	0	dl	-1	3	260868	260	d	308	261176															10	1	69	comp			450
1 ver1_main_procedure	41	1	22	<?xml version="1.0"?>\n<Clock xmlns:dt="urn:schemas-microsoft-com:datatypes"><Description dt:dt="string">E-Prime Primary Realtime Clock</Description><StartTime><Timestamp dt:dt="int">0</Timestamp><DateUtc dt:dt="string">2015-08-21T16:13:39Z</DateUtc></StartTime><FrequencyChanges><FrequencyChange><Frequency dt:dt="r8">2612324</Frequency><Timestamp dt:dt="r8">256273194</Timestamp><Current dt:dt="r8">0</Current><DateUtc dt:dt="string">2015-08-21T16:13:39Z</DateUtc></FrequencyChange></FrequencyChanges></Clock>\n	1 ver1_main_procedure-41-1	99.940	1.0.0.880	1	kk	256765563	prawa	1	2.0.10.182	08-21-2015	2015-08-21 16:13:39	18:13:39	mezczyzna	2.0.10.92	3	6	1	1																							l	{SPACE}		no	BlockProc2		BlockList									70	Cued	d	color_yellow.png		-1	11	263980	460																								25	prime_right.png	0	263460	0	0	13	0	263460	0	263460	1	263460	20	0	-1	261961	263460	263459	0		TrialProc1	left	0		0	10	263770	-263770		0	0	TrialList2	target_left.png	1	d	-1	3	263510	260	d	458	263968															3	1	70	incomp			450
1 ver1_main_procedure	41	1	22	<?xml version="1.0"?>\n<Clock xmlns:dt="urn:schemas-microsoft-com:datatypes"><Description dt:dt="string">E-Prime Primary Realtime Clock</Description><StartTime><Timestamp dt:dt="int">0</Timestamp><DateUtc dt:dt="string">2015-08-21T16:13:39Z</DateUtc></StartTime><FrequencyChanges><FrequencyChange><Frequency dt:dt="r8">2612324</Frequency><Timestamp dt:dt="r8">256273194</Timestamp><Current dt:dt="r8">0</Current><DateUtc dt:dt="string">2015-08-21T16:13:39Z</DateUtc></FrequencyChange></FrequencyChanges></Clock>\n	1 ver1_main_procedure-41-1	99.940	1.0.0.880	1	kk	256765563	prawa	1	2.0.10.182	08-21-2015	2015-08-21 16:13:39	18:13:39	mezczyzna	2.0.10.92	3	6	1	1																							l	{SPACE}		no	BlockProc2		BlockList									71	Free	dl	color_red.png		-1	15	266792	460																								75	prime_left.png	0	266252	0	0	13	0	266252	0	266252	2	266252	19	0	-1	264752	266252	266250	0		TrialProc1	left	0		0	11	266562	-266562		0	0	TrialList2	target_both.png	0	dl	-1	3	266301	261	l	475	266776															7	1	71	comp			450
1 ver1_main_procedure	41	1	22	<?xml version="1.0"?>\n<Clock xmlns:dt="urn:schemas-microsoft-com:datatypes"><Description dt:dt="string">E-Prime Primary Realtime Clock</Description><StartTime><Timestamp dt:dt="int">0</Timestamp><DateUtc dt:dt="string">2015-08-21T16:13:39Z</DateUtc></StartTime><FrequencyChanges><FrequencyChange><Frequency dt:dt="r8">2612324</Frequency><Timestamp dt:dt="r8">256273194</Timestamp><Current dt:dt="r8">0</Current><DateUtc dt:dt="string">2015-08-21T16:13:39Z</DateUtc></FrequencyChange></FrequencyChanges></Clock>\n	1 ver1_main_procedure-41-1	99.940	1.0.0.880	1	kk	256765563	prawa	1	2.0.10.182	08-21-2015	2015-08-21 16:13:39	18:13:39	mezczyzna	2.0.10.92	3	6	1	1																							l	{SPACE}		no	BlockProc2		BlockList									72	Free	dl	color_green.png		-1	10	269563	310																			1					75	prime_left.png	0	269063	0	0	13	0	269063	0	269063	1	269063	20	0	-1	267564	269063	269062	0	prime_left.png	TrialProc1	right	0		0	10	269373	-269373		0	0	TrialList2	target_both.png	0	dl	-1	3	269113	260	d	439	269552															11	1	72	neut			300
1 ver1_main_procedure	41	1	22	<?xml version="1.0"?>\n<Clock xmlns:dt="urn:schemas-microsoft-com:datatypes"><Description dt:dt="string">E-Prime Primary Realtime Clock</Description><StartTime><Timestamp dt:dt="int">0</Timestamp><DateUtc dt:dt="string">2015-08-21T16:13:39Z</DateUtc></StartTime><FrequencyChanges><FrequencyChange><Frequency dt:dt="r8">2612324</Frequency><Timestamp dt:dt="r8">256273194</Timestamp><Current dt:dt="r8">0</Current><DateUtc dt:dt="string">2015-08-21T16:13:39Z</DateUtc></FrequencyChange></FrequencyChanges></Clock>\n	1 ver1_main_procedure-41-1	99.940	1.0.0.880	1	kk	256765563	prawa	1	2.0.10.182	08-21-2015	2015-08-21 16:13:39	18:13:39	mezczyzna	2.0.10.92	3	6	1	1																							l	{SPACE}		no	BlockProc2		BlockList									73									2	4	3	1	6	5	color_yellow.png	color_blue.png	color_orange.png	color_red.png	color_purple.png	color_green.png	color_red.png	color_yellow.png	color_orange.png	color_blue.png	color_green.png	color_purple.png		1	1	1	8684																						DragProc											Ocena																															
1 ver1_main_procedure	41	1	22	<?xml version="1.0"?>\n<Clock xmlns:dt="urn:schemas-microsoft-com:datatypes"><Description dt:dt="string">E-Prime Primary Realtime Clock</Description><StartTime><Timestamp dt:dt="int">0</Timestamp><DateUtc dt:dt="string">2015-08-21T16:13:39Z</DateUtc></StartTime><FrequencyChanges><FrequencyChange><Frequency dt:dt="r8">2612324</Frequency><Timestamp dt:dt="r8">256273194</Timestamp><Current dt:dt="r8">0</Current><DateUtc dt:dt="string">2015-08-21T16:13:39Z</DateUtc></FrequencyChange></FrequencyChanges></Clock>\n	1 ver1_main_procedure-41-1	99.940	1.0.0.880	1	kk	256765563	prawa	1	2.0.10.182	08-21-2015	2015-08-21 16:13:39	18:13:39	mezczyzna	2.0.10.92	3	6	1	1																							l	{SPACE}		no	BlockProc2		BlockList									74															color_yellow.png	color_blue.png	color_orange.png	color_red.png	color_purple.png	color_green.png								2	1	2																							EnterProc											Ocena												2	13	31	67	70	79														
1 ver1_main_procedure	41	1	22	<?xml version="1.0"?>\n<Clock xmlns:dt="urn:schemas-microsoft-com:datatypes"><Description dt:dt="string">E-Prime Primary Realtime Clock</Description><StartTime><Timestamp dt:dt="int">0</Timestamp><DateUtc dt:dt="string">2015-08-21T16:13:39Z</DateUtc></StartTime><FrequencyChanges><FrequencyChange><Frequency dt:dt="r8">2612324</Frequency><Timestamp dt:dt="r8">256273194</Timestamp><Current dt:dt="r8">0</Current><DateUtc dt:dt="string">2015-08-21T16:13:39Z</DateUtc></FrequencyChange></FrequencyChanges></Clock>\n	1 ver1_main_procedure-41-1	99.940	1.0.0.880	1	kk	256765563	prawa	1	2.0.10.182	08-21-2015	2015-08-21 16:13:39	18:13:39	mezczyzna	2.0.10.92	4	4	1	2																							l	{SPACE}		no	BlockProc2		BlockList									1	Free	dl	color_red.png		-1	12	312318	311																								25	prime_right.png	0	311898	0	0	13	0	311898	0	311898	1	311898	20	0	-1	310399	311898	311897	0		TrialProc1	right	0		1	10	312208	-312208		0	0	TrialList2	target_both.png	0	dl	-1	3	311948	260	l	357	312305															10	2	73	comp			300
1 ver1_main_procedure	41	1	22	<?xml version="1.0"?>\n<Clock xmlns:dt="urn:schemas-microsoft-com:datatypes"><Description dt:dt="string">E-Prime Primary Realtime Clock</Description><StartTime><Timestamp dt:dt="int">0</Timestamp><DateUtc dt:dt="string">2015-08-21T16:13:39Z</DateUtc></StartTime><FrequencyChanges><FrequencyChange><Frequency dt:dt="r8">2612324</Frequency><Timestamp dt:dt="r8">256273194</Timestamp><Current dt:dt="r8">0</Current><DateUtc dt:dt="string">2015-08-21T16:13:39Z</DateUtc></FrequencyChange></FrequencyChanges></Clock>\n	1 ver1_main_procedure-41-1	99.940	1.0.0.880	1	kk	256765563	prawa	1	2.0.10.182	08-21-2015	2015-08-21 16:13:39	18:13:39	mezczyzna	2.0.10.92	4	4	1	2																							l	{SPACE}		no	BlockProc2		BlockList									2	Free	dl	color_green.png		-1	12	314830	460																								25	prime_left.png	0	314440	0	0	13	0	314440	0	314440	1	314440	20	0	-1	312941	314440	314439	0		TrialProc1	right	0		0	10	314750	-314750		0	0	TrialList2	target_both.png	0	dl	-1	3	314490	260	d	327	314817															12	2	74	incomp			450
1 ver1_main_procedure	41	1	22	<?xml version="1.0"?>\n<Clock xmlns:dt="urn:schemas-microsoft-com:datatypes"><Description dt:dt="string">E-Prime Primary Realtime Clock</Description><StartTime><Timestamp dt:dt="int">0</Timestamp><DateUtc dt:dt="string">2015-08-21T16:13:39Z</DateUtc></StartTime><FrequencyChanges><FrequencyChange><Frequency dt:dt="r8">2612324</Frequency><Timestamp dt:dt="r8">256273194</Timestamp><Current dt:dt="r8">0</Current><DateUtc dt:dt="string">2015-08-21T16:13:39Z</DateUtc></FrequencyChange></FrequencyChanges></Clock>\n	1 ver1_main_procedure-41-1	99.940	1.0.0.880	1	kk	256765563	prawa	1	2.0.10.182	08-21-2015	2015-08-21 16:13:39	18:13:39	mezczyzna	2.0.10.92	4	4	1	2																							l	{SPACE}		no	BlockProc2		BlockList									3	Free	dl	color_green.png		-1	7	317481	161																								25	prime_left.png	0	317101	0	0	13	0	317101	0	317101	1	317101	20	0	-1	315602	317101	317100	0		TrialProc1	right	0		1	10	317411	-317411		0	0	TrialList2	target_both.png	0	dl	-1	3	317151	260	d	322	317473															12	2	75	incomp			150
1 ver1_main_procedure	41	1	22	<?xml version="1.0"?>\n<Clock xmlns:dt="urn:schemas-microsoft-com:datatypes"><Description dt:dt="string">E-Prime Primary Realtime Clock</Description><StartTime><Timestamp dt:dt="int">0</Timestamp><DateUtc dt:dt="string">2015-08-21T16:13:39Z</DateUtc></StartTime><FrequencyChanges><FrequencyChange><Frequency dt:dt="r8">2612324</Frequency><Timestamp dt:dt="r8">256273194</Timestamp><Current dt:dt="r8">0</Current><DateUtc dt:dt="string">2015-08-21T16:13:39Z</DateUtc></FrequencyChange></FrequencyChanges></Clock>\n	1 ver1_main_procedure-41-1	99.940	1.0.0.880	1	kk	256765563	prawa	1	2.0.10.182	08-21-2015	2015-08-21 16:13:39	18:13:39	mezczyzna	2.0.10.92	4	4	1	2																							l	{SPACE}		no	BlockProc2		BlockList									4	Free	dl	color_purple.png		-1	15	319873	310																								25	prime_right.png	0	319453	0	0	13	0	319453	0	319453	1	319453	20	0	-1	317953	319453	319452	0		TrialProc1	right	0		0	10	319763	-319763		0	0	TrialList2	target_both.png	0	dl	-1	3	319503	260	d	354	319857															10	2	76	comp			300
1 ver1_main_procedure	41	1	22	<?xml version="1.0"?>\n<Clock xmlns:dt="urn:schemas-microsoft-com:datatypes"><Description dt:dt="string">E-Prime Primary Realtime Clock</Description><StartTime><Timestamp dt:dt="int">0</Timestamp><DateUtc dt:dt="string">2015-08-21T16:13:39Z</DateUtc></StartTime><FrequencyChanges><FrequencyChange><Frequency dt:dt="r8">2612324</Frequency><Timestamp dt:dt="r8">256273194</Timestamp><Current dt:dt="r8">0</Current><DateUtc dt:dt="string">2015-08-21T16:13:39Z</DateUtc></FrequencyChange></FrequencyChanges></Clock>\n	1 ver1_main_procedure-41-1	99.940	1.0.0.880	1	kk	256765563	prawa	1	2.0.10.182	08-21-2015	2015-08-21 16:13:39	18:13:39	mezczyzna	2.0.10.92	4	4	1	2																							l	{SPACE}		no	BlockProc2		BlockList									5	Cued	l	color_orange.png		-1	10	322364	461																								75	prime_left.png	0	321994	0	0	13	0	321994	0	321994	1	321994	20	0	-1	320495	321994	321993	0		TrialProc1	right	0		1	10	322304	-322304		0	0	TrialList2	target_right.png	1	l	-1	3	322044	260	l	309	322353															6	2	77	incomp			450
1 ver1_main_procedure	41	1	22	<?xml version="1.0"?>\n<Clock xmlns:dt="urn:schemas-microsoft-com:datatypes"><Description dt:dt="string">E-Prime Primary Realtime Clock</Description><StartTime><Timestamp dt:dt="int">0</Timestamp><DateUtc dt:dt="string">2015-08-21T16:13:39Z</DateUtc></StartTime><FrequencyChanges><FrequencyChange><Frequency dt:dt="r8">2612324</Frequency><Timestamp dt:dt="r8">256273194</Timestamp><Current dt:dt="r8">0</Current><DateUtc dt:dt="string">2015-08-21T16:13:39Z</DateUtc></FrequencyChange></FrequencyChanges></Clock>\n	1 ver1_main_procedure-41-1	99.940	1.0.0.880	1	kk	256765563	prawa	1	2.0.10.182	08-21-2015	2015-08-21 16:13:39	18:13:39	mezczyzna	2.0.10.92	4	4	1	2																							l	{SPACE}		no	BlockProc2		BlockList									6	Free	dl	color_orange.png		-1	10	325036	310																								75	prime_left.png	0	324636	0	0	13	0	324636	0	324636	1	324636	20	0	-1	323136	324636	324635	0		TrialProc1	left	0		0	10	324946	-324946		0	0	TrialList2	target_both.png	0	dl	-1	3	324686	260	l	339	325025															7	2	78	comp			300
1 ver1_main_procedure	41	1	22	<?xml version="1.0"?>\n<Clock xmlns:dt="urn:schemas-microsoft-com:datatypes"><Description dt:dt="string">E-Prime Primary Realtime Clock</Description><StartTime><Timestamp dt:dt="int">0</Timestamp><DateUtc dt:dt="string">2015-08-21T16:13:39Z</DateUtc></StartTime><FrequencyChanges><FrequencyChange><Frequency dt:dt="r8">2612324</Frequency><Timestamp dt:dt="r8">256273194</Timestamp><Current dt:dt="r8">0</Current><DateUtc dt:dt="string">2015-08-21T16:13:39Z</DateUtc></FrequencyChange></FrequencyChanges></Clock>\n	1 ver1_main_procedure-41-1	99.940	1.0.0.880	1	kk	256765563	prawa	1	2.0.10.182	08-21-2015	2015-08-21 16:13:39	18:13:39	mezczyzna	2.0.10.92	4	4	1	2																							l	{SPACE}		no	BlockProc2		BlockList									7	Free	dl	color_yellow.png		-1	11	327557	461																			2					75	prime_right.png	0	327157	0	0	13	0	327157	0	327157	1	327157	20	0	-1	325658	327157	327156	0	prime_right.png	TrialProc1	right	0		0	10	327467	-327467		0	0	TrialList2	target_both.png	0	dl	-1	3	327207	260	l	338	327545															11	2	79	neut			450
1 ver1_main_procedure	41	1	22	<?xml version="1.0"?>\n<Clock xmlns:dt="urn:schemas-microsoft-com:datatypes"><Description dt:dt="string">E-Prime Primary Realtime Clock</Description><StartTime><Timestamp dt:dt="int">0</Timestamp><DateUtc dt:dt="string">2015-08-21T16:13:39Z</DateUtc></StartTime><FrequencyChanges><FrequencyChange><Frequency dt:dt="r8">2612324</Frequency><Timestamp dt:dt="r8">256273194</Timestamp><Current dt:dt="r8">0</Current><DateUtc dt:dt="string">2015-08-21T16:13:39Z</DateUtc></FrequencyChange></FrequencyChanges></Clock>\n	1 ver1_main_procedure-41-1	99.940	1.0.0.880	1	kk	256765563	prawa	1	2.0.10.182	08-21-2015	2015-08-21 16:13:39	18:13:39	mezczyzna	2.0.10.92	4	4	1	2																							l	{SPACE}		no	BlockProc2		BlockList									8	Free	dl	color_orange.png		-1	15	330169	160																								75	prime_left.png	0	329829	0	0	13	0	329829	0	329829	1	329829	20	0	-1	328330	329829	329828	0		TrialProc1	right	0		0	10	330139	-330139		0	0	TrialList2	target_both.png	0	dl	-1	3	329879	260	l	274	330153															12	2	80	incomp			150
1 ver1_main_procedure	41	1	22	<?xml version="1.0"?>\n<Clock xmlns:dt="urn:schemas-microsoft-com:datatypes"><Description dt:dt="string">E-Prime Primary Realtime Clock</Description><StartTime><Timestamp dt:dt="int">0</Timestamp><DateUtc dt:dt="string">2015-08-21T16:13:39Z</DateUtc></StartTime><FrequencyChanges><FrequencyChange><Frequency dt:dt="r8">2612324</Frequency><Timestamp dt:dt="r8">256273194</Timestamp><Current dt:dt="r8">0</Current><DateUtc dt:dt="string">2015-08-21T16:13:39Z</DateUtc></FrequencyChange></FrequencyChanges></Clock>\n	1 ver1_main_procedure-41-1	99.940	1.0.0.880	1	kk	256765563	prawa	1	2.0.10.182	08-21-2015	2015-08-21 16:13:39	18:13:39	mezczyzna	2.0.10.92	4	4	1	2																							l	{SPACE}		no	BlockProc2		BlockList									9	Cued	d	color_blue.png		-1	6	332520	310																			1					75	prime_left.png	0	332140	0	0	13	0	332140	0	332140	1	332140	20	0	-1	330641	332140	332139	0	prime_left.png	TrialProc1	left	0		0	10	332450	-332450		0	0	TrialList2	target_left.png	1	d	-1	3	332190	260	d	323	332513															2	2	81	neut			300
