ExperimentName	Subject	Session	Age	Clock.Information	DataFile.Basename	Display.RefreshRate	ExperimentVersion	Group	Name	RandomSeed	Recznosc	ResearcherID	RuntimeVersion	SessionDate	SessionStartDateTimeUtc	SessionTime	Sex	StudioVersion	Block	BlockList	BlockList.Cycle	BlockList.Sample	BlockNumber	GoodBye.RESP	GoodBye2.RESP	GoodByeList	GoodByeList.Cycle	GoodByeList.Sample	InstrList	InstrList.Cycle	InstrList.Sample	Instructions3.RESP	Instructions4.RESP	Instructions5.RESP	kobieta_S1	kobieta_S2	kobieta_S3	kobieta_S4	kobieta_S5	mezczyzna_S1	mezczyzna_S2	mezczyzna_S3	mezczyzna_S4	mezczyzna_S5	NextBlock.RESP	NextBlock0.RESP	planowanie	PracticeMode	Procedure[Block]	proszenie	Running[Block]	TrainingList	TrainingList.Cycle	TrainingList.Sample	WordList	WordList1	wykonanie	zauwazenie	zrozumienie	Trial	ChoiceType	CorrectRespon	Effect	ErrorText	Fixation2.DurationError	Fixation2.OnsetDelay	Fixation2.OnsetTime	Fixation2.OnsetToOnsetTime	GoalRespInd1	GoalRespInd2	GoalRespInd3	GoalRespInd4	GoalRespInd5	GoalRespInd6	GoalRespName1	GoalRespName2	GoalRespName3	GoalRespName4	GoalRespName5	GoalRespName6	kol1	kol2	kol3	kol4	kol5	kol6	NeutralPrimeList1	Ocena	Ocena.Cycle	Ocena.Sample	OverallRT	Posit	Prime	Prime.ActionDelay	Prime.ActionTime	Prime.CustomOffsetTime	Prime.CustomOnsetTime	Prime.Duration	Prime.DurationError	Prime.FinishTime	Prime.OffsetDelay	Prime.OffsetTime	Prime.OnsetDelay	Prime.OnsetTime	Prime.OnsetToOnsetTime	Prime.PendingInputMasks	Prime.PreRelease	Prime.StartTime	Prime.TargetOffsetTime	Prime.TargetOnsetTime	Prime.TimingMode	PrimeChoice	Procedure[Trial]	Resp	RespWin.ACC	RespWin.CRESP	RespWin.DurationError	RespWin.OnsetDelay	RespWin.OnsetTime	RespWin.OnsetToOnsetTime	RespWin.RESP	RespWin.RT	RespWin.RTTime	Running[Trial]	Target	TargetSlide.ACC	TargetSlide.CRESP	TargetSlide.DurationError	TargetSlide.OnsetDelay	TargetSlide.OnsetTime	TargetSlide.OnsetToOnsetTime	TargetSlide.RESP	TargetSlide.RT	TargetSlide.RTTime	TargetTraining	TBox1	TBox2	TBox3	TBox4	TBox5	TBox6	TrainingList1	TrainingList1.Cycle	TrainingList1.Sample	TrCorrectResp	TrialList1	TrialList1.Cycle	TrialList1.Sample	TrialList2	TrialList2.Cycle	TrialList2.Sample	TrialType	TrPosit	TrWaitTime	WaitTime
1 ver1_main_procedure	7	1	26	<?xml version="1.0"?>\n<Clock xmlns:dt="urn:schemas-microsoft-com:datatypes"><Description dt:dt="string">E-Prime Primary Realtime Clock</Description><StartTime><Timestamp dt:dt="int">0</Timestamp><DateUtc dt:dt="string">2015-08-10T14:17:26Z</DateUtc></StartTime><FrequencyChanges><FrequencyChange><Frequency dt:dt="r8">2612324</Frequency><Timestamp dt:dt="r8">70018280764</Timestamp><Current dt:dt="r8">0</Current><DateUtc dt:dt="string">2015-08-10T14:17:26Z</DateUtc></FrequencyChange></FrequencyChanges></Clock>\n	1 ver1_main_procedure-7-1	99.936	1.0.0.880	1	pk	1299308176	prawa	1	2.0.10.182	08-10-2015	2015-08-10 14:17:27	16:17:27	mezczyzna	2.0.10.92	1										1	1	1	{SPACE}	{SPACE}	d	poproszona	planowała	zrozumiałaś	wykonała		poproszony	planował	zrozumiałeś	wykonał				planował		InstrProc	poproszony	InstrList				1		wykonał		zrozumiałeś																																																																																																
1 ver1_main_procedure	7	1	26	<?xml version="1.0"?>\n<Clock xmlns:dt="urn:schemas-microsoft-com:datatypes"><Description dt:dt="string">E-Prime Primary Realtime Clock</Description><StartTime><Timestamp dt:dt="int">0</Timestamp><DateUtc dt:dt="string">2015-08-10T14:17:26Z</DateUtc></StartTime><FrequencyChanges><FrequencyChange><Frequency dt:dt="r8">2612324</Frequency><Timestamp dt:dt="r8">70018280764</Timestamp><Current dt:dt="r8">0</Current><DateUtc dt:dt="string">2015-08-10T14:17:26Z</DateUtc></FrequencyChange></FrequencyChanges></Clock>\n	1 ver1_main_procedure-7-1	99.936	1.0.0.880	1	pk	1299308176	prawa	1	2.0.10.182	08-10-2015	2015-08-10 14:17:27	16:17:27	mezczyzna	2.0.10.92	2																														TrainingProc1		TrainingList	1	1	1						1																																																					TrainProc											TrainingList1											target_right.png							2	1	1	l								25	150	
1 ver1_main_procedure	7	1	26	<?xml version="1.0"?>\n<Clock xmlns:dt="urn:schemas-microsoft-com:datatypes"><Description dt:dt="string">E-Prime Primary Realtime Clock</Description><StartTime><Timestamp dt:dt="int">0</Timestamp><DateUtc dt:dt="string">2015-08-10T14:17:26Z</DateUtc></StartTime><FrequencyChanges><FrequencyChange><Frequency dt:dt="r8">2612324</Frequency><Timestamp dt:dt="r8">70018280764</Timestamp><Current dt:dt="r8">0</Current><DateUtc dt:dt="string">2015-08-10T14:17:26Z</DateUtc></FrequencyChange></FrequencyChanges></Clock>\n	1 ver1_main_procedure-7-1	99.936	1.0.0.880	1	pk	1299308176	prawa	1	2.0.10.182	08-10-2015	2015-08-10 14:17:27	16:17:27	mezczyzna	2.0.10.92	2																														TrainingProc1		TrainingList	1	1	1						2																																																					TrainProc											TrainingList1											target_both.png							3	1	2	dl								75	450	
1 ver1_main_procedure	7	1	26	<?xml version="1.0"?>\n<Clock xmlns:dt="urn:schemas-microsoft-com:datatypes"><Description dt:dt="string">E-Prime Primary Realtime Clock</Description><StartTime><Timestamp dt:dt="int">0</Timestamp><DateUtc dt:dt="string">2015-08-10T14:17:26Z</DateUtc></StartTime><FrequencyChanges><FrequencyChange><Frequency dt:dt="r8">2612324</Frequency><Timestamp dt:dt="r8">70018280764</Timestamp><Current dt:dt="r8">0</Current><DateUtc dt:dt="string">2015-08-10T14:17:26Z</DateUtc></FrequencyChange></FrequencyChanges></Clock>\n	1 ver1_main_procedure-7-1	99.936	1.0.0.880	1	pk	1299308176	prawa	1	2.0.10.182	08-10-2015	2015-08-10 14:17:27	16:17:27	mezczyzna	2.0.10.92	2																														TrainingProc1		TrainingList	1	1	1						3																																																					TrainProc											TrainingList1											target_left.png							1	1	3	d								25	300	
1 ver1_main_procedure	7	1	26	<?xml version="1.0"?>\n<Clock xmlns:dt="urn:schemas-microsoft-com:datatypes"><Description dt:dt="string">E-Prime Primary Realtime Clock</Description><StartTime><Timestamp dt:dt="int">0</Timestamp><DateUtc dt:dt="string">2015-08-10T14:17:26Z</DateUtc></StartTime><FrequencyChanges><FrequencyChange><Frequency dt:dt="r8">2612324</Frequency><Timestamp dt:dt="r8">70018280764</Timestamp><Current dt:dt="r8">0</Current><DateUtc dt:dt="string">2015-08-10T14:17:26Z</DateUtc></FrequencyChange></FrequencyChanges></Clock>\n	1 ver1_main_procedure-7-1	99.936	1.0.0.880	1	pk	1299308176	prawa	1	2.0.10.182	08-10-2015	2015-08-10 14:17:27	16:17:27	mezczyzna	2.0.10.92	2																														TrainingProc1		TrainingList	1	1	1						4																																																					TrainProc											TrainingList1											target_both.png							3	1	4	dl								25	300	
1 ver1_main_procedure	7	1	26	<?xml version="1.0"?>\n<Clock xmlns:dt="urn:schemas-microsoft-com:datatypes"><Description dt:dt="string">E-Prime Primary Realtime Clock</Description><StartTime><Timestamp dt:dt="int">0</Timestamp><DateUtc dt:dt="string">2015-08-10T14:17:26Z</DateUtc></StartTime><FrequencyChanges><FrequencyChange><Frequency dt:dt="r8">2612324</Frequency><Timestamp dt:dt="r8">70018280764</Timestamp><Current dt:dt="r8">0</Current><DateUtc dt:dt="string">2015-08-10T14:17:26Z</DateUtc></FrequencyChange></FrequencyChanges></Clock>\n	1 ver1_main_procedure-7-1	99.936	1.0.0.880	1	pk	1299308176	prawa	1	2.0.10.182	08-10-2015	2015-08-10 14:17:27	16:17:27	mezczyzna	2.0.10.92	2																														TrainingProc1		TrainingList	1	1	1						5																																																					TrainProc											TrainingList1											target_left.png							1	1	5	d								25	450	
1 ver1_main_procedure	7	1	26	<?xml version="1.0"?>\n<Clock xmlns:dt="urn:schemas-microsoft-com:datatypes"><Description dt:dt="string">E-Prime Primary Realtime Clock</Description><StartTime><Timestamp dt:dt="int">0</Timestamp><DateUtc dt:dt="string">2015-08-10T14:17:26Z</DateUtc></StartTime><FrequencyChanges><FrequencyChange><Frequency dt:dt="r8">2612324</Frequency><Timestamp dt:dt="r8">70018280764</Timestamp><Current dt:dt="r8">0</Current><DateUtc dt:dt="string">2015-08-10T14:17:26Z</DateUtc></FrequencyChange></FrequencyChanges></Clock>\n	1 ver1_main_procedure-7-1	99.936	1.0.0.880	1	pk	1299308176	prawa	1	2.0.10.182	08-10-2015	2015-08-10 14:17:27	16:17:27	mezczyzna	2.0.10.92	2																														TrainingProc1		TrainingList	1	1	1						6																																																					TrainProc											TrainingList1											target_right.png							2	1	6	l								75	450	
1 ver1_main_procedure	7	1	26	<?xml version="1.0"?>\n<Clock xmlns:dt="urn:schemas-microsoft-com:datatypes"><Description dt:dt="string">E-Prime Primary Realtime Clock</Description><StartTime><Timestamp dt:dt="int">0</Timestamp><DateUtc dt:dt="string">2015-08-10T14:17:26Z</DateUtc></StartTime><FrequencyChanges><FrequencyChange><Frequency dt:dt="r8">2612324</Frequency><Timestamp dt:dt="r8">70018280764</Timestamp><Current dt:dt="r8">0</Current><DateUtc dt:dt="string">2015-08-10T14:17:26Z</DateUtc></FrequencyChange></FrequencyChanges></Clock>\n	1 ver1_main_procedure-7-1	99.936	1.0.0.880	1	pk	1299308176	prawa	1	2.0.10.182	08-10-2015	2015-08-10 14:17:27	16:17:27	mezczyzna	2.0.10.92	2																														TrainingProc1		TrainingList	1	1	1						7																																																					TrainProc											TrainingList1											target_both.png							3	1	7	dl								25	150	
1 ver1_main_procedure	7	1	26	<?xml version="1.0"?>\n<Clock xmlns:dt="urn:schemas-microsoft-com:datatypes"><Description dt:dt="string">E-Prime Primary Realtime Clock</Description><StartTime><Timestamp dt:dt="int">0</Timestamp><DateUtc dt:dt="string">2015-08-10T14:17:26Z</DateUtc></StartTime><FrequencyChanges><FrequencyChange><Frequency dt:dt="r8">2612324</Frequency><Timestamp dt:dt="r8">70018280764</Timestamp><Current dt:dt="r8">0</Current><DateUtc dt:dt="string">2015-08-10T14:17:26Z</DateUtc></FrequencyChange></FrequencyChanges></Clock>\n	1 ver1_main_procedure-7-1	99.936	1.0.0.880	1	pk	1299308176	prawa	1	2.0.10.182	08-10-2015	2015-08-10 14:17:27	16:17:27	mezczyzna	2.0.10.92	2																														TrainingProc1		TrainingList	1	1	1						8																																																					TrainProc											TrainingList1											target_right.png							2	1	8	l								75	300	
1 ver1_main_procedure	7	1	26	<?xml version="1.0"?>\n<Clock xmlns:dt="urn:schemas-microsoft-com:datatypes"><Description dt:dt="string">E-Prime Primary Realtime Clock</Description><StartTime><Timestamp dt:dt="int">0</Timestamp><DateUtc dt:dt="string">2015-08-10T14:17:26Z</DateUtc></StartTime><FrequencyChanges><FrequencyChange><Frequency dt:dt="r8">2612324</Frequency><Timestamp dt:dt="r8">70018280764</Timestamp><Current dt:dt="r8">0</Current><DateUtc dt:dt="string">2015-08-10T14:17:26Z</DateUtc></FrequencyChange></FrequencyChanges></Clock>\n	1 ver1_main_procedure-7-1	99.936	1.0.0.880	1	pk	1299308176	prawa	1	2.0.10.182	08-10-2015	2015-08-10 14:17:27	16:17:27	mezczyzna	2.0.10.92	2																														TrainingProc1		TrainingList	1	1	1						9																																																					TrainProc											TrainingList1											target_left.png							1	1	9	d								75	450	
1 ver1_main_procedure	7	1	26	<?xml version="1.0"?>\n<Clock xmlns:dt="urn:schemas-microsoft-com:datatypes"><Description dt:dt="string">E-Prime Primary Realtime Clock</Description><StartTime><Timestamp dt:dt="int">0</Timestamp><DateUtc dt:dt="string">2015-08-10T14:17:26Z</DateUtc></StartTime><FrequencyChanges><FrequencyChange><Frequency dt:dt="r8">2612324</Frequency><Timestamp dt:dt="r8">70018280764</Timestamp><Current dt:dt="r8">0</Current><DateUtc dt:dt="string">2015-08-10T14:17:26Z</DateUtc></FrequencyChange></FrequencyChanges></Clock>\n	1 ver1_main_procedure-7-1	99.936	1.0.0.880	1	pk	1299308176	prawa	1	2.0.10.182	08-10-2015	2015-08-10 14:17:27	16:17:27	mezczyzna	2.0.10.92	3	3	1	1																							d	{SPACE}		no	BlockProc1		BlockList									1	Cued	l	color_blue.png		-1	12	197313	310																								75	prime_right.png	0	196903	0	0	13	0	196903	0	196903	1	196903	20	0	-1	195404	196903	196902	0		TrialProc1	right	0		0	20	197223	-197223		0	0	TrialList1	target_right.png	1	l	-1	3	196953	270	l	346	197299												4	1	1				comp			300
1 ver1_main_procedure	7	1	26	<?xml version="1.0"?>\n<Clock xmlns:dt="urn:schemas-microsoft-com:datatypes"><Description dt:dt="string">E-Prime Primary Realtime Clock</Description><StartTime><Timestamp dt:dt="int">0</Timestamp><DateUtc dt:dt="string">2015-08-10T14:17:26Z</DateUtc></StartTime><FrequencyChanges><FrequencyChange><Frequency dt:dt="r8">2612324</Frequency><Timestamp dt:dt="r8">70018280764</Timestamp><Current dt:dt="r8">0</Current><DateUtc dt:dt="string">2015-08-10T14:17:26Z</DateUtc></FrequencyChange></FrequencyChanges></Clock>\n	1 ver1_main_procedure-7-1	99.936	1.0.0.880	1	pk	1299308176	prawa	1	2.0.10.182	08-10-2015	2015-08-10 14:17:27	16:17:27	mezczyzna	2.0.10.92	3	3	1	1																							d	{SPACE}		no	BlockProc1		BlockList									2	Cued	d	color_green.png		-1	10	199814	161																								75	prime_left.png	0	199434	0	0	13	0	199434	0	199434	1	199434	20	0	-1	197935	199434	199433	0		TrialProc1	left	0		1	10	199744	-199744		0	0	TrialList1	target_left.png	1	d	-1	3	199484	260	d	319	199803												1	1	2				comp			150
1 ver1_main_procedure	7	1	26	<?xml version="1.0"?>\n<Clock xmlns:dt="urn:schemas-microsoft-com:datatypes"><Description dt:dt="string">E-Prime Primary Realtime Clock</Description><StartTime><Timestamp dt:dt="int">0</Timestamp><DateUtc dt:dt="string">2015-08-10T14:17:26Z</DateUtc></StartTime><FrequencyChanges><FrequencyChange><Frequency dt:dt="r8">2612324</Frequency><Timestamp dt:dt="r8">70018280764</Timestamp><Current dt:dt="r8">0</Current><DateUtc dt:dt="string">2015-08-10T14:17:26Z</DateUtc></FrequencyChange></FrequencyChanges></Clock>\n	1 ver1_main_procedure-7-1	99.936	1.0.0.880	1	pk	1299308176	prawa	1	2.0.10.182	08-10-2015	2015-08-10 14:17:27	16:17:27	mezczyzna	2.0.10.92	3	3	1	1																							d	{SPACE}		no	BlockProc1		BlockList									3	Free	dl	color_blue.png		-1	6	202426	460																								25	prime_right.png	0	201786	0	0	13	0	201786	0	201786	1	201786	20	0	-1	200286	201786	201785	0		TrialProc1	right	0		0	10	202096	-202096		0	0	TrialList1	target_both.png	0	dl	-1	3	201836	260	l	583	202419												10	1	3				comp			450
1 ver1_main_procedure	7	1	26	<?xml version="1.0"?>\n<Clock xmlns:dt="urn:schemas-microsoft-com:datatypes"><Description dt:dt="string">E-Prime Primary Realtime Clock</Description><StartTime><Timestamp dt:dt="int">0</Timestamp><DateUtc dt:dt="string">2015-08-10T14:17:26Z</DateUtc></StartTime><FrequencyChanges><FrequencyChange><Frequency dt:dt="r8">2612324</Frequency><Timestamp dt:dt="r8">70018280764</Timestamp><Current dt:dt="r8">0</Current><DateUtc dt:dt="string">2015-08-10T14:17:26Z</DateUtc></FrequencyChange></FrequencyChanges></Clock>\n	1 ver1_main_procedure-7-1	99.936	1.0.0.880	1	pk	1299308176	prawa	1	2.0.10.182	08-10-2015	2015-08-10 14:17:27	16:17:27	mezczyzna	2.0.10.92	3	3	1	1																							d	{SPACE}		no	BlockProc1		BlockList									4	Cued	l	color_red.png		-1	14	205178	160																			1					75	prime_left.png	1	204698	0	0	13	1	204698	1	204698	1	204697	20	0	-1	203198	204697	204696	0	prime_left.png	TrialProc1	right	0		0	11	205008	-205008		0	0	TrialList1	target_right.png	1	l	-1	3	204747	261	l	416	205163												5	1	4				neut			150
1 ver1_main_procedure	7	1	26	<?xml version="1.0"?>\n<Clock xmlns:dt="urn:schemas-microsoft-com:datatypes"><Description dt:dt="string">E-Prime Primary Realtime Clock</Description><StartTime><Timestamp dt:dt="int">0</Timestamp><DateUtc dt:dt="string">2015-08-10T14:17:26Z</DateUtc></StartTime><FrequencyChanges><FrequencyChange><Frequency dt:dt="r8">2612324</Frequency><Timestamp dt:dt="r8">70018280764</Timestamp><Current dt:dt="r8">0</Current><DateUtc dt:dt="string">2015-08-10T14:17:26Z</DateUtc></FrequencyChange></FrequencyChanges></Clock>\n	1 ver1_main_procedure-7-1	99.936	1.0.0.880	1	pk	1299308176	prawa	1	2.0.10.182	08-10-2015	2015-08-10 14:17:27	16:17:27	mezczyzna	2.0.10.92	3	3	1	1																							d	{SPACE}		no	BlockProc1		BlockList									5	Free	dl	color_orange.png		-1	13	207769	460																								25	prime_left.png	0	207149	0	0	13	0	207149	0	207149	1	207149	20	0	-1	205650	207149	207148	0		TrialProc1	right	0		0	10	207459	-207459		0	0	TrialList1	target_both.png	0	dl	-1	3	207199	260	l	556	207755												12	1	5				incomp			450
1 ver1_main_procedure	7	1	26	<?xml version="1.0"?>\n<Clock xmlns:dt="urn:schemas-microsoft-com:datatypes"><Description dt:dt="string">E-Prime Primary Realtime Clock</Description><StartTime><Timestamp dt:dt="int">0</Timestamp><DateUtc dt:dt="string">2015-08-10T14:17:26Z</DateUtc></StartTime><FrequencyChanges><FrequencyChange><Frequency dt:dt="r8">2612324</Frequency><Timestamp dt:dt="r8">70018280764</Timestamp><Current dt:dt="r8">0</Current><DateUtc dt:dt="string">2015-08-10T14:17:26Z</DateUtc></FrequencyChange></FrequencyChanges></Clock>\n	1 ver1_main_procedure-7-1	99.936	1.0.0.880	1	pk	1299308176	prawa	1	2.0.10.182	08-10-2015	2015-08-10 14:17:27	16:17:27	mezczyzna	2.0.10.92	3	3	1	1																							d	{SPACE}		no	BlockProc1		BlockList									6	Cued	d	color_green.png		-1	11	210551	310																								25	prime_left.png	1	210041	0	0	13	1	210041	1	210041	0	210040	21	0	-1	208541	210040	210040	0		TrialProc1	left	0		0	10	210351	-210351		0	0	TrialList1	target_left.png	1	d	-1	3	210091	260	d	448	210539												1	1	6				comp			300
1 ver1_main_procedure	7	1	26	<?xml version="1.0"?>\n<Clock xmlns:dt="urn:schemas-microsoft-com:datatypes"><Description dt:dt="string">E-Prime Primary Realtime Clock</Description><StartTime><Timestamp dt:dt="int">0</Timestamp><DateUtc dt:dt="string">2015-08-10T14:17:26Z</DateUtc></StartTime><FrequencyChanges><FrequencyChange><Frequency dt:dt="r8">2612324</Frequency><Timestamp dt:dt="r8">70018280764</Timestamp><Current dt:dt="r8">0</Current><DateUtc dt:dt="string">2015-08-10T14:17:26Z</DateUtc></FrequencyChange></FrequencyChanges></Clock>\n	1 ver1_main_procedure-7-1	99.936	1.0.0.880	1	pk	1299308176	prawa	1	2.0.10.182	08-10-2015	2015-08-10 14:17:27	16:17:27	mezczyzna	2.0.10.92	3	3	1	1																							d	{SPACE}		no	BlockProc1		BlockList									7	Cued	l	color_red.png		-1	8	213052	461																			2					75	prime_right.png	0	212672	0	0	13	0	212672	0	212672	1	212672	20	0	-1	211173	212672	212671	0	prime_right.png	TrialProc1	right	0		0	10	212982	-212982		0	0	TrialList1	target_right.png	1	l	-1	3	212722	260	l	321	213043												5	1	7				neut			450
1 ver1_main_procedure	7	1	26	<?xml version="1.0"?>\n<Clock xmlns:dt="urn:schemas-microsoft-com:datatypes"><Description dt:dt="string">E-Prime Primary Realtime Clock</Description><StartTime><Timestamp dt:dt="int">0</Timestamp><DateUtc dt:dt="string">2015-08-10T14:17:26Z</DateUtc></StartTime><FrequencyChanges><FrequencyChange><Frequency dt:dt="r8">2612324</Frequency><Timestamp dt:dt="r8">70018280764</Timestamp><Current dt:dt="r8">0</Current><DateUtc dt:dt="string">2015-08-10T14:17:26Z</DateUtc></FrequencyChange></FrequencyChanges></Clock>\n	1 ver1_main_procedure-7-1	99.936	1.0.0.880	1	pk	1299308176	prawa	1	2.0.10.182	08-10-2015	2015-08-10 14:17:27	16:17:27	mezczyzna	2.0.10.92	3	3	1	1																							d	{SPACE}		no	BlockProc1		BlockList									8	Cued	l	color_orange.png		-1	14	215754	460																								25	prime_left.png	0	215324	0	0	13	0	215324	0	215324	1	215324	20	0	-1	213824	215324	215323	0		TrialProc1	right	0		0	10	215634	-215634		0	0	TrialList1	target_right.png	1	l	-1	3	215374	260	l	365	215739												6	1	8				incomp			450
1 ver1_main_procedure	7	1	26	<?xml version="1.0"?>\n<Clock xmlns:dt="urn:schemas-microsoft-com:datatypes"><Description dt:dt="string">E-Prime Primary Realtime Clock</Description><StartTime><Timestamp dt:dt="int">0</Timestamp><DateUtc dt:dt="string">2015-08-10T14:17:26Z</DateUtc></StartTime><FrequencyChanges><FrequencyChange><Frequency dt:dt="r8">2612324</Frequency><Timestamp dt:dt="r8">70018280764</Timestamp><Current dt:dt="r8">0</Current><DateUtc dt:dt="string">2015-08-10T14:17:26Z</DateUtc></FrequencyChange></FrequencyChanges></Clock>\n	1 ver1_main_procedure-7-1	99.936	1.0.0.880	1	pk	1299308176	prawa	1	2.0.10.182	08-10-2015	2015-08-10 14:17:27	16:17:27	mezczyzna	2.0.10.92	3	3	1	1																							d	{SPACE}		no	BlockProc1		BlockList									9	Cued	l	color_orange.png		-1	9	218445	311																								75	prime_left.png	0	218025	0	0	13	0	218025	0	218025	1	218025	20	0	-1	216526	218025	218024	0		TrialProc1	right	0		1	10	218335	-218335		0	0	TrialList1	target_right.png	1	l	-1	3	218075	260	l	360	218435												6	1	9				incomp			300
1 ver1_main_procedure	7	1	26	<?xml version="1.0"?>\n<Clock xmlns:dt="urn:schemas-microsoft-com:datatypes"><Description dt:dt="string">E-Prime Primary Realtime Clock</Description><StartTime><Timestamp dt:dt="int">0</Timestamp><DateUtc dt:dt="string">2015-08-10T14:17:26Z</DateUtc></StartTime><FrequencyChanges><FrequencyChange><Frequency dt:dt="r8">2612324</Frequency><Timestamp dt:dt="r8">70018280764</Timestamp><Current dt:dt="r8">0</Current><DateUtc dt:dt="string">2015-08-10T14:17:26Z</DateUtc></FrequencyChange></FrequencyChanges></Clock>\n	1 ver1_main_procedure-7-1	99.936	1.0.0.880	1	pk	1299308176	prawa	1	2.0.10.182	08-10-2015	2015-08-10 14:17:27	16:17:27	mezczyzna	2.0.10.92	3	3	1	1																							d	{SPACE}		no	BlockProc1		BlockList									10	Free	dl	color_blue.png		-1	13	221097	310																								75	prime_right.png	0	220567	0	0	13	0	220567	0	220567	1	220567	20	0	-1	219067	220567	220566	0		TrialProc1	left	0		0	10	220877	-220877		0	0	TrialList1	target_both.png	0	dl	-1	3	220617	260	l	467	221084												9	1	10				incomp			300
1 ver1_main_procedure	7	1	26	<?xml version="1.0"?>\n<Clock xmlns:dt="urn:schemas-microsoft-com:datatypes"><Description dt:dt="string">E-Prime Primary Realtime Clock</Description><StartTime><Timestamp dt:dt="int">0</Timestamp><DateUtc dt:dt="string">2015-08-10T14:17:26Z</DateUtc></StartTime><FrequencyChanges><FrequencyChange><Frequency dt:dt="r8">2612324</Frequency><Timestamp dt:dt="r8">70018280764</Timestamp><Current dt:dt="r8">0</Current><DateUtc dt:dt="string">2015-08-10T14:17:26Z</DateUtc></FrequencyChange></FrequencyChanges></Clock>\n	1 ver1_main_procedure-7-1	99.936	1.0.0.880	1	pk	1299308176	prawa	1	2.0.10.182	08-10-2015	2015-08-10 14:17:27	16:17:27	mezczyzna	2.0.10.92	3	3	1	1																							d	{SPACE}		no	BlockProc1		BlockList									11	Cued	l	color_blue.png		-1	12	223568	161																								25	prime_right.png	0	223218	0	0	13	0	223218	0	223218	1	223218	20	0	-1	221719	223218	223217	0		TrialProc1	right	0		1	10	223528	-223528		0	0	TrialList1	target_right.png	1	l	-1	3	223268	260	l	288	223556												4	1	11				comp			150
1 ver1_main_procedure	7	1	26	<?xml version="1.0"?>\n<Clock xmlns:dt="urn:schemas-microsoft-com:datatypes"><Description dt:dt="string">E-Prime Primary Realtime Clock</Description><StartTime><Timestamp dt:dt="int">0</Timestamp><DateUtc dt:dt="string">2015-08-10T14:17:26Z</DateUtc></StartTime><FrequencyChanges><FrequencyChange><Frequency dt:dt="r8">2612324</Frequency><Timestamp dt:dt="r8">70018280764</Timestamp><Current dt:dt="r8">0</Current><DateUtc dt:dt="string">2015-08-10T14:17:26Z</DateUtc></FrequencyChange></FrequencyChanges></Clock>\n	1 ver1_main_procedure-7-1	99.936	1.0.0.880	1	pk	1299308176	prawa	1	2.0.10.182	08-10-2015	2015-08-10 14:17:27	16:17:27	mezczyzna	2.0.10.92	3	3	1	1																							d	{SPACE}		no	BlockProc1		BlockList									12	Free	dl	color_yellow.png		-1	14	225930	460																			1					25	prime_left.png	0	225540	0	0	13	0	225540	0	225540	1	225540	20	0	-1	224040	225540	225539	0	prime_left.png	TrialProc1	right	0		0	10	225850	-225850		0	0	TrialList1	target_both.png	0	dl	-1	3	225590	260	d	326	225916												11	1	12				neut			450
1 ver1_main_procedure	7	1	26	<?xml version="1.0"?>\n<Clock xmlns:dt="urn:schemas-microsoft-com:datatypes"><Description dt:dt="string">E-Prime Primary Realtime Clock</Description><StartTime><Timestamp dt:dt="int">0</Timestamp><DateUtc dt:dt="string">2015-08-10T14:17:26Z</DateUtc></StartTime><FrequencyChanges><FrequencyChange><Frequency dt:dt="r8">2612324</Frequency><Timestamp dt:dt="r8">70018280764</Timestamp><Current dt:dt="r8">0</Current><DateUtc dt:dt="string">2015-08-10T14:17:26Z</DateUtc></FrequencyChange></FrequencyChanges></Clock>\n	1 ver1_main_procedure-7-1	99.936	1.0.0.880	1	pk	1299308176	prawa	1	2.0.10.182	08-10-2015	2015-08-10 14:17:27	16:17:27	mezczyzna	2.0.10.92	3	3	1	1																							d	{SPACE}		no	BlockProc1		BlockList									13	Cued	d	color_purple.png		-1	7	228731	461																								25	prime_right.png	0	228201	0	0	13	0	228201	0	228201	1	228201	20	0	-1	226702	228201	228200	0		TrialProc1	left	0		0	10	228511	-228511		0	0	TrialList1	target_left.png	1	d	-1	3	228251	260	d	473	228724												3	1	13				incomp			450
1 ver1_main_procedure	7	1	26	<?xml version="1.0"?>\n<Clock xmlns:dt="urn:schemas-microsoft-com:datatypes"><Description dt:dt="string">E-Prime Primary Realtime Clock</Description><StartTime><Timestamp dt:dt="int">0</Timestamp><DateUtc dt:dt="string">2015-08-10T14:17:26Z</DateUtc></StartTime><FrequencyChanges><FrequencyChange><Frequency dt:dt="r8">2612324</Frequency><Timestamp dt:dt="r8">70018280764</Timestamp><Current dt:dt="r8">0</Current><DateUtc dt:dt="string">2015-08-10T14:17:26Z</DateUtc></FrequencyChange></FrequencyChanges></Clock>\n	1 ver1_main_procedure-7-1	99.936	1.0.0.880	1	pk	1299308176	prawa	1	2.0.10.182	08-10-2015	2015-08-10 14:17:27	16:17:27	mezczyzna	2.0.10.92	3	3	1	1																							d	{SPACE}		no	BlockProc1		BlockList									14	Cued	l	color_orange.png		-1	9	231533	160																								75	prime_left.png	0	231003	0	0	13	0	231003	0	231003	1	231003	20	0	-1	229504	231003	231002	0		TrialProc1	right	0		0	10	231313	-231313		0	0	TrialList1	target_right.png	1	l	-1	3	231053	260	l	471	231524												6	1	14				incomp			150
1 ver1_main_procedure	7	1	26	<?xml version="1.0"?>\n<Clock xmlns:dt="urn:schemas-microsoft-com:datatypes"><Description dt:dt="string">E-Prime Primary Realtime Clock</Description><StartTime><Timestamp dt:dt="int">0</Timestamp><DateUtc dt:dt="string">2015-08-10T14:17:26Z</DateUtc></StartTime><FrequencyChanges><FrequencyChange><Frequency dt:dt="r8">2612324</Frequency><Timestamp dt:dt="r8">70018280764</Timestamp><Current dt:dt="r8">0</Current><DateUtc dt:dt="string">2015-08-10T14:17:26Z</DateUtc></FrequencyChange></FrequencyChanges></Clock>\n	1 ver1_main_procedure-7-1	99.936	1.0.0.880	1	pk	1299308176	prawa	1	2.0.10.182	08-10-2015	2015-08-10 14:17:27	16:17:27	mezczyzna	2.0.10.92	3	3	1	1																							d	{SPACE}		no	BlockProc1		BlockList									15	Free	dl	color_orange.png		-1	7	234115	160																								25	prime_left.png	0	233504	0	0	13	0	233504	0	233504	1	233504	20	0	-1	232005	233504	233503	0		TrialProc1	left	0		1	10	233814	-233814		0	0	TrialList1	target_both.png	0	dl	-1	3	233554	260	l	554	234108												7	1	15				comp			150
1 ver1_main_procedure	7	1	26	<?xml version="1.0"?>\n<Clock xmlns:dt="urn:schemas-microsoft-com:datatypes"><Description dt:dt="string">E-Prime Primary Realtime Clock</Description><StartTime><Timestamp dt:dt="int">0</Timestamp><DateUtc dt:dt="string">2015-08-10T14:17:26Z</DateUtc></StartTime><FrequencyChanges><FrequencyChange><Frequency dt:dt="r8">2612324</Frequency><Timestamp dt:dt="r8">70018280764</Timestamp><Current dt:dt="r8">0</Current><DateUtc dt:dt="string">2015-08-10T14:17:26Z</DateUtc></FrequencyChange></FrequencyChanges></Clock>\n	1 ver1_main_procedure-7-1	99.936	1.0.0.880	1	pk	1299308176	prawa	1	2.0.10.182	08-10-2015	2015-08-10 14:17:27	16:17:27	mezczyzna	2.0.10.92	3	3	1	1																							d	{SPACE}		no	BlockProc1		BlockList									16	Cued	l	color_blue.png		-1	14	236706	460																								25	prime_right.png	0	236086	0	0	13	0	236086	0	236086	1	236086	20	0	-1	234587	236086	236085	0		TrialProc1	right	0		0	10	236396	-236396		0	0	TrialList1	target_right.png	1	l	-1	3	236136	260	l	556	236692												4	1	16				comp			450
1 ver1_main_procedure	7	1	26	<?xml version="1.0"?>\n<Clock xmlns:dt="urn:schemas-microsoft-com:datatypes"><Description dt:dt="string">E-Prime Primary Realtime Clock</Description><StartTime><Timestamp dt:dt="int">0</Timestamp><DateUtc dt:dt="string">2015-08-10T14:17:26Z</DateUtc></StartTime><FrequencyChanges><FrequencyChange><Frequency dt:dt="r8">2612324</Frequency><Timestamp dt:dt="r8">70018280764</Timestamp><Current dt:dt="r8">0</Current><DateUtc dt:dt="string">2015-08-10T14:17:26Z</DateUtc></FrequencyChange></FrequencyChanges></Clock>\n	1 ver1_main_procedure-7-1	99.936	1.0.0.880	1	pk	1299308176	prawa	1	2.0.10.182	08-10-2015	2015-08-10 14:17:27	16:17:27	mezczyzna	2.0.10.92	3	3	1	1																							d	{SPACE}		no	BlockProc1		BlockList									17	Cued	l	color_red.png		-1	14	239418	310																			2					75	prime_right.png	1	238978	0	0	13	1	238978	1	238978	0	238977	21	0	-1	237478	238977	238977	0	prime_right.png	TrialProc1	right	0		0	10	239288	-239288		0	0	TrialList1	target_right.png	1	l	-1	3	239028	260	l	376	239404												5	1	17				neut			300
1 ver1_main_procedure	7	1	26	<?xml version="1.0"?>\n<Clock xmlns:dt="urn:schemas-microsoft-com:datatypes"><Description dt:dt="string">E-Prime Primary Realtime Clock</Description><StartTime><Timestamp dt:dt="int">0</Timestamp><DateUtc dt:dt="string">2015-08-10T14:17:26Z</DateUtc></StartTime><FrequencyChanges><FrequencyChange><Frequency dt:dt="r8">2612324</Frequency><Timestamp dt:dt="r8">70018280764</Timestamp><Current dt:dt="r8">0</Current><DateUtc dt:dt="string">2015-08-10T14:17:26Z</DateUtc></FrequencyChange></FrequencyChanges></Clock>\n	1 ver1_main_procedure-7-1	99.936	1.0.0.880	1	pk	1299308176	prawa	1	2.0.10.182	08-10-2015	2015-08-10 14:17:27	16:17:27	mezczyzna	2.0.10.92	3	3	1	1																							d	{SPACE}		no	BlockProc1		BlockList									18	Cued	d	color_green.png		-1	7	242059	310																								25	prime_left.png	0	241539	0	0	13	0	241539	0	241539	1	241539	20	0	-1	240040	241539	241538	0		TrialProc1	left	0		0	10	241849	-241849		0	0	TrialList1	target_left.png	1	d	-1	3	241589	260	d	463	242052												1	1	18				comp			300
1 ver1_main_procedure	7	1	26	<?xml version="1.0"?>\n<Clock xmlns:dt="urn:schemas-microsoft-com:datatypes"><Description dt:dt="string">E-Prime Primary Realtime Clock</Description><StartTime><Timestamp dt:dt="int">0</Timestamp><DateUtc dt:dt="string">2015-08-10T14:17:26Z</DateUtc></StartTime><FrequencyChanges><FrequencyChange><Frequency dt:dt="r8">2612324</Frequency><Timestamp dt:dt="r8">70018280764</Timestamp><Current dt:dt="r8">0</Current><DateUtc dt:dt="string">2015-08-10T14:17:26Z</DateUtc></FrequencyChange></FrequencyChanges></Clock>\n	1 ver1_main_procedure-7-1	99.936	1.0.0.880	1	pk	1299308176	prawa	1	2.0.10.182	08-10-2015	2015-08-10 14:17:27	16:17:27	mezczyzna	2.0.10.92	3	3	1	1																							d	{SPACE}		no	BlockProc1		BlockList									19	Free	dl	color_red.png		-1	11	244591	460																			1					75	prime_left.png	0	244181	0	0	13	0	244181	0	244181	1	244181	20	0	-1	242681	244181	244180	0	prime_left.png	TrialProc1	right	0		0	10	244491	-244491		0	0	TrialList1	target_both.png	0	dl	-1	3	244231	260	l	349	244580												11	1	19				neut			450
1 ver1_main_procedure	7	1	26	<?xml version="1.0"?>\n<Clock xmlns:dt="urn:schemas-microsoft-com:datatypes"><Description dt:dt="string">E-Prime Primary Realtime Clock</Description><StartTime><Timestamp dt:dt="int">0</Timestamp><DateUtc dt:dt="string">2015-08-10T14:17:26Z</DateUtc></StartTime><FrequencyChanges><FrequencyChange><Frequency dt:dt="r8">2612324</Frequency><Timestamp dt:dt="r8">70018280764</Timestamp><Current dt:dt="r8">0</Current><DateUtc dt:dt="string">2015-08-10T14:17:26Z</DateUtc></FrequencyChange></FrequencyChanges></Clock>\n	1 ver1_main_procedure-7-1	99.936	1.0.0.880	1	pk	1299308176	prawa	1	2.0.10.182	08-10-2015	2015-08-10 14:17:27	16:17:27	mezczyzna	2.0.10.92	3	3	1	1																							d	{SPACE}		no	BlockProc1		BlockList									20	Cued	d	color_purple.png		-1	9	247302	161																								75	prime_right.png	0	246862	0	0	13	0	246862	0	246862	1	246862	20	0	-1	245363	246862	246861	0		TrialProc1	left	0		1	10	247172	-247172		0	0	TrialList1	target_left.png	1	d	-1	3	246912	260	d	380	247292												3	1	20				incomp			150
1 ver1_main_procedure	7	1	26	<?xml version="1.0"?>\n<Clock xmlns:dt="urn:schemas-microsoft-com:datatypes"><Description dt:dt="string">E-Prime Primary Realtime Clock</Description><StartTime><Timestamp dt:dt="int">0</Timestamp><DateUtc dt:dt="string">2015-08-10T14:17:26Z</DateUtc></StartTime><FrequencyChanges><FrequencyChange><Frequency dt:dt="r8">2612324</Frequency><Timestamp dt:dt="r8">70018280764</Timestamp><Current dt:dt="r8">0</Current><DateUtc dt:dt="string">2015-08-10T14:17:26Z</DateUtc></FrequencyChange></FrequencyChanges></Clock>\n	1 ver1_main_procedure-7-1	99.936	1.0.0.880	1	pk	1299308176	prawa	1	2.0.10.182	08-10-2015	2015-08-10 14:17:27	16:17:27	mezczyzna	2.0.10.92	3	3	1	1																							d	{SPACE}		no	BlockProc1		BlockList									21	Cued	l	color_blue.png		-1	10	249734	310																								75	prime_right.png	0	249274	0	0	13	0	249274	0	249274	1	249274	20	0	-1	247774	249274	249273	0		TrialProc1	right	0		0	10	249584	-249584		0	0	TrialList1	target_right.png	1	l	-1	3	249324	260	l	400	249724												4	1	21				comp			300
1 ver1_main_procedure	7	1	26	<?xml version="1.0"?>\n<Clock xmlns:dt="urn:schemas-microsoft-com:datatypes"><Description dt:dt="string">E-Prime Primary Realtime Clock</Description><StartTime><Timestamp dt:dt="int">0</Timestamp><DateUtc dt:dt="string">2015-08-10T14:17:26Z</DateUtc></StartTime><FrequencyChanges><FrequencyChange><Frequency dt:dt="r8">2612324</Frequency><Timestamp dt:dt="r8">70018280764</Timestamp><Current dt:dt="r8">0</Current><DateUtc dt:dt="string">2015-08-10T14:17:26Z</DateUtc></FrequencyChange></FrequencyChanges></Clock>\n	1 ver1_main_procedure-7-1	99.936	1.0.0.880	1	pk	1299308176	prawa	1	2.0.10.182	08-10-2015	2015-08-10 14:17:27	16:17:27	mezczyzna	2.0.10.92	3	3	1	1																							d	{SPACE}		no	BlockProc1		BlockList									22	Cued	d	color_green.png		-1	12	252385	461																								75	prime_left.png	0	251855	0	0	13	0	251855	0	251855	1	251855	20	0	-1	250356	251855	251854	0		TrialProc1	left	0		0	10	252165	-252165		0	0	TrialList1	target_left.png	1	d	-1	3	251905	260	d	467	252372												1	1	22				comp			450
1 ver1_main_procedure	7	1	26	<?xml version="1.0"?>\n<Clock xmlns:dt="urn:schemas-microsoft-com:datatypes"><Description dt:dt="string">E-Prime Primary Realtime Clock</Description><StartTime><Timestamp dt:dt="int">0</Timestamp><DateUtc dt:dt="string">2015-08-10T14:17:26Z</DateUtc></StartTime><FrequencyChanges><FrequencyChange><Frequency dt:dt="r8">2612324</Frequency><Timestamp dt:dt="r8">70018280764</Timestamp><Current dt:dt="r8">0</Current><DateUtc dt:dt="string">2015-08-10T14:17:26Z</DateUtc></FrequencyChange></FrequencyChanges></Clock>\n	1 ver1_main_procedure-7-1	99.936	1.0.0.880	1	pk	1299308176	prawa	1	2.0.10.182	08-10-2015	2015-08-10 14:17:27	16:17:27	mezczyzna	2.0.10.92	3	3	1	1																							d	{SPACE}		no	BlockProc1		BlockList									23	Cued	d			-1	6	254947	460																								75	prime_right.png	0	254657	0	0	13	0	254657	0	254657	1	254657	20	0	-1	253158	254657	254656	0		TrialProc1	left	0		0	0	0	0		0	0	TrialList1	target_left.png	0	d	-999999	3	254707	0	l	233	254940												3	1	23				incomp			450
1 ver1_main_procedure	7	1	26	<?xml version="1.0"?>\n<Clock xmlns:dt="urn:schemas-microsoft-com:datatypes"><Description dt:dt="string">E-Prime Primary Realtime Clock</Description><StartTime><Timestamp dt:dt="int">0</Timestamp><DateUtc dt:dt="string">2015-08-10T14:17:26Z</DateUtc></StartTime><FrequencyChanges><FrequencyChange><Frequency dt:dt="r8">2612324</Frequency><Timestamp dt:dt="r8">70018280764</Timestamp><Current dt:dt="r8">0</Current><DateUtc dt:dt="string">2015-08-10T14:17:26Z</DateUtc></FrequencyChange></FrequencyChanges></Clock>\n	1 ver1_main_procedure-7-1	99.936	1.0.0.880	1	pk	1299308176	prawa	1	2.0.10.182	08-10-2015	2015-08-10 14:17:27	16:17:27	mezczyzna	2.0.10.92	3	3	1	1																							d	{SPACE}		no	BlockProc1		BlockList									24	Free	dl	color_yellow.png		-1	12	257889	460																			2					25	prime_right.png	0	257218	0	0	13	0	257218	0	257218	1	257218	20	0	-1	255719	257218	257217	0	prime_right.png	TrialProc1	right	0		1	10	257528	-257528		0	0	TrialList1	target_both.png	0	dl	-1	3	257268	260	d	608	257876												11	1	24				neut			450
1 ver1_main_procedure	7	1	26	<?xml version="1.0"?>\n<Clock xmlns:dt="urn:schemas-microsoft-com:datatypes"><Description dt:dt="string">E-Prime Primary Realtime Clock</Description><StartTime><Timestamp dt:dt="int">0</Timestamp><DateUtc dt:dt="string">2015-08-10T14:17:26Z</DateUtc></StartTime><FrequencyChanges><FrequencyChange><Frequency dt:dt="r8">2612324</Frequency><Timestamp dt:dt="r8">70018280764</Timestamp><Current dt:dt="r8">0</Current><DateUtc dt:dt="string">2015-08-10T14:17:26Z</DateUtc></FrequencyChange></FrequencyChanges></Clock>\n	1 ver1_main_procedure-7-1	99.936	1.0.0.880	1	pk	1299308176	prawa	1	2.0.10.182	08-10-2015	2015-08-10 14:17:27	16:17:27	mezczyzna	2.0.10.92	3	3	1	1																							d	{SPACE}		no	BlockProc1		BlockList									25	Cued	l	color_orange.png		-1	9	260550	160																								25	prime_left.png	0	260160	0	0	13	0	260160	0	260160	1	260160	20	0	-1	258661	260160	260159	0		TrialProc1	right	0		0	10	260470	-260470		0	0	TrialList1	target_right.png	1	l	-1	3	260210	260	l	330	260540												6	1	25				incomp			150
1 ver1_main_procedure	7	1	26	<?xml version="1.0"?>\n<Clock xmlns:dt="urn:schemas-microsoft-com:datatypes"><Description dt:dt="string">E-Prime Primary Realtime Clock</Description><StartTime><Timestamp dt:dt="int">0</Timestamp><DateUtc dt:dt="string">2015-08-10T14:17:26Z</DateUtc></StartTime><FrequencyChanges><FrequencyChange><Frequency dt:dt="r8">2612324</Frequency><Timestamp dt:dt="r8">70018280764</Timestamp><Current dt:dt="r8">0</Current><DateUtc dt:dt="string">2015-08-10T14:17:26Z</DateUtc></FrequencyChange></FrequencyChanges></Clock>\n	1 ver1_main_procedure-7-1	99.936	1.0.0.880	1	pk	1299308176	prawa	1	2.0.10.182	08-10-2015	2015-08-10 14:17:27	16:17:27	mezczyzna	2.0.10.92	3	3	1	1																							d	{SPACE}		no	BlockProc1		BlockList									26	Free	dl	color_green.png		-1	11	263152	160																								75	prime_left.png	0	262521	0	0	13	0	262522	0	262521	1	262521	20	0	-1	261022	262521	262520	0		TrialProc1	right	0		0	11	262832	-262832		0	0	TrialList1	target_both.png	0	dl	-1	3	262571	261	d	569	263140												12	1	26				incomp			150
1 ver1_main_procedure	7	1	26	<?xml version="1.0"?>\n<Clock xmlns:dt="urn:schemas-microsoft-com:datatypes"><Description dt:dt="string">E-Prime Primary Realtime Clock</Description><StartTime><Timestamp dt:dt="int">0</Timestamp><DateUtc dt:dt="string">2015-08-10T14:17:26Z</DateUtc></StartTime><FrequencyChanges><FrequencyChange><Frequency dt:dt="r8">2612324</Frequency><Timestamp dt:dt="r8">70018280764</Timestamp><Current dt:dt="r8">0</Current><DateUtc dt:dt="string">2015-08-10T14:17:26Z</DateUtc></FrequencyChange></FrequencyChanges></Clock>\n	1 ver1_main_procedure-7-1	99.936	1.0.0.880	1	pk	1299308176	prawa	1	2.0.10.182	08-10-2015	2015-08-10 14:17:27	16:17:27	mezczyzna	2.0.10.92	3	3	1	1																							d	{SPACE}		no	BlockProc1		BlockList									27	Cued	l	color_orange.png		-1	14	265643	310																								75	prime_left.png	0	265123	0	0	13	0	265123	0	265123	1	265123	20	0	-1	263624	265123	265122	0		TrialProc1	right	0		0	10	265433	-265433		0	0	TrialList1	target_right.png	1	l	-1	3	265173	260	l	455	265628												6	1	27				incomp			300
1 ver1_main_procedure	7	1	26	<?xml version="1.0"?>\n<Clock xmlns:dt="urn:schemas-microsoft-com:datatypes"><Description dt:dt="string">E-Prime Primary Realtime Clock</Description><StartTime><Timestamp dt:dt="int">0</Timestamp><DateUtc dt:dt="string">2015-08-10T14:17:26Z</DateUtc></StartTime><FrequencyChanges><FrequencyChange><Frequency dt:dt="r8">2612324</Frequency><Timestamp dt:dt="r8">70018280764</Timestamp><Current dt:dt="r8">0</Current><DateUtc dt:dt="string">2015-08-10T14:17:26Z</DateUtc></FrequencyChange></FrequencyChanges></Clock>\n	1 ver1_main_procedure-7-1	99.936	1.0.0.880	1	pk	1299308176	prawa	1	2.0.10.182	08-10-2015	2015-08-10 14:17:27	16:17:27	mezczyzna	2.0.10.92	3	3	1	1																							d	{SPACE}		no	BlockProc1		BlockList									28	Cued	d	color_purple.png		-1	14	268115	160																								25	prime_right.png	0	267764	0	0	13	1	267765	1	267765	0	267764	21	0	-1	266265	267764	267764	0		TrialProc1	left	0		0	11	268075	-268075		0	0	TrialList1	target_left.png	1	d	-1	2	267814	261	d	286	268100												3	1	28				incomp			150
1 ver1_main_procedure	7	1	26	<?xml version="1.0"?>\n<Clock xmlns:dt="urn:schemas-microsoft-com:datatypes"><Description dt:dt="string">E-Prime Primary Realtime Clock</Description><StartTime><Timestamp dt:dt="int">0</Timestamp><DateUtc dt:dt="string">2015-08-10T14:17:26Z</DateUtc></StartTime><FrequencyChanges><FrequencyChange><Frequency dt:dt="r8">2612324</Frequency><Timestamp dt:dt="r8">70018280764</Timestamp><Current dt:dt="r8">0</Current><DateUtc dt:dt="string">2015-08-10T14:17:26Z</DateUtc></FrequencyChange></FrequencyChanges></Clock>\n	1 ver1_main_procedure-7-1	99.936	1.0.0.880	1	pk	1299308176	prawa	1	2.0.10.182	08-10-2015	2015-08-10 14:17:27	16:17:27	mezczyzna	2.0.10.92	3	3	1	1																							d	{SPACE}		no	BlockProc1		BlockList									29	Free	dl	color_red.png		-1	11	270376	310																			1					75	prime_left.png	0	270086	0	0	13	0	270086	0	270086	1	270086	20	0	-1	268587	270086	270085	0	prime_left.png	TrialProc1	left	0		0	0	0	0		0	0	TrialList1	target_both.png	0	dl	-999999	3	270136	0	l	228	270364												8	1	29				neut			300
1 ver1_main_procedure	7	1	26	<?xml version="1.0"?>\n<Clock xmlns:dt="urn:schemas-microsoft-com:datatypes"><Description dt:dt="string">E-Prime Primary Realtime Clock</Description><StartTime><Timestamp dt:dt="int">0</Timestamp><DateUtc dt:dt="string">2015-08-10T14:17:26Z</DateUtc></StartTime><FrequencyChanges><FrequencyChange><Frequency dt:dt="r8">2612324</Frequency><Timestamp dt:dt="r8">70018280764</Timestamp><Current dt:dt="r8">0</Current><DateUtc dt:dt="string">2015-08-10T14:17:26Z</DateUtc></FrequencyChange></FrequencyChanges></Clock>\n	1 ver1_main_procedure-7-1	99.936	1.0.0.880	1	pk	1299308176	prawa	1	2.0.10.182	08-10-2015	2015-08-10 14:17:27	16:17:27	mezczyzna	2.0.10.92	3	3	1	1																							d	{SPACE}		no	BlockProc1		BlockList									30	Cued	d	color_green.png		-1	15	273068	160																								75	prime_left.png	0	272497	0	0	13	0	272498	0	272497	1	272497	20	0	-1	270998	272497	272496	0		TrialProc1	left	0		0	10	272807	-272807		0	0	TrialList1	target_left.png	1	d	-1	3	272547	260	d	505	273052												1	1	30				comp			150
1 ver1_main_procedure	7	1	26	<?xml version="1.0"?>\n<Clock xmlns:dt="urn:schemas-microsoft-com:datatypes"><Description dt:dt="string">E-Prime Primary Realtime Clock</Description><StartTime><Timestamp dt:dt="int">0</Timestamp><DateUtc dt:dt="string">2015-08-10T14:17:26Z</DateUtc></StartTime><FrequencyChanges><FrequencyChange><Frequency dt:dt="r8">2612324</Frequency><Timestamp dt:dt="r8">70018280764</Timestamp><Current dt:dt="r8">0</Current><DateUtc dt:dt="string">2015-08-10T14:17:26Z</DateUtc></FrequencyChange></FrequencyChanges></Clock>\n	1 ver1_main_procedure-7-1	99.936	1.0.0.880	1	pk	1299308176	prawa	1	2.0.10.182	08-10-2015	2015-08-10 14:17:27	16:17:27	mezczyzna	2.0.10.92	3	3	1	1																							d	{SPACE}		no	BlockProc1		BlockList									31	Cued	d	color_green.png		-1	10	275559	310																								25	prime_left.png	0	275039	0	0	13	0	275039	0	275039	1	275039	20	0	-1	273539	275039	275038	0		TrialProc1	left	0		0	10	275349	-275349		0	0	TrialList1	target_left.png	1	d	-1	3	275089	260	d	459	275548												1	1	31				comp			300
1 ver1_main_procedure	7	1	26	<?xml version="1.0"?>\n<Clock xmlns:dt="urn:schemas-microsoft-com:datatypes"><Description dt:dt="string">E-Prime Primary Realtime Clock</Description><StartTime><Timestamp dt:dt="int">0</Timestamp><DateUtc dt:dt="string">2015-08-10T14:17:26Z</DateUtc></StartTime><FrequencyChanges><FrequencyChange><Frequency dt:dt="r8">2612324</Frequency><Timestamp dt:dt="r8">70018280764</Timestamp><Current dt:dt="r8">0</Current><DateUtc dt:dt="string">2015-08-10T14:17:26Z</DateUtc></FrequencyChange></FrequencyChanges></Clock>\n	1 ver1_main_procedure-7-1	99.936	1.0.0.880	1	pk	1299308176	prawa	1	2.0.10.182	08-10-2015	2015-08-10 14:17:27	16:17:27	mezczyzna	2.0.10.92	3	3	1	1																							d	{SPACE}		no	BlockProc1		BlockList									32	Cued	l	color_red.png		-1	9	278110	311																			2					25	prime_right.png	0	277680	0	0	13	0	277681	0	277680	1	277680	20	0	-1	276181	277680	277679	0	prime_right.png	TrialProc1	right	0		1	10	277990	-277990		0	0	TrialList1	target_right.png	1	l	-1	3	277730	260	l	370	278100												5	1	32				neut			300
1 ver1_main_procedure	7	1	26	<?xml version="1.0"?>\n<Clock xmlns:dt="urn:schemas-microsoft-com:datatypes"><Description dt:dt="string">E-Prime Primary Realtime Clock</Description><StartTime><Timestamp dt:dt="int">0</Timestamp><DateUtc dt:dt="string">2015-08-10T14:17:26Z</DateUtc></StartTime><FrequencyChanges><FrequencyChange><Frequency dt:dt="r8">2612324</Frequency><Timestamp dt:dt="r8">70018280764</Timestamp><Current dt:dt="r8">0</Current><DateUtc dt:dt="string">2015-08-10T14:17:26Z</DateUtc></FrequencyChange></FrequencyChanges></Clock>\n	1 ver1_main_procedure-7-1	99.936	1.0.0.880	1	pk	1299308176	prawa	1	2.0.10.182	08-10-2015	2015-08-10 14:17:27	16:17:27	mezczyzna	2.0.10.92	3	3	1	1																							d	{SPACE}		no	BlockProc1		BlockList									33	Cued	l	color_blue.png		-1	5	280682	310																								75	prime_right.png	0	280232	0	0	13	0	280232	0	280232	1	280232	20	0	-1	278732	280232	280231	0		TrialProc1	right	0		0	10	280542	-280542		0	0	TrialList1	target_right.png	1	l	-1	3	280282	260	l	394	280676												4	1	33				comp			300
1 ver1_main_procedure	7	1	26	<?xml version="1.0"?>\n<Clock xmlns:dt="urn:schemas-microsoft-com:datatypes"><Description dt:dt="string">E-Prime Primary Realtime Clock</Description><StartTime><Timestamp dt:dt="int">0</Timestamp><DateUtc dt:dt="string">2015-08-10T14:17:26Z</DateUtc></StartTime><FrequencyChanges><FrequencyChange><Frequency dt:dt="r8">2612324</Frequency><Timestamp dt:dt="r8">70018280764</Timestamp><Current dt:dt="r8">0</Current><DateUtc dt:dt="string">2015-08-10T14:17:26Z</DateUtc></FrequencyChange></FrequencyChanges></Clock>\n	1 ver1_main_procedure-7-1	99.936	1.0.0.880	1	pk	1299308176	prawa	1	2.0.10.182	08-10-2015	2015-08-10 14:17:27	16:17:27	mezczyzna	2.0.10.92	3	3	1	1																							d	{SPACE}		no	BlockProc1		BlockList									34	Free	dl	color_blue.png		-1	11	283264	310																								25	prime_right.png	0	282803	0	0	13	0	282803	0	282803	1	282803	20	0	-1	281304	282803	282802	0		TrialProc1	right	0		1	10	283113	-283113		0	0	TrialList1	target_both.png	0	dl	-1	3	282853	260	l	399	283252												10	1	34				comp			300
1 ver1_main_procedure	7	1	26	<?xml version="1.0"?>\n<Clock xmlns:dt="urn:schemas-microsoft-com:datatypes"><Description dt:dt="string">E-Prime Primary Realtime Clock</Description><StartTime><Timestamp dt:dt="int">0</Timestamp><DateUtc dt:dt="string">2015-08-10T14:17:26Z</DateUtc></StartTime><FrequencyChanges><FrequencyChange><Frequency dt:dt="r8">2612324</Frequency><Timestamp dt:dt="r8">70018280764</Timestamp><Current dt:dt="r8">0</Current><DateUtc dt:dt="string">2015-08-10T14:17:26Z</DateUtc></FrequencyChange></FrequencyChanges></Clock>\n	1 ver1_main_procedure-7-1	99.936	1.0.0.880	1	pk	1299308176	prawa	1	2.0.10.182	08-10-2015	2015-08-10 14:17:27	16:17:27	mezczyzna	2.0.10.92	3	3	1	1																							d	{SPACE}		no	BlockProc1		BlockList									35	Free	dl	color_orange.png		-1	12	285825	160																								75	prime_left.png	0	285385	0	0	13	0	285385	0	285385	1	285385	20	0	-1	283886	285385	285384	0		TrialProc1	left	0		0	10	285695	-285695		0	0	TrialList1	target_both.png	0	dl	-1	3	285435	260	l	377	285812												7	1	35				comp			150
1 ver1_main_procedure	7	1	26	<?xml version="1.0"?>\n<Clock xmlns:dt="urn:schemas-microsoft-com:datatypes"><Description dt:dt="string">E-Prime Primary Realtime Clock</Description><StartTime><Timestamp dt:dt="int">0</Timestamp><DateUtc dt:dt="string">2015-08-10T14:17:26Z</DateUtc></StartTime><FrequencyChanges><FrequencyChange><Frequency dt:dt="r8">2612324</Frequency><Timestamp dt:dt="r8">70018280764</Timestamp><Current dt:dt="r8">0</Current><DateUtc dt:dt="string">2015-08-10T14:17:26Z</DateUtc></FrequencyChange></FrequencyChanges></Clock>\n	1 ver1_main_procedure-7-1	99.936	1.0.0.880	1	pk	1299308176	prawa	1	2.0.10.182	08-10-2015	2015-08-10 14:17:27	16:17:27	mezczyzna	2.0.10.92	3	3	1	1																							d	{SPACE}		no	BlockProc1		BlockList									36	Cued	d	color_yellow.png		-1	10	288447	160																			1					75	prime_left.png	0	287796	0	0	13	0	287796	0	287796	1	287796	20	0	-1	286297	287796	287795	0	prime_left.png	TrialProc1	left	0		1	10	288106	-288106		0	0	TrialList1	target_left.png	1	d	-1	3	287846	260	d	590	288436												2	1	36				neut			150
1 ver1_main_procedure	7	1	26	<?xml version="1.0"?>\n<Clock xmlns:dt="urn:schemas-microsoft-com:datatypes"><Description dt:dt="string">E-Prime Primary Realtime Clock</Description><StartTime><Timestamp dt:dt="int">0</Timestamp><DateUtc dt:dt="string">2015-08-10T14:17:26Z</DateUtc></StartTime><FrequencyChanges><FrequencyChange><Frequency dt:dt="r8">2612324</Frequency><Timestamp dt:dt="r8">70018280764</Timestamp><Current dt:dt="r8">0</Current><DateUtc dt:dt="string">2015-08-10T14:17:26Z</DateUtc></FrequencyChange></FrequencyChanges></Clock>\n	1 ver1_main_procedure-7-1	99.936	1.0.0.880	1	pk	1299308176	prawa	1	2.0.10.182	08-10-2015	2015-08-10 14:17:27	16:17:27	mezczyzna	2.0.10.92	3	3	1	1																							d	{SPACE}		no	BlockProc1		BlockList									37	Cued	d			-1	5	290778	460																								75	prime_right.png	0	290418	0	0	13	0	290418	0	290418	1	290418	20	0	-1	288919	290418	290417	0		TrialProc1	left	0		0	10	290728	-290728		0	0	TrialList1	target_left.png	0	d	-1	3	290468	260	l	304	290772												3	1	37				incomp			450
1 ver1_main_procedure	7	1	26	<?xml version="1.0"?>\n<Clock xmlns:dt="urn:schemas-microsoft-com:datatypes"><Description dt:dt="string">E-Prime Primary Realtime Clock</Description><StartTime><Timestamp dt:dt="int">0</Timestamp><DateUtc dt:dt="string">2015-08-10T14:17:26Z</DateUtc></StartTime><FrequencyChanges><FrequencyChange><Frequency dt:dt="r8">2612324</Frequency><Timestamp dt:dt="r8">70018280764</Timestamp><Current dt:dt="r8">0</Current><DateUtc dt:dt="string">2015-08-10T14:17:26Z</DateUtc></FrequencyChange></FrequencyChanges></Clock>\n	1 ver1_main_procedure-7-1	99.936	1.0.0.880	1	pk	1299308176	prawa	1	2.0.10.182	08-10-2015	2015-08-10 14:17:27	16:17:27	mezczyzna	2.0.10.92	3	3	1	1																							d	{SPACE}		no	BlockProc1		BlockList									38	Cued	l	color_blue.png		-1	15	293540	160																								25	prime_right.png	0	293049	0	0	13	0	293049	0	293049	1	293049	20	0	-1	291550	293049	293048	0		TrialProc1	right	0		1	10	293359	-293359		0	0	TrialList1	target_right.png	1	l	-1	3	293099	260	l	425	293524												4	1	38				comp			150
1 ver1_main_procedure	7	1	26	<?xml version="1.0"?>\n<Clock xmlns:dt="urn:schemas-microsoft-com:datatypes"><Description dt:dt="string">E-Prime Primary Realtime Clock</Description><StartTime><Timestamp dt:dt="int">0</Timestamp><DateUtc dt:dt="string">2015-08-10T14:17:26Z</DateUtc></StartTime><FrequencyChanges><FrequencyChange><Frequency dt:dt="r8">2612324</Frequency><Timestamp dt:dt="r8">70018280764</Timestamp><Current dt:dt="r8">0</Current><DateUtc dt:dt="string">2015-08-10T14:17:26Z</DateUtc></FrequencyChange></FrequencyChanges></Clock>\n	1 ver1_main_procedure-7-1	99.936	1.0.0.880	1	pk	1299308176	prawa	1	2.0.10.182	08-10-2015	2015-08-10 14:17:27	16:17:27	mezczyzna	2.0.10.92	3	3	1	1																							d	{SPACE}		no	BlockProc1		BlockList									39	Cued	l	color_orange.png		-1	12	296001	310																								75	prime_left.png	0	295511	0	0	13	0	295511	0	295511	1	295511	20	0	-1	294012	295511	295510	0		TrialProc1	right	0		0	10	295821	-295821		0	0	TrialList1	target_right.png	1	l	-1	3	295561	260	l	427	295988												6	1	39				incomp			300
1 ver1_main_procedure	7	1	26	<?xml version="1.0"?>\n<Clock xmlns:dt="urn:schemas-microsoft-com:datatypes"><Description dt:dt="string">E-Prime Primary Realtime Clock</Description><StartTime><Timestamp dt:dt="int">0</Timestamp><DateUtc dt:dt="string">2015-08-10T14:17:26Z</DateUtc></StartTime><FrequencyChanges><FrequencyChange><Frequency dt:dt="r8">2612324</Frequency><Timestamp dt:dt="r8">70018280764</Timestamp><Current dt:dt="r8">0</Current><DateUtc dt:dt="string">2015-08-10T14:17:26Z</DateUtc></FrequencyChange></FrequencyChanges></Clock>\n	1 ver1_main_procedure-7-1	99.936	1.0.0.880	1	pk	1299308176	prawa	1	2.0.10.182	08-10-2015	2015-08-10 14:17:27	16:17:27	mezczyzna	2.0.10.92	3	3	1	1																							d	{SPACE}		no	BlockProc1		BlockList									40	Cued	l	color_orange.png		-1	10	298583	160																								75	prime_left.png	0	298122	0	0	13	0	298122	0	298122	1	298122	20	0	-1	296623	298122	298121	0		TrialProc1	right	0		1	10	298432	-298432		0	0	TrialList1	target_right.png	1	l	-1	3	298172	260	l	400	298572												6	1	40				incomp			150
1 ver1_main_procedure	7	1	26	<?xml version="1.0"?>\n<Clock xmlns:dt="urn:schemas-microsoft-com:datatypes"><Description dt:dt="string">E-Prime Primary Realtime Clock</Description><StartTime><Timestamp dt:dt="int">0</Timestamp><DateUtc dt:dt="string">2015-08-10T14:17:26Z</DateUtc></StartTime><FrequencyChanges><FrequencyChange><Frequency dt:dt="r8">2612324</Frequency><Timestamp dt:dt="r8">70018280764</Timestamp><Current dt:dt="r8">0</Current><DateUtc dt:dt="string">2015-08-10T14:17:26Z</DateUtc></FrequencyChange></FrequencyChanges></Clock>\n	1 ver1_main_procedure-7-1	99.936	1.0.0.880	1	pk	1299308176	prawa	1	2.0.10.182	08-10-2015	2015-08-10 14:17:27	16:17:27	mezczyzna	2.0.10.92	3	3	1	1																							d	{SPACE}		no	BlockProc1		BlockList									41	Cued	d	color_yellow.png		-1	7	300964	160																			2					25	prime_right.png	0	300554	0	0	13	0	300554	0	300554	1	300554	20	0	-1	299055	300554	300553	0	prime_right.png	TrialProc1	left	0		0	10	300864	-300864		0	0	TrialList1	target_left.png	1	d	-1	3	300604	260	d	353	300957												2	1	41				neut			150
1 ver1_main_procedure	7	1	26	<?xml version="1.0"?>\n<Clock xmlns:dt="urn:schemas-microsoft-com:datatypes"><Description dt:dt="string">E-Prime Primary Realtime Clock</Description><StartTime><Timestamp dt:dt="int">0</Timestamp><DateUtc dt:dt="string">2015-08-10T14:17:26Z</DateUtc></StartTime><FrequencyChanges><FrequencyChange><Frequency dt:dt="r8">2612324</Frequency><Timestamp dt:dt="r8">70018280764</Timestamp><Current dt:dt="r8">0</Current><DateUtc dt:dt="string">2015-08-10T14:17:26Z</DateUtc></FrequencyChange></FrequencyChanges></Clock>\n	1 ver1_main_procedure-7-1	99.936	1.0.0.880	1	pk	1299308176	prawa	1	2.0.10.182	08-10-2015	2015-08-10 14:17:27	16:17:27	mezczyzna	2.0.10.92	3	3	1	1																							d	{SPACE}		no	BlockProc1		BlockList									42	Cued	l	color_red.png		-1	14	303315	311																			1					25	prime_left.png	0	302935	0	0	13	0	302935	0	302935	1	302935	20	0	-1	301436	302935	302934	0	prime_left.png	TrialProc1	right	0		0	10	303245	-303245		0	0	TrialList1	target_right.png	1	l	-1	3	302985	260	l	316	303301												5	1	42				neut			300
1 ver1_main_procedure	7	1	26	<?xml version="1.0"?>\n<Clock xmlns:dt="urn:schemas-microsoft-com:datatypes"><Description dt:dt="string">E-Prime Primary Realtime Clock</Description><StartTime><Timestamp dt:dt="int">0</Timestamp><DateUtc dt:dt="string">2015-08-10T14:17:26Z</DateUtc></StartTime><FrequencyChanges><FrequencyChange><Frequency dt:dt="r8">2612324</Frequency><Timestamp dt:dt="r8">70018280764</Timestamp><Current dt:dt="r8">0</Current><DateUtc dt:dt="string">2015-08-10T14:17:26Z</DateUtc></FrequencyChange></FrequencyChanges></Clock>\n	1 ver1_main_procedure-7-1	99.936	1.0.0.880	1	pk	1299308176	prawa	1	2.0.10.182	08-10-2015	2015-08-10 14:17:27	16:17:27	mezczyzna	2.0.10.92	3	3	1	1																							d	{SPACE}		no	BlockProc1		BlockList									43	Cued	l	color_red.png		-1	10	305847	310																			2					75	prime_right.png	0	305437	0	0	13	0	305437	0	305437	1	305437	20	0	-1	303937	305437	305436	0	prime_right.png	TrialProc1	right	0		0	10	305747	-305747		0	0	TrialList1	target_right.png	1	l	-1	3	305487	260	l	350	305837												5	1	43				neut			300
1 ver1_main_procedure	7	1	26	<?xml version="1.0"?>\n<Clock xmlns:dt="urn:schemas-microsoft-com:datatypes"><Description dt:dt="string">E-Prime Primary Realtime Clock</Description><StartTime><Timestamp dt:dt="int">0</Timestamp><DateUtc dt:dt="string">2015-08-10T14:17:26Z</DateUtc></StartTime><FrequencyChanges><FrequencyChange><Frequency dt:dt="r8">2612324</Frequency><Timestamp dt:dt="r8">70018280764</Timestamp><Current dt:dt="r8">0</Current><DateUtc dt:dt="string">2015-08-10T14:17:26Z</DateUtc></FrequencyChange></FrequencyChanges></Clock>\n	1 ver1_main_procedure-7-1	99.936	1.0.0.880	1	pk	1299308176	prawa	1	2.0.10.182	08-10-2015	2015-08-10 14:17:27	16:17:27	mezczyzna	2.0.10.92	3	3	1	1																							d	{SPACE}		no	BlockProc1		BlockList									44	Cued	l	color_blue.png		-1	11	308328	310																								25	prime_right.png	0	307968	0	0	13	0	307968	0	307968	1	307968	20	0	-1	306469	307968	307967	0		TrialProc1	right	0		0	10	308278	-308278		0	0	TrialList1	target_right.png	1	l	-1	3	308018	260	l	299	308317												4	1	44				comp			300
1 ver1_main_procedure	7	1	26	<?xml version="1.0"?>\n<Clock xmlns:dt="urn:schemas-microsoft-com:datatypes"><Description dt:dt="string">E-Prime Primary Realtime Clock</Description><StartTime><Timestamp dt:dt="int">0</Timestamp><DateUtc dt:dt="string">2015-08-10T14:17:26Z</DateUtc></StartTime><FrequencyChanges><FrequencyChange><Frequency dt:dt="r8">2612324</Frequency><Timestamp dt:dt="r8">70018280764</Timestamp><Current dt:dt="r8">0</Current><DateUtc dt:dt="string">2015-08-10T14:17:26Z</DateUtc></FrequencyChange></FrequencyChanges></Clock>\n	1 ver1_main_procedure-7-1	99.936	1.0.0.880	1	pk	1299308176	prawa	1	2.0.10.182	08-10-2015	2015-08-10 14:17:27	16:17:27	mezczyzna	2.0.10.92	3	3	1	1																							d	{SPACE}		no	BlockProc1		BlockList									45	Free	dl	color_orange.png		-1	9	311030	160																								25	prime_left.png	1	310450	0	0	13	1	310450	1	310450	0	310449	21	0	-1	308950	310449	310449	0		TrialProc1	right	0		0	10	310760	-310760		0	0	TrialList1	target_both.png	0	dl	-1	3	310500	260	l	521	311021												12	1	45				incomp			150
1 ver1_main_procedure	7	1	26	<?xml version="1.0"?>\n<Clock xmlns:dt="urn:schemas-microsoft-com:datatypes"><Description dt:dt="string">E-Prime Primary Realtime Clock</Description><StartTime><Timestamp dt:dt="int">0</Timestamp><DateUtc dt:dt="string">2015-08-10T14:17:26Z</DateUtc></StartTime><FrequencyChanges><FrequencyChange><Frequency dt:dt="r8">2612324</Frequency><Timestamp dt:dt="r8">70018280764</Timestamp><Current dt:dt="r8">0</Current><DateUtc dt:dt="string">2015-08-10T14:17:26Z</DateUtc></FrequencyChange></FrequencyChanges></Clock>\n	1 ver1_main_procedure-7-1	99.936	1.0.0.880	1	pk	1299308176	prawa	1	2.0.10.182	08-10-2015	2015-08-10 14:17:27	16:17:27	mezczyzna	2.0.10.92	3	3	1	1																							d	{SPACE}		no	BlockProc1		BlockList									46	Cued	l	color_blue.png		-1	12	313361	311																								75	prime_right.png	0	313001	0	0	13	0	313001	0	313001	1	313001	20	0	-1	311502	313001	313000	0		TrialProc1	right	0		0	10	313311	-313311		0	0	TrialList1	target_right.png	1	l	-1	3	313051	260	l	298	313349												4	1	46				comp			300
1 ver1_main_procedure	7	1	26	<?xml version="1.0"?>\n<Clock xmlns:dt="urn:schemas-microsoft-com:datatypes"><Description dt:dt="string">E-Prime Primary Realtime Clock</Description><StartTime><Timestamp dt:dt="int">0</Timestamp><DateUtc dt:dt="string">2015-08-10T14:17:26Z</DateUtc></StartTime><FrequencyChanges><FrequencyChange><Frequency dt:dt="r8">2612324</Frequency><Timestamp dt:dt="r8">70018280764</Timestamp><Current dt:dt="r8">0</Current><DateUtc dt:dt="string">2015-08-10T14:17:26Z</DateUtc></FrequencyChange></FrequencyChanges></Clock>\n	1 ver1_main_procedure-7-1	99.936	1.0.0.880	1	pk	1299308176	prawa	1	2.0.10.182	08-10-2015	2015-08-10 14:17:27	16:17:27	mezczyzna	2.0.10.92	3	3	1	1																							d	{SPACE}		no	BlockProc1		BlockList									47	Free	dl	color_red.png		-1	6	316083	310																			1					25	prime_left.png	1	315483	0	0	13	1	315483	1	315483	0	315482	20	0	-1	313983	315482	315482	0	prime_left.png	TrialProc1	left	0		0	11	315793	-315793		0	0	TrialList1	target_both.png	0	dl	-1	3	315532	261	l	545	316077												8	1	47				neut			300
1 ver1_main_procedure	7	1	26	<?xml version="1.0"?>\n<Clock xmlns:dt="urn:schemas-microsoft-com:datatypes"><Description dt:dt="string">E-Prime Primary Realtime Clock</Description><StartTime><Timestamp dt:dt="int">0</Timestamp><DateUtc dt:dt="string">2015-08-10T14:17:26Z</DateUtc></StartTime><FrequencyChanges><FrequencyChange><Frequency dt:dt="r8">2612324</Frequency><Timestamp dt:dt="r8">70018280764</Timestamp><Current dt:dt="r8">0</Current><DateUtc dt:dt="string">2015-08-10T14:17:26Z</DateUtc></FrequencyChange></FrequencyChanges></Clock>\n	1 ver1_main_procedure-7-1	99.936	1.0.0.880	1	pk	1299308176	prawa	1	2.0.10.182	08-10-2015	2015-08-10 14:17:27	16:17:27	mezczyzna	2.0.10.92	3	3	1	1																							d	{SPACE}		no	BlockProc1		BlockList									48	Cued	d	color_yellow.png		-1	15	318724	160																			2					25	prime_right.png	0	318204	0	0	13	0	318204	0	318204	1	318204	20	0	-1	316705	318204	318203	0	prime_right.png	TrialProc1	left	0		0	10	318514	-318514		0	0	TrialList1	target_left.png	1	d	-1	3	318254	260	d	455	318709												2	1	48				neut			150
1 ver1_main_procedure	7	1	26	<?xml version="1.0"?>\n<Clock xmlns:dt="urn:schemas-microsoft-com:datatypes"><Description dt:dt="string">E-Prime Primary Realtime Clock</Description><StartTime><Timestamp dt:dt="int">0</Timestamp><DateUtc dt:dt="string">2015-08-10T14:17:26Z</DateUtc></StartTime><FrequencyChanges><FrequencyChange><Frequency dt:dt="r8">2612324</Frequency><Timestamp dt:dt="r8">70018280764</Timestamp><Current dt:dt="r8">0</Current><DateUtc dt:dt="string">2015-08-10T14:17:26Z</DateUtc></FrequencyChange></FrequencyChanges></Clock>\n	1 ver1_main_procedure-7-1	99.936	1.0.0.880	1	pk	1299308176	prawa	1	2.0.10.182	08-10-2015	2015-08-10 14:17:27	16:17:27	mezczyzna	2.0.10.92	3	3	1	1																							d	{SPACE}		no	BlockProc1		BlockList									49	Cued	l	color_blue.png		-1	11	321056	160																								75	prime_right.png	0	320696	0	0	13	0	320696	0	320696	1	320696	20	0	-1	319196	320696	320695	0		TrialProc1	right	0		0	10	321006	-321006		0	0	TrialList1	target_right.png	1	l	-1	3	320746	260	l	299	321045												4	1	49				comp			150
1 ver1_main_procedure	7	1	26	<?xml version="1.0"?>\n<Clock xmlns:dt="urn:schemas-microsoft-com:datatypes"><Description dt:dt="string">E-Prime Primary Realtime Clock</Description><StartTime><Timestamp dt:dt="int">0</Timestamp><DateUtc dt:dt="string">2015-08-10T14:17:26Z</DateUtc></StartTime><FrequencyChanges><FrequencyChange><Frequency dt:dt="r8">2612324</Frequency><Timestamp dt:dt="r8">70018280764</Timestamp><Current dt:dt="r8">0</Current><DateUtc dt:dt="string">2015-08-10T14:17:26Z</DateUtc></FrequencyChange></FrequencyChanges></Clock>\n	1 ver1_main_procedure-7-1	99.936	1.0.0.880	1	pk	1299308176	prawa	1	2.0.10.182	08-10-2015	2015-08-10 14:17:27	16:17:27	mezczyzna	2.0.10.92	3	3	1	1																							d	{SPACE}		no	BlockProc1		BlockList									50	Cued	d			-1	14	323387	160																			1					25	prime_left.png	0	323027	0	0	13	0	323027	0	323027	1	323027	20	0	-1	321528	323027	323026	0	prime_left.png	TrialProc1	left	0		0	10	323337	-323337		0	0	TrialList1	target_left.png	0	d	-1	3	323077	260	l	296	323373												2	1	50				neut			150
1 ver1_main_procedure	7	1	26	<?xml version="1.0"?>\n<Clock xmlns:dt="urn:schemas-microsoft-com:datatypes"><Description dt:dt="string">E-Prime Primary Realtime Clock</Description><StartTime><Timestamp dt:dt="int">0</Timestamp><DateUtc dt:dt="string">2015-08-10T14:17:26Z</DateUtc></StartTime><FrequencyChanges><FrequencyChange><Frequency dt:dt="r8">2612324</Frequency><Timestamp dt:dt="r8">70018280764</Timestamp><Current dt:dt="r8">0</Current><DateUtc dt:dt="string">2015-08-10T14:17:26Z</DateUtc></FrequencyChange></FrequencyChanges></Clock>\n	1 ver1_main_procedure-7-1	99.936	1.0.0.880	1	pk	1299308176	prawa	1	2.0.10.182	08-10-2015	2015-08-10 14:17:27	16:17:27	mezczyzna	2.0.10.92	3	3	1	1																							d	{SPACE}		no	BlockProc1		BlockList									51	Free	dl	color_red.png		-1	7	326069	160																			2					75	prime_right.png	0	325358	0	0	13	0	325358	0	325358	1	325358	20	0	-1	323859	325358	325357	0	prime_right.png	TrialProc1	left	0		1	10	325668	-325668		0	0	TrialList1	target_both.png	0	dl	-1	3	325408	260	l	653	326061												8	1	51				neut			150
1 ver1_main_procedure	7	1	26	<?xml version="1.0"?>\n<Clock xmlns:dt="urn:schemas-microsoft-com:datatypes"><Description dt:dt="string">E-Prime Primary Realtime Clock</Description><StartTime><Timestamp dt:dt="int">0</Timestamp><DateUtc dt:dt="string">2015-08-10T14:17:26Z</DateUtc></StartTime><FrequencyChanges><FrequencyChange><Frequency dt:dt="r8">2612324</Frequency><Timestamp dt:dt="r8">70018280764</Timestamp><Current dt:dt="r8">0</Current><DateUtc dt:dt="string">2015-08-10T14:17:26Z</DateUtc></FrequencyChange></FrequencyChanges></Clock>\n	1 ver1_main_procedure-7-1	99.936	1.0.0.880	1	pk	1299308176	prawa	1	2.0.10.182	08-10-2015	2015-08-10 14:17:27	16:17:27	mezczyzna	2.0.10.92	3	3	1	1																							d	{SPACE}		no	BlockProc1		BlockList									52	Free	dl	color_purple.png		-1	10	328600	310																								75	prime_right.png	0	328040	0	0	13	0	328040	0	328040	1	328040	20	0	-1	326541	328040	328039	0		TrialProc1	left	0		0	10	328350	-328350		0	0	TrialList1	target_both.png	0	dl	-1	3	328090	260	d	499	328589												9	1	52				incomp			300
1 ver1_main_procedure	7	1	26	<?xml version="1.0"?>\n<Clock xmlns:dt="urn:schemas-microsoft-com:datatypes"><Description dt:dt="string">E-Prime Primary Realtime Clock</Description><StartTime><Timestamp dt:dt="int">0</Timestamp><DateUtc dt:dt="string">2015-08-10T14:17:26Z</DateUtc></StartTime><FrequencyChanges><FrequencyChange><Frequency dt:dt="r8">2612324</Frequency><Timestamp dt:dt="r8">70018280764</Timestamp><Current dt:dt="r8">0</Current><DateUtc dt:dt="string">2015-08-10T14:17:26Z</DateUtc></FrequencyChange></FrequencyChanges></Clock>\n	1 ver1_main_procedure-7-1	99.936	1.0.0.880	1	pk	1299308176	prawa	1	2.0.10.182	08-10-2015	2015-08-10 14:17:27	16:17:27	mezczyzna	2.0.10.92	3	3	1	1																							d	{SPACE}		no	BlockProc1		BlockList									53	Free	dl	color_blue.png		-1	14	331092	160																								25	prime_right.png	0	330721	0	0	13	1	330722	1	330722	0	330721	20	0	-1	329222	330721	330721	0		TrialProc1	left	0		0	11	331032	-331032		0	0	TrialList1	target_both.png	0	dl	-1	3	330771	261	l	306	331077												9	1	53				incomp			150
1 ver1_main_procedure	7	1	26	<?xml version="1.0"?>\n<Clock xmlns:dt="urn:schemas-microsoft-com:datatypes"><Description dt:dt="string">E-Prime Primary Realtime Clock</Description><StartTime><Timestamp dt:dt="int">0</Timestamp><DateUtc dt:dt="string">2015-08-10T14:17:26Z</DateUtc></StartTime><FrequencyChanges><FrequencyChange><Frequency dt:dt="r8">2612324</Frequency><Timestamp dt:dt="r8">70018280764</Timestamp><Current dt:dt="r8">0</Current><DateUtc dt:dt="string">2015-08-10T14:17:26Z</DateUtc></FrequencyChange></FrequencyChanges></Clock>\n	1 ver1_main_procedure-7-1	99.936	1.0.0.880	1	pk	1299308176	prawa	1	2.0.10.182	08-10-2015	2015-08-10 14:17:27	16:17:27	mezczyzna	2.0.10.92	3	3	1	1																							d	{SPACE}		no	BlockProc1		BlockList									54	Cued	d	color_yellow.png		-1	9	333663	460																			1					25	prime_left.png	0	333063	0	0	13	0	333063	0	333063	1	333063	20	0	-1	331564	333063	333062	0	prime_left.png	TrialProc1	left	0		0	10	333373	-333373		0	0	TrialList1	target_left.png	1	d	-1	3	333113	260	d	540	333653												2	1	54				neut			450
1 ver1_main_procedure	7	1	26	<?xml version="1.0"?>\n<Clock xmlns:dt="urn:schemas-microsoft-com:datatypes"><Description dt:dt="string">E-Prime Primary Realtime Clock</Description><StartTime><Timestamp dt:dt="int">0</Timestamp><DateUtc dt:dt="string">2015-08-10T14:17:26Z</DateUtc></StartTime><FrequencyChanges><FrequencyChange><Frequency dt:dt="r8">2612324</Frequency><Timestamp dt:dt="r8">70018280764</Timestamp><Current dt:dt="r8">0</Current><DateUtc dt:dt="string">2015-08-10T14:17:26Z</DateUtc></FrequencyChange></FrequencyChanges></Clock>\n	1 ver1_main_procedure-7-1	99.936	1.0.0.880	1	pk	1299308176	prawa	1	2.0.10.182	08-10-2015	2015-08-10 14:17:27	16:17:27	mezczyzna	2.0.10.92	3	3	1	1																							d	{SPACE}		no	BlockProc1		BlockList									55	Cued	d	color_yellow.png		-1	13	336555	310																			2					25	prime_right.png	1	335935	0	0	13	1	335935	1	335935	0	335934	20	0	-1	334435	335934	335934	0	prime_right.png	TrialProc1	left	0		0	11	336245	-336245		0	0	TrialList1	target_left.png	1	d	-1	3	335984	261	d	557	336541												2	1	55				neut			300
1 ver1_main_procedure	7	1	26	<?xml version="1.0"?>\n<Clock xmlns:dt="urn:schemas-microsoft-com:datatypes"><Description dt:dt="string">E-Prime Primary Realtime Clock</Description><StartTime><Timestamp dt:dt="int">0</Timestamp><DateUtc dt:dt="string">2015-08-10T14:17:26Z</DateUtc></StartTime><FrequencyChanges><FrequencyChange><Frequency dt:dt="r8">2612324</Frequency><Timestamp dt:dt="r8">70018280764</Timestamp><Current dt:dt="r8">0</Current><DateUtc dt:dt="string">2015-08-10T14:17:26Z</DateUtc></FrequencyChange></FrequencyChanges></Clock>\n	1 ver1_main_procedure-7-1	99.936	1.0.0.880	1	pk	1299308176	prawa	1	2.0.10.182	08-10-2015	2015-08-10 14:17:27	16:17:27	mezczyzna	2.0.10.92	3	3	1	1																							d	{SPACE}		no	BlockProc1		BlockList									56	Cued	d	color_purple.png		-1	12	339266	311																								75	prime_right.png	0	338676	0	0	13	0	338676	0	338676	1	338676	20	0	-1	337177	338676	338675	0		TrialProc1	left	0		0	10	338986	-338986		0	0	TrialList1	target_left.png	1	d	-1	3	338726	260	d	527	339253												3	1	56				incomp			300
1 ver1_main_procedure	7	1	26	<?xml version="1.0"?>\n<Clock xmlns:dt="urn:schemas-microsoft-com:datatypes"><Description dt:dt="string">E-Prime Primary Realtime Clock</Description><StartTime><Timestamp dt:dt="int">0</Timestamp><DateUtc dt:dt="string">2015-08-10T14:17:26Z</DateUtc></StartTime><FrequencyChanges><FrequencyChange><Frequency dt:dt="r8">2612324</Frequency><Timestamp dt:dt="r8">70018280764</Timestamp><Current dt:dt="r8">0</Current><DateUtc dt:dt="string">2015-08-10T14:17:26Z</DateUtc></FrequencyChange></FrequencyChanges></Clock>\n	1 ver1_main_procedure-7-1	99.936	1.0.0.880	1	pk	1299308176	prawa	1	2.0.10.182	08-10-2015	2015-08-10 14:17:27	16:17:27	mezczyzna	2.0.10.92	3	3	1	1																							d	{SPACE}		no	BlockProc1		BlockList									57	Free	dl	color_orange.png		-1	6	341988	310																								75	prime_left.png	0	341388	0	0	13	0	341388	0	341388	1	341388	20	0	-1	339889	341388	341387	0		TrialProc1	left	0		0	10	341698	-341698		0	0	TrialList1	target_both.png	0	dl	-1	3	341438	260	l	543	341981												7	1	57				comp			300
1 ver1_main_procedure	7	1	26	<?xml version="1.0"?>\n<Clock xmlns:dt="urn:schemas-microsoft-com:datatypes"><Description dt:dt="string">E-Prime Primary Realtime Clock</Description><StartTime><Timestamp dt:dt="int">0</Timestamp><DateUtc dt:dt="string">2015-08-10T14:17:26Z</DateUtc></StartTime><FrequencyChanges><FrequencyChange><Frequency dt:dt="r8">2612324</Frequency><Timestamp dt:dt="r8">70018280764</Timestamp><Current dt:dt="r8">0</Current><DateUtc dt:dt="string">2015-08-10T14:17:26Z</DateUtc></FrequencyChange></FrequencyChanges></Clock>\n	1 ver1_main_procedure-7-1	99.936	1.0.0.880	1	pk	1299308176	prawa	1	2.0.10.182	08-10-2015	2015-08-10 14:17:27	16:17:27	mezczyzna	2.0.10.92	3	3	1	1																							d	{SPACE}		no	BlockProc1		BlockList									58	Cued	l	color_red.png		-1	14	344700	460																			1					25	prime_left.png	0	344109	0	0	13	0	344109	0	344109	1	344109	20	0	-1	342610	344109	344108	0	prime_left.png	TrialProc1	right	0		1	10	344419	-344419		0	0	TrialList1	target_right.png	1	l	-1	3	344159	260	l	526	344685												5	1	58				neut			450
1 ver1_main_procedure	7	1	26	<?xml version="1.0"?>\n<Clock xmlns:dt="urn:schemas-microsoft-com:datatypes"><Description dt:dt="string">E-Prime Primary Realtime Clock</Description><StartTime><Timestamp dt:dt="int">0</Timestamp><DateUtc dt:dt="string">2015-08-10T14:17:26Z</DateUtc></StartTime><FrequencyChanges><FrequencyChange><Frequency dt:dt="r8">2612324</Frequency><Timestamp dt:dt="r8">70018280764</Timestamp><Current dt:dt="r8">0</Current><DateUtc dt:dt="string">2015-08-10T14:17:26Z</DateUtc></FrequencyChange></FrequencyChanges></Clock>\n	1 ver1_main_procedure-7-1	99.936	1.0.0.880	1	pk	1299308176	prawa	1	2.0.10.182	08-10-2015	2015-08-10 14:17:27	16:17:27	mezczyzna	2.0.10.92	3	3	1	1																							d	{SPACE}		no	BlockProc1		BlockList									59	Cued	d			-1	1	348782	310																			2					75	prime_right.png	0	346971	0	0	13	0	346971	0	346971	1	346971	20	0	-1	345472	346971	346970	0	prime_right.png	TrialProc1	left	0		0	10	347281	1501		0	0	TrialList1	target_left.png	0	d	-1	3	347021	260		0	0												2	1	59				neut			300
1 ver1_main_procedure	7	1	26	<?xml version="1.0"?>\n<Clock xmlns:dt="urn:schemas-microsoft-com:datatypes"><Description dt:dt="string">E-Prime Primary Realtime Clock</Description><StartTime><Timestamp dt:dt="int">0</Timestamp><DateUtc dt:dt="string">2015-08-10T14:17:26Z</DateUtc></StartTime><FrequencyChanges><FrequencyChange><Frequency dt:dt="r8">2612324</Frequency><Timestamp dt:dt="r8">70018280764</Timestamp><Current dt:dt="r8">0</Current><DateUtc dt:dt="string">2015-08-10T14:17:26Z</DateUtc></FrequencyChange></FrequencyChanges></Clock>\n	1 ver1_main_procedure-7-1	99.936	1.0.0.880	1	pk	1299308176	prawa	1	2.0.10.182	08-10-2015	2015-08-10 14:17:27	16:17:27	mezczyzna	2.0.10.92	3	3	1	1																							d	{SPACE}		no	BlockProc1		BlockList									60	Cued	d	color_green.png		-1	10	351424	310																								75	prime_left.png	0	350903	0	0	13	0	350903	0	350903	1	350903	20	0	-1	349404	350903	350902	0		TrialProc1	left	0		1	10	351213	-351213		0	0	TrialList1	target_left.png	1	d	-1	3	350953	260	d	460	351413												1	1	60				comp			300
1 ver1_main_procedure	7	1	26	<?xml version="1.0"?>\n<Clock xmlns:dt="urn:schemas-microsoft-com:datatypes"><Description dt:dt="string">E-Prime Primary Realtime Clock</Description><StartTime><Timestamp dt:dt="int">0</Timestamp><DateUtc dt:dt="string">2015-08-10T14:17:26Z</DateUtc></StartTime><FrequencyChanges><FrequencyChange><Frequency dt:dt="r8">2612324</Frequency><Timestamp dt:dt="r8">70018280764</Timestamp><Current dt:dt="r8">0</Current><DateUtc dt:dt="string">2015-08-10T14:17:26Z</DateUtc></FrequencyChange></FrequencyChanges></Clock>\n	1 ver1_main_procedure-7-1	99.936	1.0.0.880	1	pk	1299308176	prawa	1	2.0.10.182	08-10-2015	2015-08-10 14:17:27	16:17:27	mezczyzna	2.0.10.92	3	3	1	1																							d	{SPACE}		no	BlockProc1		BlockList									61	Cued	l	color_orange.png		-1	5	354075	310																								25	prime_left.png	0	353545	0	0	13	0	353545	0	353545	1	353545	20	0	-1	352046	353545	353544	0		TrialProc1	right	0		0	10	353855	-353855		0	0	TrialList1	target_right.png	1	l	-1	3	353595	260	l	474	354069												6	1	61				incomp			300
1 ver1_main_procedure	7	1	26	<?xml version="1.0"?>\n<Clock xmlns:dt="urn:schemas-microsoft-com:datatypes"><Description dt:dt="string">E-Prime Primary Realtime Clock</Description><StartTime><Timestamp dt:dt="int">0</Timestamp><DateUtc dt:dt="string">2015-08-10T14:17:26Z</DateUtc></StartTime><FrequencyChanges><FrequencyChange><Frequency dt:dt="r8">2612324</Frequency><Timestamp dt:dt="r8">70018280764</Timestamp><Current dt:dt="r8">0</Current><DateUtc dt:dt="string">2015-08-10T14:17:26Z</DateUtc></FrequencyChange></FrequencyChanges></Clock>\n	1 ver1_main_procedure-7-1	99.936	1.0.0.880	1	pk	1299308176	prawa	1	2.0.10.182	08-10-2015	2015-08-10 14:17:27	16:17:27	mezczyzna	2.0.10.92	3	3	1	1																							d	{SPACE}		no	BlockProc1		BlockList									62	Cued	d	color_purple.png		-1	7	356597	460																								75	prime_right.png	0	356196	0	0	13	0	356197	0	356196	1	356196	20	0	-1	354697	356196	356195	0		TrialProc1	left	0		0	11	356507	-356507		0	0	TrialList1	target_left.png	1	d	-1	3	356246	261	d	343	356589												3	1	62				incomp			450
1 ver1_main_procedure	7	1	26	<?xml version="1.0"?>\n<Clock xmlns:dt="urn:schemas-microsoft-com:datatypes"><Description dt:dt="string">E-Prime Primary Realtime Clock</Description><StartTime><Timestamp dt:dt="int">0</Timestamp><DateUtc dt:dt="string">2015-08-10T14:17:26Z</DateUtc></StartTime><FrequencyChanges><FrequencyChange><Frequency dt:dt="r8">2612324</Frequency><Timestamp dt:dt="r8">70018280764</Timestamp><Current dt:dt="r8">0</Current><DateUtc dt:dt="string">2015-08-10T14:17:26Z</DateUtc></FrequencyChange></FrequencyChanges></Clock>\n	1 ver1_main_procedure-7-1	99.936	1.0.0.880	1	pk	1299308176	prawa	1	2.0.10.182	08-10-2015	2015-08-10 14:17:27	16:17:27	mezczyzna	2.0.10.92	3	3	1	1																							d	{SPACE}		no	BlockProc1		BlockList									63	Cued	d	color_yellow.png		-1	8	359238	160																			1					75	prime_left.png	0	358868	0	0	13	0	358868	0	358868	1	358868	20	0	-1	357369	358868	358867	0	prime_left.png	TrialProc1	left	0		0	10	359178	-359178		0	0	TrialList1	target_left.png	1	d	-1	3	358918	260	d	311	359229												2	1	63				neut			150
1 ver1_main_procedure	7	1	26	<?xml version="1.0"?>\n<Clock xmlns:dt="urn:schemas-microsoft-com:datatypes"><Description dt:dt="string">E-Prime Primary Realtime Clock</Description><StartTime><Timestamp dt:dt="int">0</Timestamp><DateUtc dt:dt="string">2015-08-10T14:17:26Z</DateUtc></StartTime><FrequencyChanges><FrequencyChange><Frequency dt:dt="r8">2612324</Frequency><Timestamp dt:dt="r8">70018280764</Timestamp><Current dt:dt="r8">0</Current><DateUtc dt:dt="string">2015-08-10T14:17:26Z</DateUtc></FrequencyChange></FrequencyChanges></Clock>\n	1 ver1_main_procedure-7-1	99.936	1.0.0.880	1	pk	1299308176	prawa	1	2.0.10.182	08-10-2015	2015-08-10 14:17:27	16:17:27	mezczyzna	2.0.10.92	3	3	1	1																							d	{SPACE}		no	BlockProc1		BlockList									64	Cued	l	color_red.png		-1	8	361550	460																			2					75	prime_right.png	0	361209	0	0	13	1	361210	1	361210	1	361209	20	0	-1	359710	361209	361208	0	prime_right.png	TrialProc1	right	0		1	10	361519	-361519		0	0	TrialList1	target_right.png	1	l	-1	3	361259	260	l	282	361541												5	1	64				neut			450
1 ver1_main_procedure	7	1	26	<?xml version="1.0"?>\n<Clock xmlns:dt="urn:schemas-microsoft-com:datatypes"><Description dt:dt="string">E-Prime Primary Realtime Clock</Description><StartTime><Timestamp dt:dt="int">0</Timestamp><DateUtc dt:dt="string">2015-08-10T14:17:26Z</DateUtc></StartTime><FrequencyChanges><FrequencyChange><Frequency dt:dt="r8">2612324</Frequency><Timestamp dt:dt="r8">70018280764</Timestamp><Current dt:dt="r8">0</Current><DateUtc dt:dt="string">2015-08-10T14:17:26Z</DateUtc></FrequencyChange></FrequencyChanges></Clock>\n	1 ver1_main_procedure-7-1	99.936	1.0.0.880	1	pk	1299308176	prawa	1	2.0.10.182	08-10-2015	2015-08-10 14:17:27	16:17:27	mezczyzna	2.0.10.92	3	3	1	1																							d	{SPACE}		no	BlockProc1		BlockList									65	Cued	l	color_red.png		-1	5	364371	310																			1					25	prime_left.png	0	363821	0	0	13	0	363821	0	363821	1	363821	20	0	-1	362322	363821	363820	0	prime_left.png	TrialProc1	right	0		0	10	364131	-364131		0	0	TrialList1	target_right.png	1	l	-1	3	363871	260	l	494	364365												5	1	65				neut			300
1 ver1_main_procedure	7	1	26	<?xml version="1.0"?>\n<Clock xmlns:dt="urn:schemas-microsoft-com:datatypes"><Description dt:dt="string">E-Prime Primary Realtime Clock</Description><StartTime><Timestamp dt:dt="int">0</Timestamp><DateUtc dt:dt="string">2015-08-10T14:17:26Z</DateUtc></StartTime><FrequencyChanges><FrequencyChange><Frequency dt:dt="r8">2612324</Frequency><Timestamp dt:dt="r8">70018280764</Timestamp><Current dt:dt="r8">0</Current><DateUtc dt:dt="string">2015-08-10T14:17:26Z</DateUtc></FrequencyChange></FrequencyChanges></Clock>\n	1 ver1_main_procedure-7-1	99.936	1.0.0.880	1	pk	1299308176	prawa	1	2.0.10.182	08-10-2015	2015-08-10 14:17:27	16:17:27	mezczyzna	2.0.10.92	3	3	1	1																							d	{SPACE}		no	BlockProc1		BlockList									66	Cued	d	color_green.png		-1	11	366953	460																								25	prime_left.png	0	366493	0	0	13	0	366493	0	366493	1	366493	19	0	-1	364993	366493	366492	0		TrialProc1	left	0		0	11	366803	-366803		0	0	TrialList1	target_left.png	1	d	-1	3	366542	261	d	399	366941												1	1	66				comp			450
1 ver1_main_procedure	7	1	26	<?xml version="1.0"?>\n<Clock xmlns:dt="urn:schemas-microsoft-com:datatypes"><Description dt:dt="string">E-Prime Primary Realtime Clock</Description><StartTime><Timestamp dt:dt="int">0</Timestamp><DateUtc dt:dt="string">2015-08-10T14:17:26Z</DateUtc></StartTime><FrequencyChanges><FrequencyChange><Frequency dt:dt="r8">2612324</Frequency><Timestamp dt:dt="r8">70018280764</Timestamp><Current dt:dt="r8">0</Current><DateUtc dt:dt="string">2015-08-10T14:17:26Z</DateUtc></FrequencyChange></FrequencyChanges></Clock>\n	1 ver1_main_procedure-7-1	99.936	1.0.0.880	1	pk	1299308176	prawa	1	2.0.10.182	08-10-2015	2015-08-10 14:17:27	16:17:27	mezczyzna	2.0.10.92	3	3	1	1																							d	{SPACE}		no	BlockProc1		BlockList									67	Cued	d	color_purple.png		-1	8	369774	461																								25	prime_right.png	0	369224	0	0	13	0	369224	0	369224	1	369224	20	0	-1	367725	369224	369223	0		TrialProc1	left	0		0	10	369534	-369534		0	0	TrialList1	target_left.png	1	d	-1	3	369274	260	d	491	369765												3	1	67				incomp			450
1 ver1_main_procedure	7	1	26	<?xml version="1.0"?>\n<Clock xmlns:dt="urn:schemas-microsoft-com:datatypes"><Description dt:dt="string">E-Prime Primary Realtime Clock</Description><StartTime><Timestamp dt:dt="int">0</Timestamp><DateUtc dt:dt="string">2015-08-10T14:17:26Z</DateUtc></StartTime><FrequencyChanges><FrequencyChange><Frequency dt:dt="r8">2612324</Frequency><Timestamp dt:dt="r8">70018280764</Timestamp><Current dt:dt="r8">0</Current><DateUtc dt:dt="string">2015-08-10T14:17:26Z</DateUtc></FrequencyChange></FrequencyChanges></Clock>\n	1 ver1_main_procedure-7-1	99.936	1.0.0.880	1	pk	1299308176	prawa	1	2.0.10.182	08-10-2015	2015-08-10 14:17:27	16:17:27	mezczyzna	2.0.10.92	3	3	1	1																							d	{SPACE}		no	BlockProc1		BlockList									68	Cued	d	color_yellow.png		-1	10	372576	160																			2					75	prime_right.png	0	372046	0	0	13	0	372046	0	372046	1	372046	20	0	-1	370546	372046	372045	0	prime_right.png	TrialProc1	left	0		0	10	372356	-372356		0	0	TrialList1	target_left.png	1	d	-1	3	372096	260	d	469	372565												2	1	68				neut			150
1 ver1_main_procedure	7	1	26	<?xml version="1.0"?>\n<Clock xmlns:dt="urn:schemas-microsoft-com:datatypes"><Description dt:dt="string">E-Prime Primary Realtime Clock</Description><StartTime><Timestamp dt:dt="int">0</Timestamp><DateUtc dt:dt="string">2015-08-10T14:17:26Z</DateUtc></StartTime><FrequencyChanges><FrequencyChange><Frequency dt:dt="r8">2612324</Frequency><Timestamp dt:dt="r8">70018280764</Timestamp><Current dt:dt="r8">0</Current><DateUtc dt:dt="string">2015-08-10T14:17:26Z</DateUtc></FrequencyChange></FrequencyChanges></Clock>\n	1 ver1_main_procedure-7-1	99.936	1.0.0.880	1	pk	1299308176	prawa	1	2.0.10.182	08-10-2015	2015-08-10 14:17:27	16:17:27	mezczyzna	2.0.10.92	3	3	1	1																							d	{SPACE}		no	BlockProc1		BlockList									69	Cued	d	color_purple.png		-1	13	375027	311																								25	prime_right.png	0	374547	0	0	13	0	374547	0	374547	1	374547	20	0	-1	373048	374547	374546	0		TrialProc1	left	0		0	10	374857	-374857		0	0	TrialList1	target_left.png	1	d	-1	3	374597	260	d	416	375013												3	1	69				incomp			300
1 ver1_main_procedure	7	1	26	<?xml version="1.0"?>\n<Clock xmlns:dt="urn:schemas-microsoft-com:datatypes"><Description dt:dt="string">E-Prime Primary Realtime Clock</Description><StartTime><Timestamp dt:dt="int">0</Timestamp><DateUtc dt:dt="string">2015-08-10T14:17:26Z</DateUtc></StartTime><FrequencyChanges><FrequencyChange><Frequency dt:dt="r8">2612324</Frequency><Timestamp dt:dt="r8">70018280764</Timestamp><Current dt:dt="r8">0</Current><DateUtc dt:dt="string">2015-08-10T14:17:26Z</DateUtc></FrequencyChange></FrequencyChanges></Clock>\n	1 ver1_main_procedure-7-1	99.936	1.0.0.880	1	pk	1299308176	prawa	1	2.0.10.182	08-10-2015	2015-08-10 14:17:27	16:17:27	mezczyzna	2.0.10.92	3	3	1	1																							d	{SPACE}		no	BlockProc1		BlockList									70	Cued	d	color_green.png		-1	11	377569	460																								75	prime_left.png	0	377149	0	0	13	0	377149	0	377149	1	377149	20	0	-1	375650	377149	377148	0		TrialProc1	left	0		0	10	377459	-377459		0	0	TrialList1	target_left.png	1	d	-1	3	377199	260	d	358	377557												1	1	70				comp			450
1 ver1_main_procedure	7	1	26	<?xml version="1.0"?>\n<Clock xmlns:dt="urn:schemas-microsoft-com:datatypes"><Description dt:dt="string">E-Prime Primary Realtime Clock</Description><StartTime><Timestamp dt:dt="int">0</Timestamp><DateUtc dt:dt="string">2015-08-10T14:17:26Z</DateUtc></StartTime><FrequencyChanges><FrequencyChange><Frequency dt:dt="r8">2612324</Frequency><Timestamp dt:dt="r8">70018280764</Timestamp><Current dt:dt="r8">0</Current><DateUtc dt:dt="string">2015-08-10T14:17:26Z</DateUtc></FrequencyChange></FrequencyChanges></Clock>\n	1 ver1_main_procedure-7-1	99.936	1.0.0.880	1	pk	1299308176	prawa	1	2.0.10.182	08-10-2015	2015-08-10 14:17:27	16:17:27	mezczyzna	2.0.10.92	3	3	1	1																							d	{SPACE}		no	BlockProc1		BlockList									71	Free	dl	color_blue.png		-1	13	380451	310																								25	prime_right.png	0	379840	0	0	13	0	379840	0	379840	1	379840	20	0	-1	378341	379840	379839	0		TrialProc1	right	0		1	10	380150	-380150		0	0	TrialList1	target_both.png	0	dl	-1	3	379890	260	l	548	380438												10	1	71				comp			300
1 ver1_main_procedure	7	1	26	<?xml version="1.0"?>\n<Clock xmlns:dt="urn:schemas-microsoft-com:datatypes"><Description dt:dt="string">E-Prime Primary Realtime Clock</Description><StartTime><Timestamp dt:dt="int">0</Timestamp><DateUtc dt:dt="string">2015-08-10T14:17:26Z</DateUtc></StartTime><FrequencyChanges><FrequencyChange><Frequency dt:dt="r8">2612324</Frequency><Timestamp dt:dt="r8">70018280764</Timestamp><Current dt:dt="r8">0</Current><DateUtc dt:dt="string">2015-08-10T14:17:26Z</DateUtc></FrequencyChange></FrequencyChanges></Clock>\n	1 ver1_main_procedure-7-1	99.936	1.0.0.880	1	pk	1299308176	prawa	1	2.0.10.182	08-10-2015	2015-08-10 14:17:27	16:17:27	mezczyzna	2.0.10.92	3	3	1	1																							d	{SPACE}		no	BlockProc1		BlockList									72	Cued	l	color_orange.png		-1	10	383032	310																								25	prime_left.png	0	382572	0	0	13	0	382572	0	382572	1	382572	20	0	-1	381073	382572	382571	0		TrialProc1	right	0		0	10	382882	-382882		0	0	TrialList1	target_right.png	1	l	-1	3	382622	260	l	400	383022												6	1	72				incomp			300
1 ver1_main_procedure	7	1	26	<?xml version="1.0"?>\n<Clock xmlns:dt="urn:schemas-microsoft-com:datatypes"><Description dt:dt="string">E-Prime Primary Realtime Clock</Description><StartTime><Timestamp dt:dt="int">0</Timestamp><DateUtc dt:dt="string">2015-08-10T14:17:26Z</DateUtc></StartTime><FrequencyChanges><FrequencyChange><Frequency dt:dt="r8">2612324</Frequency><Timestamp dt:dt="r8">70018280764</Timestamp><Current dt:dt="r8">0</Current><DateUtc dt:dt="string">2015-08-10T14:17:26Z</DateUtc></FrequencyChange></FrequencyChanges></Clock>\n	1 ver1_main_procedure-7-1	99.936	1.0.0.880	1	pk	1299308176	prawa	1	2.0.10.182	08-10-2015	2015-08-10 14:17:27	16:17:27	mezczyzna	2.0.10.92	3	3	1	1																							d	{SPACE}		no	BlockProc1		BlockList									73									2	4	6	1	5	3	color_orange.png	color_purple.png	color_red.png	color_green.png	color_yellow.png	color_blue.png	color_green.png	color_orange.png	color_blue.png	color_purple.png	color_yellow.png	color_red.png		1	1	1	34991																						DragProc											Ocena																															
1 ver1_main_procedure	7	1	26	<?xml version="1.0"?>\n<Clock xmlns:dt="urn:schemas-microsoft-com:datatypes"><Description dt:dt="string">E-Prime Primary Realtime Clock</Description><StartTime><Timestamp dt:dt="int">0</Timestamp><DateUtc dt:dt="string">2015-08-10T14:17:26Z</DateUtc></StartTime><FrequencyChanges><FrequencyChange><Frequency dt:dt="r8">2612324</Frequency><Timestamp dt:dt="r8">70018280764</Timestamp><Current dt:dt="r8">0</Current><DateUtc dt:dt="string">2015-08-10T14:17:26Z</DateUtc></FrequencyChange></FrequencyChanges></Clock>\n	1 ver1_main_procedure-7-1	99.936	1.0.0.880	1	pk	1299308176	prawa	1	2.0.10.182	08-10-2015	2015-08-10 14:17:27	16:17:27	mezczyzna	2.0.10.92	3	3	1	1																							d	{SPACE}		no	BlockProc1		BlockList									74				Liczby muszą być przypisane w sposób rosnący.											color_orange.png	color_purple.png	color_red.png	color_green.png	color_yellow.png	color_blue.png								2	1	2																							EnterProc											Ocena												10	20	30	40	50	60														
1 ver1_main_procedure	7	1	26	<?xml version="1.0"?>\n<Clock xmlns:dt="urn:schemas-microsoft-com:datatypes"><Description dt:dt="string">E-Prime Primary Realtime Clock</Description><StartTime><Timestamp dt:dt="int">0</Timestamp><DateUtc dt:dt="string">2015-08-10T14:17:26Z</DateUtc></StartTime><FrequencyChanges><FrequencyChange><Frequency dt:dt="r8">2612324</Frequency><Timestamp dt:dt="r8">70018280764</Timestamp><Current dt:dt="r8">0</Current><DateUtc dt:dt="string">2015-08-10T14:17:26Z</DateUtc></FrequencyChange></FrequencyChanges></Clock>\n	1 ver1_main_procedure-7-1	99.936	1.0.0.880	1	pk	1299308176	prawa	1	2.0.10.182	08-10-2015	2015-08-10 14:17:27	16:17:27	mezczyzna	2.0.10.92	4	1	1	2																							d	{SPACE}		no	BlockProc1		BlockList									1	Free	dl	color_yellow.png		-1	13	631598	310																								25	prime_left.png	0	630768	0	0	13	0	630768	0	630768	1	630768	20	0	-1	629269	630768	630767	0		TrialProc1	left	0		0	10	631078	-631078		0	0	TrialList1	target_both.png	0	dl	-1	3	630818	260	d	767	631585												7	2	73				comp			300
1 ver1_main_procedure	7	1	26	<?xml version="1.0"?>\n<Clock xmlns:dt="urn:schemas-microsoft-com:datatypes"><Description dt:dt="string">E-Prime Primary Realtime Clock</Description><StartTime><Timestamp dt:dt="int">0</Timestamp><DateUtc dt:dt="string">2015-08-10T14:17:26Z</DateUtc></StartTime><FrequencyChanges><FrequencyChange><Frequency dt:dt="r8">2612324</Frequency><Timestamp dt:dt="r8">70018280764</Timestamp><Current dt:dt="r8">0</Current><DateUtc dt:dt="string">2015-08-10T14:17:26Z</DateUtc></FrequencyChange></FrequencyChanges></Clock>\n	1 ver1_main_procedure-7-1	99.936	1.0.0.880	1	pk	1299308176	prawa	1	2.0.10.182	08-10-2015	2015-08-10 14:17:27	16:17:27	mezczyzna	2.0.10.92	4	1	1	2																							d	{SPACE}		no	BlockProc1		BlockList									2	Cued	l	color_red.png		-1	7	634320	160																								75	prime_left.png	0	633719	0	0	13	1	633720	1	633720	0	633719	20	0	-1	632220	633719	633719	0		TrialProc1	right	0		0	11	634030	-634030		0	0	TrialList1	target_right.png	1	l	-1	3	633769	261	l	544	634313												6	2	74				incomp			150
1 ver1_main_procedure	7	1	26	<?xml version="1.0"?>\n<Clock xmlns:dt="urn:schemas-microsoft-com:datatypes"><Description dt:dt="string">E-Prime Primary Realtime Clock</Description><StartTime><Timestamp dt:dt="int">0</Timestamp><DateUtc dt:dt="string">2015-08-10T14:17:26Z</DateUtc></StartTime><FrequencyChanges><FrequencyChange><Frequency dt:dt="r8">2612324</Frequency><Timestamp dt:dt="r8">70018280764</Timestamp><Current dt:dt="r8">0</Current><DateUtc dt:dt="string">2015-08-10T14:17:26Z</DateUtc></FrequencyChange></FrequencyChanges></Clock>\n	1 ver1_main_procedure-7-1	99.936	1.0.0.880	1	pk	1299308176	prawa	1	2.0.10.182	08-10-2015	2015-08-10 14:17:27	16:17:27	mezczyzna	2.0.10.92	4	1	1	2																							d	{SPACE}		no	BlockProc1		BlockList									3	Cued	d	color_blue.png		-1	8	636881	310																			1					75	prime_left.png	0	636291	0	0	13	0	636291	0	636291	1	636291	20	0	-1	634792	636291	636290	0	prime_left.png	TrialProc1	left	0		0	10	636601	-636601		0	0	TrialList1	target_left.png	1	d	-1	3	636341	260	d	532	636873												2	2	75				neut			300
1 ver1_main_procedure	7	1	26	<?xml version="1.0"?>\n<Clock xmlns:dt="urn:schemas-microsoft-com:datatypes"><Description dt:dt="string">E-Prime Primary Realtime Clock</Description><StartTime><Timestamp dt:dt="int">0</Timestamp><DateUtc dt:dt="string">2015-08-10T14:17:26Z</DateUtc></StartTime><FrequencyChanges><FrequencyChange><Frequency dt:dt="r8">2612324</Frequency><Timestamp dt:dt="r8">70018280764</Timestamp><Current dt:dt="r8">0</Current><DateUtc dt:dt="string">2015-08-10T14:17:26Z</DateUtc></FrequencyChange></FrequencyChanges></Clock>\n	1 ver1_main_procedure-7-1	99.936	1.0.0.880	1	pk	1299308176	prawa	1	2.0.10.182	08-10-2015	2015-08-10 14:17:27	16:17:27	mezczyzna	2.0.10.92	4	1	1	2																							d	{SPACE}		no	BlockProc1		BlockList									4	Free	dl	color_yellow.png		-1	8	639553	460																								75	prime_left.png	0	639003	0	0	13	0	639003	0	639003	1	639003	20	0	-1	637504	639003	639002	0		TrialProc1	right	0		0	10	639313	-639313		0	0	TrialList1	target_both.png	0	dl	-1	3	639053	260	d	492	639545												12	2	76				incomp			450
1 ver1_main_procedure	7	1	26	<?xml version="1.0"?>\n<Clock xmlns:dt="urn:schemas-microsoft-com:datatypes"><Description dt:dt="string">E-Prime Primary Realtime Clock</Description><StartTime><Timestamp dt:dt="int">0</Timestamp><DateUtc dt:dt="string">2015-08-10T14:17:26Z</DateUtc></StartTime><FrequencyChanges><FrequencyChange><Frequency dt:dt="r8">2612324</Frequency><Timestamp dt:dt="r8">70018280764</Timestamp><Current dt:dt="r8">0</Current><DateUtc dt:dt="string">2015-08-10T14:17:26Z</DateUtc></FrequencyChange></FrequencyChanges></Clock>\n	1 ver1_main_procedure-7-1	99.936	1.0.0.880	1	pk	1299308176	prawa	1	2.0.10.182	08-10-2015	2015-08-10 14:17:27	16:17:27	mezczyzna	2.0.10.92	4	1	1	2																							d	{SPACE}		no	BlockProc1		BlockList									5	Cued	l	color_red.png		-1	11	642244	161																								75	prime_left.png	0	641824	0	0	13	0	641824	0	641824	1	641824	20	0	-1	640325	641824	641823	0		TrialProc1	right	0		1	10	642134	-642134		0	0	TrialList1	target_right.png	1	l	-1	3	641874	260	l	359	642233												6	2	77				incomp			150
1 ver1_main_procedure	7	1	26	<?xml version="1.0"?>\n<Clock xmlns:dt="urn:schemas-microsoft-com:datatypes"><Description dt:dt="string">E-Prime Primary Realtime Clock</Description><StartTime><Timestamp dt:dt="int">0</Timestamp><DateUtc dt:dt="string">2015-08-10T14:17:26Z</DateUtc></StartTime><FrequencyChanges><FrequencyChange><Frequency dt:dt="r8">2612324</Frequency><Timestamp dt:dt="r8">70018280764</Timestamp><Current dt:dt="r8">0</Current><DateUtc dt:dt="string">2015-08-10T14:17:26Z</DateUtc></FrequencyChange></FrequencyChanges></Clock>\n	1 ver1_main_procedure-7-1	99.936	1.0.0.880	1	pk	1299308176	prawa	1	2.0.10.182	08-10-2015	2015-08-10 14:17:27	16:17:27	mezczyzna	2.0.10.92	4	1	1	2																							d	{SPACE}		no	BlockProc1		BlockList									6	Cued	d	color_yellow.png		-1	9	644586	460																								75	prime_left.png	0	644216	0	0	13	0	644216	0	644216	1	644216	20	0	-1	642716	644216	644215	0		TrialProc1	left	0		0	10	644526	-644526		0	0	TrialList1	target_left.png	1	d	-1	3	644266	260	d	311	644577												1	2	78				comp			450
1 ver1_main_procedure	7	1	26	<?xml version="1.0"?>\n<Clock xmlns:dt="urn:schemas-microsoft-com:datatypes"><Description dt:dt="string">E-Prime Primary Realtime Clock</Description><StartTime><Timestamp dt:dt="int">0</Timestamp><DateUtc dt:dt="string">2015-08-10T14:17:26Z</DateUtc></StartTime><FrequencyChanges><FrequencyChange><Frequency dt:dt="r8">2612324</Frequency><Timestamp dt:dt="r8">70018280764</Timestamp><Current dt:dt="r8">0</Current><DateUtc dt:dt="string">2015-08-10T14:17:26Z</DateUtc></FrequencyChange></FrequencyChanges></Clock>\n	1 ver1_main_procedure-7-1	99.936	1.0.0.880	1	pk	1299308176	prawa	1	2.0.10.182	08-10-2015	2015-08-10 14:17:27	16:17:27	mezczyzna	2.0.10.92	4	1	1	2																							d	{SPACE}		no	BlockProc1		BlockList									7	Free	dl	color_blue.png		-1	11	647317	311																			2					75	prime_right.png	0	646857	0	0	13	0	646857	0	646857	1	646857	20	0	-1	645358	646857	646856	0	prime_right.png	TrialProc1	right	0		1	10	647167	-647167		0	0	TrialList1	target_both.png	0	dl	-1	3	646907	260	d	398	647305												11	2	79				neut			300
1 ver1_main_procedure	7	1	26	<?xml version="1.0"?>\n<Clock xmlns:dt="urn:schemas-microsoft-com:datatypes"><Description dt:dt="string">E-Prime Primary Realtime Clock</Description><StartTime><Timestamp dt:dt="int">0</Timestamp><DateUtc dt:dt="string">2015-08-10T14:17:26Z</DateUtc></StartTime><FrequencyChanges><FrequencyChange><Frequency dt:dt="r8">2612324</Frequency><Timestamp dt:dt="r8">70018280764</Timestamp><Current dt:dt="r8">0</Current><DateUtc dt:dt="string">2015-08-10T14:17:26Z</DateUtc></FrequencyChange></FrequencyChanges></Clock>\n	1 ver1_main_procedure-7-1	99.936	1.0.0.880	1	pk	1299308176	prawa	1	2.0.10.182	08-10-2015	2015-08-10 14:17:27	16:17:27	mezczyzna	2.0.10.92	4	1	1	2																							d	{SPACE}		no	BlockProc1		BlockList									8	Cued	l	color_purple.png		-1	9	649819	160																			1					75	prime_left.png	0	649439	0	0	13	0	649439	0	649439	1	649439	20	0	-1	647939	649439	649438	0	prime_left.png	TrialProc1	right	0		0	10	649749	-649749		0	0	TrialList1	target_right.png	1	l	-1	3	649489	260	l	320	649809												5	2	80				neut			150
1 ver1_main_procedure	7	1	26	<?xml version="1.0"?>\n<Clock xmlns:dt="urn:schemas-microsoft-com:datatypes"><Description dt:dt="string">E-Prime Primary Realtime Clock</Description><StartTime><Timestamp dt:dt="int">0</Timestamp><DateUtc dt:dt="string">2015-08-10T14:17:26Z</DateUtc></StartTime><FrequencyChanges><FrequencyChange><Frequency dt:dt="r8">2612324</Frequency><Timestamp dt:dt="r8">70018280764</Timestamp><Current dt:dt="r8">0</Current><DateUtc dt:dt="string">2015-08-10T14:17:26Z</DateUtc></FrequencyChange></FrequencyChanges></Clock>\n	1 ver1_main_procedure-7-1	99.936	1.0.0.880	1	pk	1299308176	prawa	1	2.0.10.182	08-10-2015	2015-08-10 14:17:27	16:17:27	mezczyzna	2.0.10.92	4	1	1	2																							d	{SPACE}		no	BlockProc1		BlockList									9	Free	dl	color_green.png		-1	6	652120	160																								75	prime_right.png	0	651790	0	0	13	0	651790	0	651790	1	651790	20	0	-1	650291	651790	651789	0		TrialProc1	right	0		0	10	652100	-652100		0	0	TrialList1	target_both.png	0	dl	-1	3	651840	260	d	273	652113												10	2	81				comp			150
