ExperimentName	Subject	Session	Age	Clock.Information	DataFile.Basename	Display.RefreshRate	ExperimentVersion	Group	Name	RandomSeed	Recznosc	ResearcherID	RuntimeVersion	SessionDate	SessionStartDateTimeUtc	SessionTime	Sex	StudioVersion	Block	BlockList	BlockList.Cycle	BlockList.Sample	BlockNumber	GoodBye.RESP	GoodBye2.RESP	GoodByeList	GoodByeList.Cycle	GoodByeList.Sample	InstrList	InstrList.Cycle	InstrList.Sample	Instructions3.RESP	Instructions4.RESP	Instructions5.RESP	kobieta_S1	kobieta_S2	kobieta_S3	kobieta_S4	kobieta_S5	mezczyzna_S1	mezczyzna_S2	mezczyzna_S3	mezczyzna_S4	mezczyzna_S5	NextBlock.RESP	NextBlock0.RESP	planowanie	PracticeMode	Procedure[Block]	proszenie	Running[Block]	TrainingList	TrainingList.Cycle	TrainingList.Sample	WordList	WordList1	wykonanie	zauwazenie	zrozumienie	Trial	ChoiceType	CorrectRespon	Effect	ErrorText	Fixation2.DurationError	Fixation2.OnsetDelay	Fixation2.OnsetTime	Fixation2.OnsetToOnsetTime	GoalRespInd1	GoalRespInd2	GoalRespInd3	GoalRespInd4	GoalRespInd5	GoalRespInd6	GoalRespName1	GoalRespName2	GoalRespName3	GoalRespName4	GoalRespName5	GoalRespName6	kol1	kol2	kol3	kol4	kol5	kol6	NeutralPrimeList1	Ocena	Ocena.Cycle	Ocena.Sample	OverallRT	Posit	Prime	Prime.ActionDelay	Prime.ActionTime	Prime.CustomOffsetTime	Prime.CustomOnsetTime	Prime.Duration	Prime.DurationError	Prime.FinishTime	Prime.OffsetDelay	Prime.OffsetTime	Prime.OnsetDelay	Prime.OnsetTime	Prime.OnsetToOnsetTime	Prime.PendingInputMasks	Prime.PreRelease	Prime.StartTime	Prime.TargetOffsetTime	Prime.TargetOnsetTime	Prime.TimingMode	PrimeChoice	Procedure[Trial]	Resp	RespWin.ACC	RespWin.CRESP	RespWin.DurationError	RespWin.OnsetDelay	RespWin.OnsetTime	RespWin.OnsetToOnsetTime	RespWin.RESP	RespWin.RT	RespWin.RTTime	Running[Trial]	Target	TargetSlide.ACC	TargetSlide.CRESP	TargetSlide.DurationError	TargetSlide.OnsetDelay	TargetSlide.OnsetTime	TargetSlide.OnsetToOnsetTime	TargetSlide.RESP	TargetSlide.RT	TargetSlide.RTTime	TargetTraining	TBox1	TBox2	TBox3	TBox4	TBox5	TBox6	TrainingList1	TrainingList1.Cycle	TrainingList1.Sample	TrCorrectResp	TrialList1	TrialList1.Cycle	TrialList1.Sample	TrialList2	TrialList2.Cycle	TrialList2.Sample	TrialType	TrPosit	TrWaitTime	WaitTime
1 ver1_main_procedure	8	1	21	<?xml version="1.0"?>\n<Clock xmlns:dt="urn:schemas-microsoft-com:datatypes"><Description dt:dt="string">E-Prime Primary Realtime Clock</Description><StartTime><Timestamp dt:dt="int">0</Timestamp><DateUtc dt:dt="string">2015-08-11T07:55:35Z</DateUtc></StartTime><FrequencyChanges><FrequencyChange><Frequency dt:dt="r8">2441406</Frequency><Timestamp dt:dt="r8">1529764338</Timestamp><Current dt:dt="r8">0</Current><DateUtc dt:dt="string">2015-08-11T07:55:35Z</DateUtc></FrequencyChange></FrequencyChanges></Clock>\n	1 ver1_main_procedure-8-1	99.925	1.0.0.880	2	mk	1530229063	prawa	1	2.0.10.356	08-11-2015	2015-08-11 07:55:35	09:55:35	mezczyzna	2.0.10.92	1										1	1	1	{SPACE}	{SPACE}	l	poproszona	planowała	zrozumiałaś	wykonała		poproszony	planował	zrozumiałeś	wykonał				planował		InstrProc	poproszony	InstrList				1		wykonał		zrozumiałeś																																																																																																
1 ver1_main_procedure	8	1	21	<?xml version="1.0"?>\n<Clock xmlns:dt="urn:schemas-microsoft-com:datatypes"><Description dt:dt="string">E-Prime Primary Realtime Clock</Description><StartTime><Timestamp dt:dt="int">0</Timestamp><DateUtc dt:dt="string">2015-08-11T07:55:35Z</DateUtc></StartTime><FrequencyChanges><FrequencyChange><Frequency dt:dt="r8">2441406</Frequency><Timestamp dt:dt="r8">1529764338</Timestamp><Current dt:dt="r8">0</Current><DateUtc dt:dt="string">2015-08-11T07:55:35Z</DateUtc></FrequencyChange></FrequencyChanges></Clock>\n	1 ver1_main_procedure-8-1	99.925	1.0.0.880	2	mk	1530229063	prawa	1	2.0.10.356	08-11-2015	2015-08-11 07:55:35	09:55:35	mezczyzna	2.0.10.92	2																														TrainingProc1		TrainingList	1	1	1						1																																																					TrainProc											TrainingList1											target_both.png							3	1	1	dl								75	450	
1 ver1_main_procedure	8	1	21	<?xml version="1.0"?>\n<Clock xmlns:dt="urn:schemas-microsoft-com:datatypes"><Description dt:dt="string">E-Prime Primary Realtime Clock</Description><StartTime><Timestamp dt:dt="int">0</Timestamp><DateUtc dt:dt="string">2015-08-11T07:55:35Z</DateUtc></StartTime><FrequencyChanges><FrequencyChange><Frequency dt:dt="r8">2441406</Frequency><Timestamp dt:dt="r8">1529764338</Timestamp><Current dt:dt="r8">0</Current><DateUtc dt:dt="string">2015-08-11T07:55:35Z</DateUtc></FrequencyChange></FrequencyChanges></Clock>\n	1 ver1_main_procedure-8-1	99.925	1.0.0.880	2	mk	1530229063	prawa	1	2.0.10.356	08-11-2015	2015-08-11 07:55:35	09:55:35	mezczyzna	2.0.10.92	2																														TrainingProc1		TrainingList	1	1	1						2																																																					TrainProc											TrainingList1											target_left.png							1	1	2	d								75	450	
1 ver1_main_procedure	8	1	21	<?xml version="1.0"?>\n<Clock xmlns:dt="urn:schemas-microsoft-com:datatypes"><Description dt:dt="string">E-Prime Primary Realtime Clock</Description><StartTime><Timestamp dt:dt="int">0</Timestamp><DateUtc dt:dt="string">2015-08-11T07:55:35Z</DateUtc></StartTime><FrequencyChanges><FrequencyChange><Frequency dt:dt="r8">2441406</Frequency><Timestamp dt:dt="r8">1529764338</Timestamp><Current dt:dt="r8">0</Current><DateUtc dt:dt="string">2015-08-11T07:55:35Z</DateUtc></FrequencyChange></FrequencyChanges></Clock>\n	1 ver1_main_procedure-8-1	99.925	1.0.0.880	2	mk	1530229063	prawa	1	2.0.10.356	08-11-2015	2015-08-11 07:55:35	09:55:35	mezczyzna	2.0.10.92	2																														TrainingProc1		TrainingList	1	1	1						3																																																					TrainProc											TrainingList1											target_left.png							1	1	3	d								25	300	
1 ver1_main_procedure	8	1	21	<?xml version="1.0"?>\n<Clock xmlns:dt="urn:schemas-microsoft-com:datatypes"><Description dt:dt="string">E-Prime Primary Realtime Clock</Description><StartTime><Timestamp dt:dt="int">0</Timestamp><DateUtc dt:dt="string">2015-08-11T07:55:35Z</DateUtc></StartTime><FrequencyChanges><FrequencyChange><Frequency dt:dt="r8">2441406</Frequency><Timestamp dt:dt="r8">1529764338</Timestamp><Current dt:dt="r8">0</Current><DateUtc dt:dt="string">2015-08-11T07:55:35Z</DateUtc></FrequencyChange></FrequencyChanges></Clock>\n	1 ver1_main_procedure-8-1	99.925	1.0.0.880	2	mk	1530229063	prawa	1	2.0.10.356	08-11-2015	2015-08-11 07:55:35	09:55:35	mezczyzna	2.0.10.92	2																														TrainingProc1		TrainingList	1	1	1						4																																																					TrainProc											TrainingList1											target_right.png							2	1	4	l								75	150	
1 ver1_main_procedure	8	1	21	<?xml version="1.0"?>\n<Clock xmlns:dt="urn:schemas-microsoft-com:datatypes"><Description dt:dt="string">E-Prime Primary Realtime Clock</Description><StartTime><Timestamp dt:dt="int">0</Timestamp><DateUtc dt:dt="string">2015-08-11T07:55:35Z</DateUtc></StartTime><FrequencyChanges><FrequencyChange><Frequency dt:dt="r8">2441406</Frequency><Timestamp dt:dt="r8">1529764338</Timestamp><Current dt:dt="r8">0</Current><DateUtc dt:dt="string">2015-08-11T07:55:35Z</DateUtc></FrequencyChange></FrequencyChanges></Clock>\n	1 ver1_main_procedure-8-1	99.925	1.0.0.880	2	mk	1530229063	prawa	1	2.0.10.356	08-11-2015	2015-08-11 07:55:35	09:55:35	mezczyzna	2.0.10.92	2																														TrainingProc1		TrainingList	1	1	1						5																																																					TrainProc											TrainingList1											target_both.png							3	1	5	dl								25	300	
1 ver1_main_procedure	8	1	21	<?xml version="1.0"?>\n<Clock xmlns:dt="urn:schemas-microsoft-com:datatypes"><Description dt:dt="string">E-Prime Primary Realtime Clock</Description><StartTime><Timestamp dt:dt="int">0</Timestamp><DateUtc dt:dt="string">2015-08-11T07:55:35Z</DateUtc></StartTime><FrequencyChanges><FrequencyChange><Frequency dt:dt="r8">2441406</Frequency><Timestamp dt:dt="r8">1529764338</Timestamp><Current dt:dt="r8">0</Current><DateUtc dt:dt="string">2015-08-11T07:55:35Z</DateUtc></FrequencyChange></FrequencyChanges></Clock>\n	1 ver1_main_procedure-8-1	99.925	1.0.0.880	2	mk	1530229063	prawa	1	2.0.10.356	08-11-2015	2015-08-11 07:55:35	09:55:35	mezczyzna	2.0.10.92	2																														TrainingProc1		TrainingList	1	1	1						6																																																					TrainProc											TrainingList1											target_both.png							3	1	6	dl								25	450	
1 ver1_main_procedure	8	1	21	<?xml version="1.0"?>\n<Clock xmlns:dt="urn:schemas-microsoft-com:datatypes"><Description dt:dt="string">E-Prime Primary Realtime Clock</Description><StartTime><Timestamp dt:dt="int">0</Timestamp><DateUtc dt:dt="string">2015-08-11T07:55:35Z</DateUtc></StartTime><FrequencyChanges><FrequencyChange><Frequency dt:dt="r8">2441406</Frequency><Timestamp dt:dt="r8">1529764338</Timestamp><Current dt:dt="r8">0</Current><DateUtc dt:dt="string">2015-08-11T07:55:35Z</DateUtc></FrequencyChange></FrequencyChanges></Clock>\n	1 ver1_main_procedure-8-1	99.925	1.0.0.880	2	mk	1530229063	prawa	1	2.0.10.356	08-11-2015	2015-08-11 07:55:35	09:55:35	mezczyzna	2.0.10.92	2																														TrainingProc1		TrainingList	1	1	1						7																																																					TrainProc											TrainingList1											target_left.png							1	1	7	d								75	300	
1 ver1_main_procedure	8	1	21	<?xml version="1.0"?>\n<Clock xmlns:dt="urn:schemas-microsoft-com:datatypes"><Description dt:dt="string">E-Prime Primary Realtime Clock</Description><StartTime><Timestamp dt:dt="int">0</Timestamp><DateUtc dt:dt="string">2015-08-11T07:55:35Z</DateUtc></StartTime><FrequencyChanges><FrequencyChange><Frequency dt:dt="r8">2441406</Frequency><Timestamp dt:dt="r8">1529764338</Timestamp><Current dt:dt="r8">0</Current><DateUtc dt:dt="string">2015-08-11T07:55:35Z</DateUtc></FrequencyChange></FrequencyChanges></Clock>\n	1 ver1_main_procedure-8-1	99.925	1.0.0.880	2	mk	1530229063	prawa	1	2.0.10.356	08-11-2015	2015-08-11 07:55:35	09:55:35	mezczyzna	2.0.10.92	2																														TrainingProc1		TrainingList	1	1	1						8																																																					TrainProc											TrainingList1											target_right.png							2	1	8	l								25	150	
1 ver1_main_procedure	8	1	21	<?xml version="1.0"?>\n<Clock xmlns:dt="urn:schemas-microsoft-com:datatypes"><Description dt:dt="string">E-Prime Primary Realtime Clock</Description><StartTime><Timestamp dt:dt="int">0</Timestamp><DateUtc dt:dt="string">2015-08-11T07:55:35Z</DateUtc></StartTime><FrequencyChanges><FrequencyChange><Frequency dt:dt="r8">2441406</Frequency><Timestamp dt:dt="r8">1529764338</Timestamp><Current dt:dt="r8">0</Current><DateUtc dt:dt="string">2015-08-11T07:55:35Z</DateUtc></FrequencyChange></FrequencyChanges></Clock>\n	1 ver1_main_procedure-8-1	99.925	1.0.0.880	2	mk	1530229063	prawa	1	2.0.10.356	08-11-2015	2015-08-11 07:55:35	09:55:35	mezczyzna	2.0.10.92	2																														TrainingProc1		TrainingList	1	1	1						9																																																					TrainProc											TrainingList1											target_right.png							2	1	9	l								75	450	
1 ver1_main_procedure	8	1	21	<?xml version="1.0"?>\n<Clock xmlns:dt="urn:schemas-microsoft-com:datatypes"><Description dt:dt="string">E-Prime Primary Realtime Clock</Description><StartTime><Timestamp dt:dt="int">0</Timestamp><DateUtc dt:dt="string">2015-08-11T07:55:35Z</DateUtc></StartTime><FrequencyChanges><FrequencyChange><Frequency dt:dt="r8">2441406</Frequency><Timestamp dt:dt="r8">1529764338</Timestamp><Current dt:dt="r8">0</Current><DateUtc dt:dt="string">2015-08-11T07:55:35Z</DateUtc></FrequencyChange></FrequencyChanges></Clock>\n	1 ver1_main_procedure-8-1	99.925	1.0.0.880	2	mk	1530229063	prawa	1	2.0.10.356	08-11-2015	2015-08-11 07:55:35	09:55:35	mezczyzna	2.0.10.92	3	5	1	1																							l	{SPACE}		no	BlockProc2		BlockList									1	Cued	d	color_green.png		0	12	177263	180																								25	prime_left.png	0	176913	0	0	13	0	176913	0	176913	2	176913	20	0	-1	175414	176913	176911	0		TrialProc1	left	0		0	20	177233	-177233		0	0	TrialList2	target_left.png	1	d	0	3	176963	270	d	287	177250															1	1	1	comp			150
1 ver1_main_procedure	8	1	21	<?xml version="1.0"?>\n<Clock xmlns:dt="urn:schemas-microsoft-com:datatypes"><Description dt:dt="string">E-Prime Primary Realtime Clock</Description><StartTime><Timestamp dt:dt="int">0</Timestamp><DateUtc dt:dt="string">2015-08-11T07:55:35Z</DateUtc></StartTime><FrequencyChanges><FrequencyChange><Frequency dt:dt="r8">2441406</Frequency><Timestamp dt:dt="r8">1529764338</Timestamp><Current dt:dt="r8">0</Current><DateUtc dt:dt="string">2015-08-11T07:55:35Z</DateUtc></FrequencyChange></FrequencyChanges></Clock>\n	1 ver1_main_procedure-8-1	99.925	1.0.0.880	2	mk	1530229063	prawa	1	2.0.10.356	08-11-2015	2015-08-11 07:55:35	09:55:35	mezczyzna	2.0.10.92	3	5	1	1																							l	{SPACE}		no	BlockProc2		BlockList									2	Cued	l			0	10	179514	161																								25	prime_left.png	0	179254	0	0	13	0	179255	0	179254	1	179254	20	0	-1	177755	179254	179253	0		TrialProc1	right	0		0	0	0	0		0	0	TrialList2	target_right.png	0	l	-999999	3	179304	0	d	200	179504															6	1	2	incomp			150
1 ver1_main_procedure	8	1	21	<?xml version="1.0"?>\n<Clock xmlns:dt="urn:schemas-microsoft-com:datatypes"><Description dt:dt="string">E-Prime Primary Realtime Clock</Description><StartTime><Timestamp dt:dt="int">0</Timestamp><DateUtc dt:dt="string">2015-08-11T07:55:35Z</DateUtc></StartTime><FrequencyChanges><FrequencyChange><Frequency dt:dt="r8">2441406</Frequency><Timestamp dt:dt="r8">1529764338</Timestamp><Current dt:dt="r8">0</Current><DateUtc dt:dt="string">2015-08-11T07:55:35Z</DateUtc></FrequencyChange></FrequencyChanges></Clock>\n	1 ver1_main_procedure-8-1	99.925	1.0.0.880	2	mk	1530229063	prawa	1	2.0.10.356	08-11-2015	2015-08-11 07:55:35	09:55:35	mezczyzna	2.0.10.92	3	5	1	1																							l	{SPACE}		no	BlockProc2		BlockList									3	Free	dl	color_red.png		0	10	181806	471																								25	prime_right.png	0	181486	0	0	13	0	181486	0	181486	1	181486	20	0	-1	179987	181486	181485	0		TrialProc1	right	0		-999999	10	181796	0		0	0	TrialList2	target_both.png	0	dl	0	3	181536	0	d	256	181792															10	1	3	comp			450
1 ver1_main_procedure	8	1	21	<?xml version="1.0"?>\n<Clock xmlns:dt="urn:schemas-microsoft-com:datatypes"><Description dt:dt="string">E-Prime Primary Realtime Clock</Description><StartTime><Timestamp dt:dt="int">0</Timestamp><DateUtc dt:dt="string">2015-08-11T07:55:35Z</DateUtc></StartTime><FrequencyChanges><FrequencyChange><Frequency dt:dt="r8">2441406</Frequency><Timestamp dt:dt="r8">1529764338</Timestamp><Current dt:dt="r8">0</Current><DateUtc dt:dt="string">2015-08-11T07:55:35Z</DateUtc></FrequencyChange></FrequencyChanges></Clock>\n	1 ver1_main_procedure-8-1	99.925	1.0.0.880	2	mk	1530229063	prawa	1	2.0.10.356	08-11-2015	2015-08-11 07:55:35	09:55:35	mezczyzna	2.0.10.92	3	5	1	1																							l	{SPACE}		no	BlockProc2		BlockList									4	Free	dl	color_blue.png		0	8	184408	320																								75	prime_right.png	0	184088	0	0	13	0	184088	0	184088	1	184088	20	0	-1	182589	184088	184087	0		TrialProc1	left	0		0	10	184398	-184398		0	0	TrialList2	target_both.png	0	dl	0	3	184138	260	l	262	184400															9	1	4	incomp			300
1 ver1_main_procedure	8	1	21	<?xml version="1.0"?>\n<Clock xmlns:dt="urn:schemas-microsoft-com:datatypes"><Description dt:dt="string">E-Prime Primary Realtime Clock</Description><StartTime><Timestamp dt:dt="int">0</Timestamp><DateUtc dt:dt="string">2015-08-11T07:55:35Z</DateUtc></StartTime><FrequencyChanges><FrequencyChange><Frequency dt:dt="r8">2441406</Frequency><Timestamp dt:dt="r8">1529764338</Timestamp><Current dt:dt="r8">0</Current><DateUtc dt:dt="string">2015-08-11T07:55:35Z</DateUtc></FrequencyChange></FrequencyChanges></Clock>\n	1 ver1_main_procedure-8-1	99.925	1.0.0.880	2	mk	1530229063	prawa	1	2.0.10.356	08-11-2015	2015-08-11 07:55:35	09:55:35	mezczyzna	2.0.10.92	3	5	1	1																							l	{SPACE}		no	BlockProc2		BlockList									5	Free	dl	color_yellow.png		0	12	186890	460																			1					25	prime_left.png	0	186540	0	0	13	0	186540	0	186540	1	186540	20	0	-1	185041	186540	186539	0	prime_left.png	TrialProc1	left	0		0	10	186850	-186850		0	0	TrialList2	target_both.png	0	dl	0	3	186590	260	d	288	186878															8	1	5	neut			450
1 ver1_main_procedure	8	1	21	<?xml version="1.0"?>\n<Clock xmlns:dt="urn:schemas-microsoft-com:datatypes"><Description dt:dt="string">E-Prime Primary Realtime Clock</Description><StartTime><Timestamp dt:dt="int">0</Timestamp><DateUtc dt:dt="string">2015-08-11T07:55:35Z</DateUtc></StartTime><FrequencyChanges><FrequencyChange><Frequency dt:dt="r8">2441406</Frequency><Timestamp dt:dt="r8">1529764338</Timestamp><Current dt:dt="r8">0</Current><DateUtc dt:dt="string">2015-08-11T07:55:35Z</DateUtc></FrequencyChange></FrequencyChanges></Clock>\n	1 ver1_main_procedure-8-1	99.925	1.0.0.880	2	mk	1530229063	prawa	1	2.0.10.356	08-11-2015	2015-08-11 07:55:35	09:55:35	mezczyzna	2.0.10.92	3	5	1	1																							l	{SPACE}		no	BlockProc2		BlockList									6	Free	dl	color_blue.png		0	8	189482	160																								25	prime_right.png	0	189162	0	0	13	0	189162	0	189162	1	189162	20	0	-1	187663	189162	189161	0		TrialProc1	left	0		0	10	189472	-189472		0	0	TrialList2	target_both.png	0	dl	0	3	189212	260	l	262	189474															9	1	6	incomp			150
1 ver1_main_procedure	8	1	21	<?xml version="1.0"?>\n<Clock xmlns:dt="urn:schemas-microsoft-com:datatypes"><Description dt:dt="string">E-Prime Primary Realtime Clock</Description><StartTime><Timestamp dt:dt="int">0</Timestamp><DateUtc dt:dt="string">2015-08-11T07:55:35Z</DateUtc></StartTime><FrequencyChanges><FrequencyChange><Frequency dt:dt="r8">2441406</Frequency><Timestamp dt:dt="r8">1529764338</Timestamp><Current dt:dt="r8">0</Current><DateUtc dt:dt="string">2015-08-11T07:55:35Z</DateUtc></FrequencyChange></FrequencyChanges></Clock>\n	1 ver1_main_procedure-8-1	99.925	1.0.0.880	2	mk	1530229063	prawa	1	2.0.10.356	08-11-2015	2015-08-11 07:55:35	09:55:35	mezczyzna	2.0.10.92	3	5	1	1																							l	{SPACE}		no	BlockProc2		BlockList									7	Free	dl	color_purple.png		0	13	191884	460																								25	prime_left.png	1	191454	0	0	13	1	191454	1	191454	1	191453	20	0	-1	189955	191453	191452	0		TrialProc1	right	0		0	11	191764	-191764		0	0	TrialList2	target_both.png	0	dl	0	3	191503	261	l	368	191871															12	1	7	incomp			450
1 ver1_main_procedure	8	1	21	<?xml version="1.0"?>\n<Clock xmlns:dt="urn:schemas-microsoft-com:datatypes"><Description dt:dt="string">E-Prime Primary Realtime Clock</Description><StartTime><Timestamp dt:dt="int">0</Timestamp><DateUtc dt:dt="string">2015-08-11T07:55:35Z</DateUtc></StartTime><FrequencyChanges><FrequencyChange><Frequency dt:dt="r8">2441406</Frequency><Timestamp dt:dt="r8">1529764338</Timestamp><Current dt:dt="r8">0</Current><DateUtc dt:dt="string">2015-08-11T07:55:35Z</DateUtc></FrequencyChange></FrequencyChanges></Clock>\n	1 ver1_main_procedure-8-1	99.925	1.0.0.880	2	mk	1530229063	prawa	1	2.0.10.356	08-11-2015	2015-08-11 07:55:35	09:55:35	mezczyzna	2.0.10.92	3	5	1	1																							l	{SPACE}		no	BlockProc2		BlockList									8	Free	dl	color_green.png		0	13	194526	160																								75	prime_left.png	1	194156	0	0	13	1	194156	1	194156	1	194155	20	0	-1	192657	194155	194154	0		TrialProc1	left	0		0	11	194466	-194466		0	0	TrialList2	target_both.png	0	dl	0	3	194205	261	d	308	194513															7	1	8	comp			150
1 ver1_main_procedure	8	1	21	<?xml version="1.0"?>\n<Clock xmlns:dt="urn:schemas-microsoft-com:datatypes"><Description dt:dt="string">E-Prime Primary Realtime Clock</Description><StartTime><Timestamp dt:dt="int">0</Timestamp><DateUtc dt:dt="string">2015-08-11T07:55:35Z</DateUtc></StartTime><FrequencyChanges><FrequencyChange><Frequency dt:dt="r8">2441406</Frequency><Timestamp dt:dt="r8">1529764338</Timestamp><Current dt:dt="r8">0</Current><DateUtc dt:dt="string">2015-08-11T07:55:35Z</DateUtc></FrequencyChange></FrequencyChanges></Clock>\n	1 ver1_main_procedure-8-1	99.925	1.0.0.880	2	mk	1530229063	prawa	1	2.0.10.356	08-11-2015	2015-08-11 07:55:35	09:55:35	mezczyzna	2.0.10.92	3	5	1	1																							l	{SPACE}		no	BlockProc2		BlockList									9	Free	dl	color_purple.png		0	8	196857	161																								25	prime_left.png	0	196497	0	0	13	0	196497	0	196497	1	196497	20	0	-1	194998	196497	196496	0		TrialProc1	left	0		1	10	196807	-196807		0	0	TrialList2	target_both.png	0	dl	0	3	196547	260	l	302	196849															7	1	9	comp			150
1 ver1_main_procedure	8	1	21	<?xml version="1.0"?>\n<Clock xmlns:dt="urn:schemas-microsoft-com:datatypes"><Description dt:dt="string">E-Prime Primary Realtime Clock</Description><StartTime><Timestamp dt:dt="int">0</Timestamp><DateUtc dt:dt="string">2015-08-11T07:55:35Z</DateUtc></StartTime><FrequencyChanges><FrequencyChange><Frequency dt:dt="r8">2441406</Frequency><Timestamp dt:dt="r8">1529764338</Timestamp><Current dt:dt="r8">0</Current><DateUtc dt:dt="string">2015-08-11T07:55:35Z</DateUtc></FrequencyChange></FrequencyChanges></Clock>\n	1 ver1_main_procedure-8-1	99.925	1.0.0.880	2	mk	1530229063	prawa	1	2.0.10.356	08-11-2015	2015-08-11 07:55:35	09:55:35	mezczyzna	2.0.10.92	3	5	1	1																							l	{SPACE}		no	BlockProc2		BlockList									10	Free	dl	color_yellow.png		0	10	199159	460																			2					25	prime_right.png	0	198829	0	0	13	0	198829	0	198829	1	198829	20	0	-1	197330	198829	198828	0	prime_right.png	TrialProc1	right	0		0	10	199139	-199139		0	0	TrialList2	target_both.png	0	dl	0	3	198879	260	d	270	199149															11	1	10	neut			450
1 ver1_main_procedure	8	1	21	<?xml version="1.0"?>\n<Clock xmlns:dt="urn:schemas-microsoft-com:datatypes"><Description dt:dt="string">E-Prime Primary Realtime Clock</Description><StartTime><Timestamp dt:dt="int">0</Timestamp><DateUtc dt:dt="string">2015-08-11T07:55:35Z</DateUtc></StartTime><FrequencyChanges><FrequencyChange><Frequency dt:dt="r8">2441406</Frequency><Timestamp dt:dt="r8">1529764338</Timestamp><Current dt:dt="r8">0</Current><DateUtc dt:dt="string">2015-08-11T07:55:35Z</DateUtc></FrequencyChange></FrequencyChanges></Clock>\n	1 ver1_main_procedure-8-1	99.925	1.0.0.880	2	mk	1530229063	prawa	1	2.0.10.356	08-11-2015	2015-08-11 07:55:35	09:55:35	mezczyzna	2.0.10.92	3	5	1	1																							l	{SPACE}		no	BlockProc2		BlockList									11	Free	dl	color_blue.png		0	6	201701	160																								75	prime_right.png	0	201431	0	0	13	0	201431	0	201431	1	201431	20	0	-1	199932	201431	201430	0		TrialProc1	right	0		0	0	0	0		0	0	TrialList2	target_both.png	0	dl	-999999	3	201481	0	l	214	201695															10	1	11	comp			150
1 ver1_main_procedure	8	1	21	<?xml version="1.0"?>\n<Clock xmlns:dt="urn:schemas-microsoft-com:datatypes"><Description dt:dt="string">E-Prime Primary Realtime Clock</Description><StartTime><Timestamp dt:dt="int">0</Timestamp><DateUtc dt:dt="string">2015-08-11T07:55:35Z</DateUtc></StartTime><FrequencyChanges><FrequencyChange><Frequency dt:dt="r8">2441406</Frequency><Timestamp dt:dt="r8">1529764338</Timestamp><Current dt:dt="r8">0</Current><DateUtc dt:dt="string">2015-08-11T07:55:35Z</DateUtc></FrequencyChange></FrequencyChanges></Clock>\n	1 ver1_main_procedure-8-1	99.925	1.0.0.880	2	mk	1530229063	prawa	1	2.0.10.356	08-11-2015	2015-08-11 07:55:35	09:55:35	mezczyzna	2.0.10.92	3	5	1	1																							l	{SPACE}		no	BlockProc2		BlockList									12	Free	dl	color_green.png		0	12	204033	460																								25	prime_left.png	0	203673	0	0	13	0	203673	0	203673	2	203673	20	0	-1	202174	203673	203671	0		TrialProc1	left	0		0	10	203983	-203983		0	0	TrialList2	target_both.png	0	dl	0	3	203723	260	d	298	204021															7	1	12	comp			450
1 ver1_main_procedure	8	1	21	<?xml version="1.0"?>\n<Clock xmlns:dt="urn:schemas-microsoft-com:datatypes"><Description dt:dt="string">E-Prime Primary Realtime Clock</Description><StartTime><Timestamp dt:dt="int">0</Timestamp><DateUtc dt:dt="string">2015-08-11T07:55:35Z</DateUtc></StartTime><FrequencyChanges><FrequencyChange><Frequency dt:dt="r8">2441406</Frequency><Timestamp dt:dt="r8">1529764338</Timestamp><Current dt:dt="r8">0</Current><DateUtc dt:dt="string">2015-08-11T07:55:35Z</DateUtc></FrequencyChange></FrequencyChanges></Clock>\n	1 ver1_main_procedure-8-1	99.925	1.0.0.880	2	mk	1530229063	prawa	1	2.0.10.356	08-11-2015	2015-08-11 07:55:35	09:55:35	mezczyzna	2.0.10.92	3	5	1	1																							l	{SPACE}		no	BlockProc2		BlockList									13	Cued	d			0	11	206575	310																								25	prime_right.png	1	206305	0	0	13	1	206305	1	206305	1	206304	21	0	-1	204806	206304	206303	0		TrialProc1	left	0		0	0	0	0		0	0	TrialList2	target_left.png	0	d	-999999	3	206355	0	l	209	206564															3	1	13	incomp			300
1 ver1_main_procedure	8	1	21	<?xml version="1.0"?>\n<Clock xmlns:dt="urn:schemas-microsoft-com:datatypes"><Description dt:dt="string">E-Prime Primary Realtime Clock</Description><StartTime><Timestamp dt:dt="int">0</Timestamp><DateUtc dt:dt="string">2015-08-11T07:55:35Z</DateUtc></StartTime><FrequencyChanges><FrequencyChange><Frequency dt:dt="r8">2441406</Frequency><Timestamp dt:dt="r8">1529764338</Timestamp><Current dt:dt="r8">0</Current><DateUtc dt:dt="string">2015-08-11T07:55:35Z</DateUtc></FrequencyChange></FrequencyChanges></Clock>\n	1 ver1_main_procedure-8-1	99.925	1.0.0.880	2	mk	1530229063	prawa	1	2.0.10.356	08-11-2015	2015-08-11 07:55:35	09:55:35	mezczyzna	2.0.10.92	3	5	1	1																							l	{SPACE}		no	BlockProc2		BlockList									14	Free	dl	color_yellow.png		0	9	209027	460																			1					25	prime_left.png	0	208696	0	0	13	0	208696	0	208696	1	208696	20	0	-1	207197	208696	208695	0	prime_left.png	TrialProc1	left	0		0	11	209007	-209007		0	0	TrialList2	target_both.png	0	dl	0	3	208746	261	d	272	209018															8	1	14	neut			450
1 ver1_main_procedure	8	1	21	<?xml version="1.0"?>\n<Clock xmlns:dt="urn:schemas-microsoft-com:datatypes"><Description dt:dt="string">E-Prime Primary Realtime Clock</Description><StartTime><Timestamp dt:dt="int">0</Timestamp><DateUtc dt:dt="string">2015-08-11T07:55:35Z</DateUtc></StartTime><FrequencyChanges><FrequencyChange><Frequency dt:dt="r8">2441406</Frequency><Timestamp dt:dt="r8">1529764338</Timestamp><Current dt:dt="r8">0</Current><DateUtc dt:dt="string">2015-08-11T07:55:35Z</DateUtc></FrequencyChange></FrequencyChanges></Clock>\n	1 ver1_main_procedure-8-1	99.925	1.0.0.880	2	mk	1530229063	prawa	1	2.0.10.356	08-11-2015	2015-08-11 07:55:35	09:55:35	mezczyzna	2.0.10.92	3	5	1	1																							l	{SPACE}		no	BlockProc2		BlockList									15	Free	dl	color_orange.png		0	11	211699	480																			2					25	prime_right.png	0	211298	0	0	13	0	211298	0	211298	1	211298	20	0	-1	209799	211298	211297	0	prime_right.png	TrialProc1	right	0		0	11	211609	-211609		0	0	TrialList2	target_both.png	0	dl	0	3	211348	261	l	340	211688															11	1	15	neut			450
1 ver1_main_procedure	8	1	21	<?xml version="1.0"?>\n<Clock xmlns:dt="urn:schemas-microsoft-com:datatypes"><Description dt:dt="string">E-Prime Primary Realtime Clock</Description><StartTime><Timestamp dt:dt="int">0</Timestamp><DateUtc dt:dt="string">2015-08-11T07:55:35Z</DateUtc></StartTime><FrequencyChanges><FrequencyChange><Frequency dt:dt="r8">2441406</Frequency><Timestamp dt:dt="r8">1529764338</Timestamp><Current dt:dt="r8">0</Current><DateUtc dt:dt="string">2015-08-11T07:55:35Z</DateUtc></FrequencyChange></FrequencyChanges></Clock>\n	1 ver1_main_procedure-8-1	99.925	1.0.0.880	2	mk	1530229063	prawa	1	2.0.10.356	08-11-2015	2015-08-11 07:55:35	09:55:35	mezczyzna	2.0.10.92	3	5	1	1																							l	{SPACE}		no	BlockProc2		BlockList									16	Free	dl	color_blue.png		0	10	214311	160																								25	prime_right.png	0	213990	0	0	13	0	213990	0	213990	1	213990	20	0	-1	212491	213990	213989	0		TrialProc1	left	0		-999999	11	214301	0		0	0	TrialList2	target_both.png	0	dl	0	3	214040	0	l	254	214294															9	1	16	incomp			150
1 ver1_main_procedure	8	1	21	<?xml version="1.0"?>\n<Clock xmlns:dt="urn:schemas-microsoft-com:datatypes"><Description dt:dt="string">E-Prime Primary Realtime Clock</Description><StartTime><Timestamp dt:dt="int">0</Timestamp><DateUtc dt:dt="string">2015-08-11T07:55:35Z</DateUtc></StartTime><FrequencyChanges><FrequencyChange><Frequency dt:dt="r8">2441406</Frequency><Timestamp dt:dt="r8">1529764338</Timestamp><Current dt:dt="r8">0</Current><DateUtc dt:dt="string">2015-08-11T07:55:35Z</DateUtc></FrequencyChange></FrequencyChanges></Clock>\n	1 ver1_main_procedure-8-1	99.925	1.0.0.880	2	mk	1530229063	prawa	1	2.0.10.356	08-11-2015	2015-08-11 07:55:35	09:55:35	mezczyzna	2.0.10.92	3	5	1	1																							l	{SPACE}		no	BlockProc2		BlockList									17	Free	dl	color_green.png		0	12	216632	461																								25	prime_left.png	0	216282	0	0	13	0	216282	0	216282	1	216282	20	0	-1	214783	216282	216281	0		TrialProc1	left	0		0	10	216592	-216592		0	0	TrialList2	target_both.png	0	dl	0	3	216332	260	d	288	216620															7	1	17	comp			450
1 ver1_main_procedure	8	1	21	<?xml version="1.0"?>\n<Clock xmlns:dt="urn:schemas-microsoft-com:datatypes"><Description dt:dt="string">E-Prime Primary Realtime Clock</Description><StartTime><Timestamp dt:dt="int">0</Timestamp><DateUtc dt:dt="string">2015-08-11T07:55:35Z</DateUtc></StartTime><FrequencyChanges><FrequencyChange><Frequency dt:dt="r8">2441406</Frequency><Timestamp dt:dt="r8">1529764338</Timestamp><Current dt:dt="r8">0</Current><DateUtc dt:dt="string">2015-08-11T07:55:35Z</DateUtc></FrequencyChange></FrequencyChanges></Clock>\n	1 ver1_main_procedure-8-1	99.925	1.0.0.880	2	mk	1530229063	prawa	1	2.0.10.356	08-11-2015	2015-08-11 07:55:35	09:55:35	mezczyzna	2.0.10.92	3	5	1	1																							l	{SPACE}		no	BlockProc2		BlockList									18	Free	dl	color_orange.png		0	14	219174	160																			1					25	prime_left.png	0	218904	0	0	13	0	218904	0	218904	1	218904	20	0	-1	217405	218904	218903	0	prime_left.png	TrialProc1	right	0		0	0	0	0		0	0	TrialList2	target_both.png	0	dl	-999999	3	218954	0	l	206	219160															11	1	18	neut			150
1 ver1_main_procedure	8	1	21	<?xml version="1.0"?>\n<Clock xmlns:dt="urn:schemas-microsoft-com:datatypes"><Description dt:dt="string">E-Prime Primary Realtime Clock</Description><StartTime><Timestamp dt:dt="int">0</Timestamp><DateUtc dt:dt="string">2015-08-11T07:55:35Z</DateUtc></StartTime><FrequencyChanges><FrequencyChange><Frequency dt:dt="r8">2441406</Frequency><Timestamp dt:dt="r8">1529764338</Timestamp><Current dt:dt="r8">0</Current><DateUtc dt:dt="string">2015-08-11T07:55:35Z</DateUtc></FrequencyChange></FrequencyChanges></Clock>\n	1 ver1_main_procedure-8-1	99.925	1.0.0.880	2	mk	1530229063	prawa	1	2.0.10.356	08-11-2015	2015-08-11 07:55:35	09:55:35	mezczyzna	2.0.10.92	3	5	1	1																							l	{SPACE}		no	BlockProc2		BlockList									19	Cued	d	color_yellow.png		0	13	221526	310																			2					25	prime_right.png	0	221146	0	0	13	0	221146	0	221146	2	221146	20	0	-1	219647	221146	221144	0	prime_right.png	TrialProc1	left	0		0	10	221456	-221456		0	0	TrialList2	target_left.png	1	d	0	3	221196	260	d	317	221513															2	1	19	neut			300
1 ver1_main_procedure	8	1	21	<?xml version="1.0"?>\n<Clock xmlns:dt="urn:schemas-microsoft-com:datatypes"><Description dt:dt="string">E-Prime Primary Realtime Clock</Description><StartTime><Timestamp dt:dt="int">0</Timestamp><DateUtc dt:dt="string">2015-08-11T07:55:35Z</DateUtc></StartTime><FrequencyChanges><FrequencyChange><Frequency dt:dt="r8">2441406</Frequency><Timestamp dt:dt="r8">1529764338</Timestamp><Current dt:dt="r8">0</Current><DateUtc dt:dt="string">2015-08-11T07:55:35Z</DateUtc></FrequencyChange></FrequencyChanges></Clock>\n	1 ver1_main_procedure-8-1	99.925	1.0.0.880	2	mk	1530229063	prawa	1	2.0.10.356	08-11-2015	2015-08-11 07:55:35	09:55:35	mezczyzna	2.0.10.92	3	5	1	1																							l	{SPACE}		no	BlockProc2		BlockList									20	Free	dl	color_orange.png		0	11	223998	460																			1					25	prime_left.png	1	223648	0	0	13	1	223648	1	223648	1	223647	21	0	-1	222149	223647	223646	0	prime_left.png	TrialProc1	left	0		0	10	223958	-223958		0	0	TrialList2	target_both.png	0	dl	0	3	223698	260	l	288	223986															8	1	20	neut			450
1 ver1_main_procedure	8	1	21	<?xml version="1.0"?>\n<Clock xmlns:dt="urn:schemas-microsoft-com:datatypes"><Description dt:dt="string">E-Prime Primary Realtime Clock</Description><StartTime><Timestamp dt:dt="int">0</Timestamp><DateUtc dt:dt="string">2015-08-11T07:55:35Z</DateUtc></StartTime><FrequencyChanges><FrequencyChange><Frequency dt:dt="r8">2441406</Frequency><Timestamp dt:dt="r8">1529764338</Timestamp><Current dt:dt="r8">0</Current><DateUtc dt:dt="string">2015-08-11T07:55:35Z</DateUtc></FrequencyChange></FrequencyChanges></Clock>\n	1 ver1_main_procedure-8-1	99.925	1.0.0.880	2	mk	1530229063	prawa	1	2.0.10.356	08-11-2015	2015-08-11 07:55:35	09:55:35	mezczyzna	2.0.10.92	3	5	1	1																							l	{SPACE}		no	BlockProc2		BlockList									21	Free	dl	color_orange.png		0	12	226620	310																			2					75	prime_right.png	1	226270	0	0	13	1	226270	1	226270	1	226269	20	0	-1	224771	226269	226268	0	prime_right.png	TrialProc1	right	0		0	11	226580	-226580		0	0	TrialList2	target_both.png	0	dl	0	3	226319	261	l	289	226608															11	1	21	neut			300
1 ver1_main_procedure	8	1	21	<?xml version="1.0"?>\n<Clock xmlns:dt="urn:schemas-microsoft-com:datatypes"><Description dt:dt="string">E-Prime Primary Realtime Clock</Description><StartTime><Timestamp dt:dt="int">0</Timestamp><DateUtc dt:dt="string">2015-08-11T07:55:35Z</DateUtc></StartTime><FrequencyChanges><FrequencyChange><Frequency dt:dt="r8">2441406</Frequency><Timestamp dt:dt="r8">1529764338</Timestamp><Current dt:dt="r8">0</Current><DateUtc dt:dt="string">2015-08-11T07:55:35Z</DateUtc></FrequencyChange></FrequencyChanges></Clock>\n	1 ver1_main_procedure-8-1	99.925	1.0.0.880	2	mk	1530229063	prawa	1	2.0.10.356	08-11-2015	2015-08-11 07:55:35	09:55:35	mezczyzna	2.0.10.92	3	5	1	1																							l	{SPACE}		no	BlockProc2		BlockList									22	Free	dl	color_blue.png		0	12	229082	460																								25	prime_right.png	0	228741	0	0	13	0	228741	0	228741	1	228741	20	0	-1	227242	228741	228740	0		TrialProc1	left	0		0	11	229052	-229052		0	0	TrialList2	target_both.png	0	dl	0	3	228791	261	l	279	229070															9	1	22	incomp			450
1 ver1_main_procedure	8	1	21	<?xml version="1.0"?>\n<Clock xmlns:dt="urn:schemas-microsoft-com:datatypes"><Description dt:dt="string">E-Prime Primary Realtime Clock</Description><StartTime><Timestamp dt:dt="int">0</Timestamp><DateUtc dt:dt="string">2015-08-11T07:55:35Z</DateUtc></StartTime><FrequencyChanges><FrequencyChange><Frequency dt:dt="r8">2441406</Frequency><Timestamp dt:dt="r8">1529764338</Timestamp><Current dt:dt="r8">0</Current><DateUtc dt:dt="string">2015-08-11T07:55:35Z</DateUtc></FrequencyChange></FrequencyChanges></Clock>\n	1 ver1_main_procedure-8-1	99.925	1.0.0.880	2	mk	1530229063	prawa	1	2.0.10.356	08-11-2015	2015-08-11 07:55:35	09:55:35	mezczyzna	2.0.10.92	3	5	1	1																							l	{SPACE}		no	BlockProc2		BlockList									23	Free	dl	color_purple.png		0	8	231734	460																								75	prime_left.png	0	231353	0	0	13	0	231353	0	231353	1	231353	20	0	-1	229855	231353	231352	0		TrialProc1	right	0		1	10	231663	-231663		0	0	TrialList2	target_both.png	0	dl	0	3	231403	260	l	323	231726															12	1	23	incomp			450
1 ver1_main_procedure	8	1	21	<?xml version="1.0"?>\n<Clock xmlns:dt="urn:schemas-microsoft-com:datatypes"><Description dt:dt="string">E-Prime Primary Realtime Clock</Description><StartTime><Timestamp dt:dt="int">0</Timestamp><DateUtc dt:dt="string">2015-08-11T07:55:35Z</DateUtc></StartTime><FrequencyChanges><FrequencyChange><Frequency dt:dt="r8">2441406</Frequency><Timestamp dt:dt="r8">1529764338</Timestamp><Current dt:dt="r8">0</Current><DateUtc dt:dt="string">2015-08-11T07:55:35Z</DateUtc></FrequencyChange></FrequencyChanges></Clock>\n	1 ver1_main_procedure-8-1	99.925	1.0.0.880	2	mk	1530229063	prawa	1	2.0.10.356	08-11-2015	2015-08-11 07:55:35	09:55:35	mezczyzna	2.0.10.92	3	5	1	1																							l	{SPACE}		no	BlockProc2		BlockList									24	Free	dl	color_orange.png		0	9	234345	311																			1					25	prime_left.png	0	234005	0	0	13	0	234005	0	234005	1	234005	20	0	-1	232506	234005	234004	0	prime_left.png	TrialProc1	left	0		1	10	234315	-234315		0	0	TrialList2	target_both.png	0	dl	0	3	234055	260	l	281	234336															8	1	24	neut			300
1 ver1_main_procedure	8	1	21	<?xml version="1.0"?>\n<Clock xmlns:dt="urn:schemas-microsoft-com:datatypes"><Description dt:dt="string">E-Prime Primary Realtime Clock</Description><StartTime><Timestamp dt:dt="int">0</Timestamp><DateUtc dt:dt="string">2015-08-11T07:55:35Z</DateUtc></StartTime><FrequencyChanges><FrequencyChange><Frequency dt:dt="r8">2441406</Frequency><Timestamp dt:dt="r8">1529764338</Timestamp><Current dt:dt="r8">0</Current><DateUtc dt:dt="string">2015-08-11T07:55:35Z</DateUtc></FrequencyChange></FrequencyChanges></Clock>\n	1 ver1_main_procedure-8-1	99.925	1.0.0.880	2	mk	1530229063	prawa	1	2.0.10.356	08-11-2015	2015-08-11 07:55:35	09:55:35	mezczyzna	2.0.10.92	3	5	1	1																							l	{SPACE}		no	BlockProc2		BlockList									25	Free	dl	color_blue.png		0	9	236747	160																								75	prime_right.png	0	236467	0	0	13	0	236467	0	236467	1	236467	20	0	-1	234968	236467	236466	0		TrialProc1	right	0		0	0	0	0		0	0	TrialList2	target_both.png	0	dl	-999999	3	236517	0	l	221	236738															10	1	25	comp			150
1 ver1_main_procedure	8	1	21	<?xml version="1.0"?>\n<Clock xmlns:dt="urn:schemas-microsoft-com:datatypes"><Description dt:dt="string">E-Prime Primary Realtime Clock</Description><StartTime><Timestamp dt:dt="int">0</Timestamp><DateUtc dt:dt="string">2015-08-11T07:55:35Z</DateUtc></StartTime><FrequencyChanges><FrequencyChange><Frequency dt:dt="r8">2441406</Frequency><Timestamp dt:dt="r8">1529764338</Timestamp><Current dt:dt="r8">0</Current><DateUtc dt:dt="string">2015-08-11T07:55:35Z</DateUtc></FrequencyChange></FrequencyChanges></Clock>\n	1 ver1_main_procedure-8-1	99.925	1.0.0.880	2	mk	1530229063	prawa	1	2.0.10.356	08-11-2015	2015-08-11 07:55:35	09:55:35	mezczyzna	2.0.10.92	3	5	1	1																							l	{SPACE}		no	BlockProc2		BlockList									26	Free	dl	color_blue.png		0	12	239079	310																								25	prime_right.png	0	238719	0	0	13	0	238719	0	238719	1	238719	20	0	-1	237220	238719	238718	0		TrialProc1	left	0		0	10	239029	-239029		0	0	TrialList2	target_both.png	0	dl	0	3	238769	260	l	298	239067															9	1	26	incomp			300
1 ver1_main_procedure	8	1	21	<?xml version="1.0"?>\n<Clock xmlns:dt="urn:schemas-microsoft-com:datatypes"><Description dt:dt="string">E-Prime Primary Realtime Clock</Description><StartTime><Timestamp dt:dt="int">0</Timestamp><DateUtc dt:dt="string">2015-08-11T07:55:35Z</DateUtc></StartTime><FrequencyChanges><FrequencyChange><Frequency dt:dt="r8">2441406</Frequency><Timestamp dt:dt="r8">1529764338</Timestamp><Current dt:dt="r8">0</Current><DateUtc dt:dt="string">2015-08-11T07:55:35Z</DateUtc></FrequencyChange></FrequencyChanges></Clock>\n	1 ver1_main_procedure-8-1	99.925	1.0.0.880	2	mk	1530229063	prawa	1	2.0.10.356	08-11-2015	2015-08-11 07:55:35	09:55:35	mezczyzna	2.0.10.92	3	5	1	1																							l	{SPACE}		no	BlockProc2		BlockList									27	Free	dl	color_purple.png		0	14	241491	310																								25	prime_left.png	0	241201	0	0	13	0	241201	0	241201	2	241201	20	0	-1	239702	241201	241199	0		TrialProc1	left	0		0	0	0	0		0	0	TrialList2	target_both.png	0	dl	-999999	3	241251	0	l	226	241477															7	1	27	comp			300
1 ver1_main_procedure	8	1	21	<?xml version="1.0"?>\n<Clock xmlns:dt="urn:schemas-microsoft-com:datatypes"><Description dt:dt="string">E-Prime Primary Realtime Clock</Description><StartTime><Timestamp dt:dt="int">0</Timestamp><DateUtc dt:dt="string">2015-08-11T07:55:35Z</DateUtc></StartTime><FrequencyChanges><FrequencyChange><Frequency dt:dt="r8">2441406</Frequency><Timestamp dt:dt="r8">1529764338</Timestamp><Current dt:dt="r8">0</Current><DateUtc dt:dt="string">2015-08-11T07:55:35Z</DateUtc></FrequencyChange></FrequencyChanges></Clock>\n	1 ver1_main_procedure-8-1	99.925	1.0.0.880	2	mk	1530229063	prawa	1	2.0.10.356	08-11-2015	2015-08-11 07:55:35	09:55:35	mezczyzna	2.0.10.92	3	5	1	1																							l	{SPACE}		no	BlockProc2		BlockList									28	Free	dl	color_green.png		0	8	243803	460																								25	prime_left.png	0	243612	0	0	13	1	243613	1	243613	1	243612	20	0	-1	242114	243612	243611	0		TrialProc1	right	0		0	0	0	0		0	0	TrialList2	target_both.png	0	dl	-999999	3	243662	0	d	133	243795															12	1	28	incomp			450
1 ver1_main_procedure	8	1	21	<?xml version="1.0"?>\n<Clock xmlns:dt="urn:schemas-microsoft-com:datatypes"><Description dt:dt="string">E-Prime Primary Realtime Clock</Description><StartTime><Timestamp dt:dt="int">0</Timestamp><DateUtc dt:dt="string">2015-08-11T07:55:35Z</DateUtc></StartTime><FrequencyChanges><FrequencyChange><Frequency dt:dt="r8">2441406</Frequency><Timestamp dt:dt="r8">1529764338</Timestamp><Current dt:dt="r8">0</Current><DateUtc dt:dt="string">2015-08-11T07:55:35Z</DateUtc></FrequencyChange></FrequencyChanges></Clock>\n	1 ver1_main_procedure-8-1	99.925	1.0.0.880	2	mk	1530229063	prawa	1	2.0.10.356	08-11-2015	2015-08-11 07:55:35	09:55:35	mezczyzna	2.0.10.92	3	5	1	1																							l	{SPACE}		no	BlockProc2		BlockList									29	Free	dl	color_green.png		0	5	246364	311																								75	prime_left.png	0	246074	0	0	13	0	246074	0	246074	1	246074	20	0	-1	244575	246074	246073	0		TrialProc1	left	0		0	0	0	0		0	0	TrialList2	target_both.png	0	dl	-999999	3	246124	0	d	235	246359															7	1	29	comp			300
1 ver1_main_procedure	8	1	21	<?xml version="1.0"?>\n<Clock xmlns:dt="urn:schemas-microsoft-com:datatypes"><Description dt:dt="string">E-Prime Primary Realtime Clock</Description><StartTime><Timestamp dt:dt="int">0</Timestamp><DateUtc dt:dt="string">2015-08-11T07:55:35Z</DateUtc></StartTime><FrequencyChanges><FrequencyChange><Frequency dt:dt="r8">2441406</Frequency><Timestamp dt:dt="r8">1529764338</Timestamp><Current dt:dt="r8">0</Current><DateUtc dt:dt="string">2015-08-11T07:55:35Z</DateUtc></FrequencyChange></FrequencyChanges></Clock>\n	1 ver1_main_procedure-8-1	99.925	1.0.0.880	2	mk	1530229063	prawa	1	2.0.10.356	08-11-2015	2015-08-11 07:55:35	09:55:35	mezczyzna	2.0.10.92	3	5	1	1																							l	{SPACE}		no	BlockProc2		BlockList									30	Free	dl	color_green.png		0	13	248756	461																								75	prime_left.png	0	248486	0	0	13	0	248486	0	248486	1	248486	20	0	-1	246987	248486	248485	0		TrialProc1	right	0		0	0	0	0		0	0	TrialList2	target_both.png	0	dl	-999999	3	248536	0	d	207	248743															12	1	30	incomp			450
1 ver1_main_procedure	8	1	21	<?xml version="1.0"?>\n<Clock xmlns:dt="urn:schemas-microsoft-com:datatypes"><Description dt:dt="string">E-Prime Primary Realtime Clock</Description><StartTime><Timestamp dt:dt="int">0</Timestamp><DateUtc dt:dt="string">2015-08-11T07:55:35Z</DateUtc></StartTime><FrequencyChanges><FrequencyChange><Frequency dt:dt="r8">2441406</Frequency><Timestamp dt:dt="r8">1529764338</Timestamp><Current dt:dt="r8">0</Current><DateUtc dt:dt="string">2015-08-11T07:55:35Z</DateUtc></FrequencyChange></FrequencyChanges></Clock>\n	1 ver1_main_procedure-8-1	99.925	1.0.0.880	2	mk	1530229063	prawa	1	2.0.10.356	08-11-2015	2015-08-11 07:55:35	09:55:35	mezczyzna	2.0.10.92	3	5	1	1																							l	{SPACE}		no	BlockProc2		BlockList									31	Free	dl	color_blue.png		0	5	251268	310																								75	prime_right.png	0	251028	0	0	13	0	251028	0	251028	1	251028	20	0	-1	249529	251028	251027	0		TrialProc1	right	0		0	0	0	0		0	0	TrialList2	target_both.png	0	dl	-999999	3	251078	0	l	185	251263															10	1	31	comp			300
1 ver1_main_procedure	8	1	21	<?xml version="1.0"?>\n<Clock xmlns:dt="urn:schemas-microsoft-com:datatypes"><Description dt:dt="string">E-Prime Primary Realtime Clock</Description><StartTime><Timestamp dt:dt="int">0</Timestamp><DateUtc dt:dt="string">2015-08-11T07:55:35Z</DateUtc></StartTime><FrequencyChanges><FrequencyChange><Frequency dt:dt="r8">2441406</Frequency><Timestamp dt:dt="r8">1529764338</Timestamp><Current dt:dt="r8">0</Current><DateUtc dt:dt="string">2015-08-11T07:55:35Z</DateUtc></FrequencyChange></FrequencyChanges></Clock>\n	1 ver1_main_procedure-8-1	99.925	1.0.0.880	2	mk	1530229063	prawa	1	2.0.10.356	08-11-2015	2015-08-11 07:55:35	09:55:35	mezczyzna	2.0.10.92	3	5	1	1																							l	{SPACE}		no	BlockProc2		BlockList									32	Free	dl	color_green.png		0	9	253650	460																								25	prime_left.png	0	253390	0	0	13	0	253390	0	253390	1	253390	20	0	-1	251891	253390	253389	0		TrialProc1	left	0		0	0	0	0		0	0	TrialList2	target_both.png	0	dl	-999999	3	253440	0	d	201	253641															7	1	32	comp			450
1 ver1_main_procedure	8	1	21	<?xml version="1.0"?>\n<Clock xmlns:dt="urn:schemas-microsoft-com:datatypes"><Description dt:dt="string">E-Prime Primary Realtime Clock</Description><StartTime><Timestamp dt:dt="int">0</Timestamp><DateUtc dt:dt="string">2015-08-11T07:55:35Z</DateUtc></StartTime><FrequencyChanges><FrequencyChange><Frequency dt:dt="r8">2441406</Frequency><Timestamp dt:dt="r8">1529764338</Timestamp><Current dt:dt="r8">0</Current><DateUtc dt:dt="string">2015-08-11T07:55:35Z</DateUtc></FrequencyChange></FrequencyChanges></Clock>\n	1 ver1_main_procedure-8-1	99.925	1.0.0.880	2	mk	1530229063	prawa	1	2.0.10.356	08-11-2015	2015-08-11 07:55:35	09:55:35	mezczyzna	2.0.10.92	3	5	1	1																							l	{SPACE}		no	BlockProc2		BlockList									33	Free	dl	color_purple.png		0	8	256242	310																								25	prime_left.png	0	255922	0	0	13	0	255922	0	255922	2	255922	20	0	-1	254423	255922	255920	0		TrialProc1	right	0		0	10	256232	-256232		0	0	TrialList2	target_both.png	0	dl	0	3	255972	260	l	262	256234															12	1	33	incomp			300
1 ver1_main_procedure	8	1	21	<?xml version="1.0"?>\n<Clock xmlns:dt="urn:schemas-microsoft-com:datatypes"><Description dt:dt="string">E-Prime Primary Realtime Clock</Description><StartTime><Timestamp dt:dt="int">0</Timestamp><DateUtc dt:dt="string">2015-08-11T07:55:35Z</DateUtc></StartTime><FrequencyChanges><FrequencyChange><Frequency dt:dt="r8">2441406</Frequency><Timestamp dt:dt="r8">1529764338</Timestamp><Current dt:dt="r8">0</Current><DateUtc dt:dt="string">2015-08-11T07:55:35Z</DateUtc></FrequencyChange></FrequencyChanges></Clock>\n	1 ver1_main_procedure-8-1	99.925	1.0.0.880	2	mk	1530229063	prawa	1	2.0.10.356	08-11-2015	2015-08-11 07:55:35	09:55:35	mezczyzna	2.0.10.92	3	5	1	1																							l	{SPACE}		no	BlockProc2		BlockList									34	Free	dl	color_red.png		0	10	258744	160																								25	prime_right.png	1	258364	0	0	13	1	258364	1	258364	1	258363	20	0	-1	256865	258363	258362	0		TrialProc1	right	0		0	11	258674	-258674		0	0	TrialList2	target_both.png	0	dl	0	3	258413	261	d	321	258734															10	1	34	comp			150
1 ver1_main_procedure	8	1	21	<?xml version="1.0"?>\n<Clock xmlns:dt="urn:schemas-microsoft-com:datatypes"><Description dt:dt="string">E-Prime Primary Realtime Clock</Description><StartTime><Timestamp dt:dt="int">0</Timestamp><DateUtc dt:dt="string">2015-08-11T07:55:35Z</DateUtc></StartTime><FrequencyChanges><FrequencyChange><Frequency dt:dt="r8">2441406</Frequency><Timestamp dt:dt="r8">1529764338</Timestamp><Current dt:dt="r8">0</Current><DateUtc dt:dt="string">2015-08-11T07:55:35Z</DateUtc></FrequencyChange></FrequencyChanges></Clock>\n	1 ver1_main_procedure-8-1	99.925	1.0.0.880	2	mk	1530229063	prawa	1	2.0.10.356	08-11-2015	2015-08-11 07:55:35	09:55:35	mezczyzna	2.0.10.92	3	5	1	1																							l	{SPACE}		no	BlockProc2		BlockList									35	Cued	l	color_orange.png		0	7	261035	311																			2					75	prime_right.png	0	260715	0	0	13	0	260715	0	260715	1	260715	20	0	-1	259216	260715	260714	0	prime_right.png	TrialProc1	right	0		1	10	261025	-261025		0	0	TrialList2	target_right.png	1	l	0	3	260765	260	l	263	261028															5	1	35	neut			300
1 ver1_main_procedure	8	1	21	<?xml version="1.0"?>\n<Clock xmlns:dt="urn:schemas-microsoft-com:datatypes"><Description dt:dt="string">E-Prime Primary Realtime Clock</Description><StartTime><Timestamp dt:dt="int">0</Timestamp><DateUtc dt:dt="string">2015-08-11T07:55:35Z</DateUtc></StartTime><FrequencyChanges><FrequencyChange><Frequency dt:dt="r8">2441406</Frequency><Timestamp dt:dt="r8">1529764338</Timestamp><Current dt:dt="r8">0</Current><DateUtc dt:dt="string">2015-08-11T07:55:35Z</DateUtc></FrequencyChange></FrequencyChanges></Clock>\n	1 ver1_main_procedure-8-1	99.925	1.0.0.880	2	mk	1530229063	prawa	1	2.0.10.356	08-11-2015	2015-08-11 07:55:35	09:55:35	mezczyzna	2.0.10.92	3	5	1	1																							l	{SPACE}		no	BlockProc2		BlockList									36	Free	dl	color_red.png		0	10	263477	310																								25	prime_right.png	0	263157	0	0	13	0	263157	0	263157	1	263157	20	0	-1	261658	263157	263156	0		TrialProc1	left	0		-999999	10	263467	0		0	0	TrialList2	target_both.png	0	dl	0	3	263207	0	d	257	263464															9	1	36	incomp			300
1 ver1_main_procedure	8	1	21	<?xml version="1.0"?>\n<Clock xmlns:dt="urn:schemas-microsoft-com:datatypes"><Description dt:dt="string">E-Prime Primary Realtime Clock</Description><StartTime><Timestamp dt:dt="int">0</Timestamp><DateUtc dt:dt="string">2015-08-11T07:55:35Z</DateUtc></StartTime><FrequencyChanges><FrequencyChange><Frequency dt:dt="r8">2441406</Frequency><Timestamp dt:dt="r8">1529764338</Timestamp><Current dt:dt="r8">0</Current><DateUtc dt:dt="string">2015-08-11T07:55:35Z</DateUtc></FrequencyChange></FrequencyChanges></Clock>\n	1 ver1_main_procedure-8-1	99.925	1.0.0.880	2	mk	1530229063	prawa	1	2.0.10.356	08-11-2015	2015-08-11 07:55:35	09:55:35	mezczyzna	2.0.10.92	3	5	1	1																							l	{SPACE}		no	BlockProc2		BlockList									37	Free	dl	color_purple.png		0	5	265869	460																								25	prime_left.png	0	265599	0	0	13	0	265599	0	265599	1	265599	20	0	-1	264100	265599	265598	0		TrialProc1	left	0		0	0	0	0		0	0	TrialList2	target_both.png	0	dl	-999999	3	265649	0	l	215	265864															7	1	37	comp			450
1 ver1_main_procedure	8	1	21	<?xml version="1.0"?>\n<Clock xmlns:dt="urn:schemas-microsoft-com:datatypes"><Description dt:dt="string">E-Prime Primary Realtime Clock</Description><StartTime><Timestamp dt:dt="int">0</Timestamp><DateUtc dt:dt="string">2015-08-11T07:55:35Z</DateUtc></StartTime><FrequencyChanges><FrequencyChange><Frequency dt:dt="r8">2441406</Frequency><Timestamp dt:dt="r8">1529764338</Timestamp><Current dt:dt="r8">0</Current><DateUtc dt:dt="string">2015-08-11T07:55:35Z</DateUtc></FrequencyChange></FrequencyChanges></Clock>\n	1 ver1_main_procedure-8-1	99.925	1.0.0.880	2	mk	1530229063	prawa	1	2.0.10.356	08-11-2015	2015-08-11 07:55:35	09:55:35	mezczyzna	2.0.10.92	3	5	1	1																							l	{SPACE}		no	BlockProc2		BlockList									38	Cued	l			0	5	268381	310																								75	prime_right.png	0	268141	0	0	13	0	268141	0	268141	1	268141	20	0	-1	266642	268141	268140	0		TrialProc1	right	0		0	0	0	0		0	0	TrialList2	target_right.png	0	l	-999999	3	268191	0	d	185	268376															4	1	38	comp			300
1 ver1_main_procedure	8	1	21	<?xml version="1.0"?>\n<Clock xmlns:dt="urn:schemas-microsoft-com:datatypes"><Description dt:dt="string">E-Prime Primary Realtime Clock</Description><StartTime><Timestamp dt:dt="int">0</Timestamp><DateUtc dt:dt="string">2015-08-11T07:55:35Z</DateUtc></StartTime><FrequencyChanges><FrequencyChange><Frequency dt:dt="r8">2441406</Frequency><Timestamp dt:dt="r8">1529764338</Timestamp><Current dt:dt="r8">0</Current><DateUtc dt:dt="string">2015-08-11T07:55:35Z</DateUtc></FrequencyChange></FrequencyChanges></Clock>\n	1 ver1_main_procedure-8-1	99.925	1.0.0.880	2	mk	1530229063	prawa	1	2.0.10.356	08-11-2015	2015-08-11 07:55:35	09:55:35	mezczyzna	2.0.10.92	3	5	1	1																							l	{SPACE}		no	BlockProc2		BlockList									39	Free	dl	color_green.png		0	11	270733	310																								25	prime_left.png	0	270503	0	0	13	0	270503	0	270503	2	270503	19	0	-1	269004	270503	270501	0		TrialProc1	right	0		0	0	0	0		0	0	TrialList2	target_both.png	0	dl	-999999	4	270553	0	d	169	270722															12	1	39	incomp			300
1 ver1_main_procedure	8	1	21	<?xml version="1.0"?>\n<Clock xmlns:dt="urn:schemas-microsoft-com:datatypes"><Description dt:dt="string">E-Prime Primary Realtime Clock</Description><StartTime><Timestamp dt:dt="int">0</Timestamp><DateUtc dt:dt="string">2015-08-11T07:55:35Z</DateUtc></StartTime><FrequencyChanges><FrequencyChange><Frequency dt:dt="r8">2441406</Frequency><Timestamp dt:dt="r8">1529764338</Timestamp><Current dt:dt="r8">0</Current><DateUtc dt:dt="string">2015-08-11T07:55:35Z</DateUtc></FrequencyChange></FrequencyChanges></Clock>\n	1 ver1_main_procedure-8-1	99.925	1.0.0.880	2	mk	1530229063	prawa	1	2.0.10.356	08-11-2015	2015-08-11 07:55:35	09:55:35	mezczyzna	2.0.10.92	3	5	1	1																							l	{SPACE}		no	BlockProc2		BlockList									40	Free	dl	color_purple.png		0	10	273225	310																								25	prime_left.png	0	272854	0	0	13	0	272854	0	272854	1	272854	20	0	-1	271355	272854	272853	0		TrialProc1	left	0		1	10	273164	-273164		0	0	TrialList2	target_both.png	0	dl	0	3	272904	260	l	310	273214															7	1	40	comp			300
1 ver1_main_procedure	8	1	21	<?xml version="1.0"?>\n<Clock xmlns:dt="urn:schemas-microsoft-com:datatypes"><Description dt:dt="string">E-Prime Primary Realtime Clock</Description><StartTime><Timestamp dt:dt="int">0</Timestamp><DateUtc dt:dt="string">2015-08-11T07:55:35Z</DateUtc></StartTime><FrequencyChanges><FrequencyChange><Frequency dt:dt="r8">2441406</Frequency><Timestamp dt:dt="r8">1529764338</Timestamp><Current dt:dt="r8">0</Current><DateUtc dt:dt="string">2015-08-11T07:55:35Z</DateUtc></FrequencyChange></FrequencyChanges></Clock>\n	1 ver1_main_procedure-8-1	99.925	1.0.0.880	2	mk	1530229063	prawa	1	2.0.10.356	08-11-2015	2015-08-11 07:55:35	09:55:35	mezczyzna	2.0.10.92	3	5	1	1																							l	{SPACE}		no	BlockProc2		BlockList									41	Cued	l	color_blue.png		0	9	275686	311																								75	prime_right.png	0	275346	0	0	13	0	275346	0	275346	1	275346	20	0	-1	273847	275346	275345	0		TrialProc1	right	0		0	10	275656	-275656		0	0	TrialList2	target_right.png	1	l	0	3	275396	260	l	280	275676															4	1	41	comp			300
1 ver1_main_procedure	8	1	21	<?xml version="1.0"?>\n<Clock xmlns:dt="urn:schemas-microsoft-com:datatypes"><Description dt:dt="string">E-Prime Primary Realtime Clock</Description><StartTime><Timestamp dt:dt="int">0</Timestamp><DateUtc dt:dt="string">2015-08-11T07:55:35Z</DateUtc></StartTime><FrequencyChanges><FrequencyChange><Frequency dt:dt="r8">2441406</Frequency><Timestamp dt:dt="r8">1529764338</Timestamp><Current dt:dt="r8">0</Current><DateUtc dt:dt="string">2015-08-11T07:55:35Z</DateUtc></FrequencyChange></FrequencyChanges></Clock>\n	1 ver1_main_procedure-8-1	99.925	1.0.0.880	2	mk	1530229063	prawa	1	2.0.10.356	08-11-2015	2015-08-11 07:55:35	09:55:35	mezczyzna	2.0.10.92	3	5	1	1																							l	{SPACE}		no	BlockProc2		BlockList									42	Free	dl	color_yellow.png		0	8	278128	160																			1					25	prime_left.png	0	277808	0	0	13	0	277808	0	277808	1	277808	20	0	-1	276309	277808	277807	0	prime_left.png	TrialProc1	left	0		0	10	278118	-278118		0	0	TrialList2	target_both.png	0	dl	0	3	277858	260	d	262	278120															8	1	42	neut			150
1 ver1_main_procedure	8	1	21	<?xml version="1.0"?>\n<Clock xmlns:dt="urn:schemas-microsoft-com:datatypes"><Description dt:dt="string">E-Prime Primary Realtime Clock</Description><StartTime><Timestamp dt:dt="int">0</Timestamp><DateUtc dt:dt="string">2015-08-11T07:55:35Z</DateUtc></StartTime><FrequencyChanges><FrequencyChange><Frequency dt:dt="r8">2441406</Frequency><Timestamp dt:dt="r8">1529764338</Timestamp><Current dt:dt="r8">0</Current><DateUtc dt:dt="string">2015-08-11T07:55:35Z</DateUtc></FrequencyChange></FrequencyChanges></Clock>\n	1 ver1_main_procedure-8-1	99.925	1.0.0.880	2	mk	1530229063	prawa	1	2.0.10.356	08-11-2015	2015-08-11 07:55:35	09:55:35	mezczyzna	2.0.10.92	3	5	1	1																							l	{SPACE}		no	BlockProc2		BlockList									43	Cued	d	color_green.png		0	6	280420	310																								25	prime_left.png	0	280100	0	0	13	0	280100	0	280100	1	280100	20	0	-1	278601	280100	280099	0		TrialProc1	left	0		0	10	280410	-280410		0	0	TrialList2	target_left.png	1	d	0	3	280150	260	d	264	280414															1	1	43	comp			300
1 ver1_main_procedure	8	1	21	<?xml version="1.0"?>\n<Clock xmlns:dt="urn:schemas-microsoft-com:datatypes"><Description dt:dt="string">E-Prime Primary Realtime Clock</Description><StartTime><Timestamp dt:dt="int">0</Timestamp><DateUtc dt:dt="string">2015-08-11T07:55:35Z</DateUtc></StartTime><FrequencyChanges><FrequencyChange><Frequency dt:dt="r8">2441406</Frequency><Timestamp dt:dt="r8">1529764338</Timestamp><Current dt:dt="r8">0</Current><DateUtc dt:dt="string">2015-08-11T07:55:35Z</DateUtc></FrequencyChange></FrequencyChanges></Clock>\n	1 ver1_main_procedure-8-1	99.925	1.0.0.880	2	mk	1530229063	prawa	1	2.0.10.356	08-11-2015	2015-08-11 07:55:35	09:55:35	mezczyzna	2.0.10.92	3	5	1	1																							l	{SPACE}		no	BlockProc2		BlockList									44	Cued	l			0	12	282842	310																								25	prime_left.png	0	282542	0	0	13	0	282542	0	282542	2	282542	19	0	-1	281043	282542	282540	0		TrialProc1	right	0		0	0	0	0		0	0	TrialList2	target_right.png	0	l	-999999	4	282592	0	d	238	282830															6	1	44	incomp			300
1 ver1_main_procedure	8	1	21	<?xml version="1.0"?>\n<Clock xmlns:dt="urn:schemas-microsoft-com:datatypes"><Description dt:dt="string">E-Prime Primary Realtime Clock</Description><StartTime><Timestamp dt:dt="int">0</Timestamp><DateUtc dt:dt="string">2015-08-11T07:55:35Z</DateUtc></StartTime><FrequencyChanges><FrequencyChange><Frequency dt:dt="r8">2441406</Frequency><Timestamp dt:dt="r8">1529764338</Timestamp><Current dt:dt="r8">0</Current><DateUtc dt:dt="string">2015-08-11T07:55:35Z</DateUtc></FrequencyChange></FrequencyChanges></Clock>\n	1 ver1_main_procedure-8-1	99.925	1.0.0.880	2	mk	1530229063	prawa	1	2.0.10.356	08-11-2015	2015-08-11 07:55:35	09:55:35	mezczyzna	2.0.10.92	3	5	1	1																							l	{SPACE}		no	BlockProc2		BlockList									45	Free	dl	color_blue.png		0	8	285304	310																								75	prime_right.png	0	284963	0	0	13	0	284963	0	284963	1	284963	20	0	-1	283464	284963	284962	0		TrialProc1	left	0		0	11	285274	-285274		0	0	TrialList2	target_both.png	0	dl	0	3	285013	261	l	283	285296															9	1	45	incomp			300
1 ver1_main_procedure	8	1	21	<?xml version="1.0"?>\n<Clock xmlns:dt="urn:schemas-microsoft-com:datatypes"><Description dt:dt="string">E-Prime Primary Realtime Clock</Description><StartTime><Timestamp dt:dt="int">0</Timestamp><DateUtc dt:dt="string">2015-08-11T07:55:35Z</DateUtc></StartTime><FrequencyChanges><FrequencyChange><Frequency dt:dt="r8">2441406</Frequency><Timestamp dt:dt="r8">1529764338</Timestamp><Current dt:dt="r8">0</Current><DateUtc dt:dt="string">2015-08-11T07:55:35Z</DateUtc></FrequencyChange></FrequencyChanges></Clock>\n	1 ver1_main_procedure-8-1	99.925	1.0.0.880	2	mk	1530229063	prawa	1	2.0.10.356	08-11-2015	2015-08-11 07:55:35	09:55:35	mezczyzna	2.0.10.92	3	5	1	1																							l	{SPACE}		no	BlockProc2		BlockList									46	Cued	d	color_yellow.png		0	9	287785	161																			2					25	prime_right.png	0	287425	0	0	13	0	287425	0	287425	1	287425	20	0	-1	285926	287425	287424	0	prime_right.png	TrialProc1	left	0		0	10	287735	-287735		0	0	TrialList2	target_left.png	1	d	0	3	287475	260	d	301	287776															2	1	46	neut			150
1 ver1_main_procedure	8	1	21	<?xml version="1.0"?>\n<Clock xmlns:dt="urn:schemas-microsoft-com:datatypes"><Description dt:dt="string">E-Prime Primary Realtime Clock</Description><StartTime><Timestamp dt:dt="int">0</Timestamp><DateUtc dt:dt="string">2015-08-11T07:55:35Z</DateUtc></StartTime><FrequencyChanges><FrequencyChange><Frequency dt:dt="r8">2441406</Frequency><Timestamp dt:dt="r8">1529764338</Timestamp><Current dt:dt="r8">0</Current><DateUtc dt:dt="string">2015-08-11T07:55:35Z</DateUtc></FrequencyChange></FrequencyChanges></Clock>\n	1 ver1_main_procedure-8-1	99.925	1.0.0.880	2	mk	1530229063	prawa	1	2.0.10.356	08-11-2015	2015-08-11 07:55:35	09:55:35	mezczyzna	2.0.10.92	3	5	1	1																							l	{SPACE}		no	BlockProc2		BlockList									47	Free	dl	color_yellow.png		0	6	290127	160																			1					25	prime_left.png	0	289757	0	0	13	0	289757	0	289757	1	289757	20	0	-1	288258	289757	289756	0	prime_left.png	TrialProc1	right	0		0	10	290067	-290067		0	0	TrialList2	target_both.png	0	dl	0	3	289807	260	d	314	290121															11	1	47	neut			150
1 ver1_main_procedure	8	1	21	<?xml version="1.0"?>\n<Clock xmlns:dt="urn:schemas-microsoft-com:datatypes"><Description dt:dt="string">E-Prime Primary Realtime Clock</Description><StartTime><Timestamp dt:dt="int">0</Timestamp><DateUtc dt:dt="string">2015-08-11T07:55:35Z</DateUtc></StartTime><FrequencyChanges><FrequencyChange><Frequency dt:dt="r8">2441406</Frequency><Timestamp dt:dt="r8">1529764338</Timestamp><Current dt:dt="r8">0</Current><DateUtc dt:dt="string">2015-08-11T07:55:35Z</DateUtc></FrequencyChange></FrequencyChanges></Clock>\n	1 ver1_main_procedure-8-1	99.925	1.0.0.880	2	mk	1530229063	prawa	1	2.0.10.356	08-11-2015	2015-08-11 07:55:35	09:55:35	mezczyzna	2.0.10.92	3	5	1	1																							l	{SPACE}		no	BlockProc2		BlockList									48	Cued	d	color_red.png		0	14	292569	160																								25	prime_right.png	0	292099	0	0	13	0	292099	0	292099	1	292099	20	0	-1	290600	292099	292098	0		TrialProc1	left	0		0	10	292409	-292409		0	0	TrialList2	target_left.png	1	d	0	3	292149	260	d	406	292555															3	1	48	incomp			150
1 ver1_main_procedure	8	1	21	<?xml version="1.0"?>\n<Clock xmlns:dt="urn:schemas-microsoft-com:datatypes"><Description dt:dt="string">E-Prime Primary Realtime Clock</Description><StartTime><Timestamp dt:dt="int">0</Timestamp><DateUtc dt:dt="string">2015-08-11T07:55:35Z</DateUtc></StartTime><FrequencyChanges><FrequencyChange><Frequency dt:dt="r8">2441406</Frequency><Timestamp dt:dt="r8">1529764338</Timestamp><Current dt:dt="r8">0</Current><DateUtc dt:dt="string">2015-08-11T07:55:35Z</DateUtc></FrequencyChange></FrequencyChanges></Clock>\n	1 ver1_main_procedure-8-1	99.925	1.0.0.880	2	mk	1530229063	prawa	1	2.0.10.356	08-11-2015	2015-08-11 07:55:35	09:55:35	mezczyzna	2.0.10.92	3	5	1	1																							l	{SPACE}		no	BlockProc2		BlockList									49	Free	dl	color_orange.png		0	10	294861	160																			2					75	prime_right.png	1	294541	0	0	13	1	294541	1	294541	1	294540	21	0	-1	293042	294540	294539	0	prime_right.png	TrialProc1	right	0		-999999	10	294851	0		0	0	TrialList2	target_both.png	0	dl	0	3	294591	0	l	256	294847															11	1	49	neut			150
1 ver1_main_procedure	8	1	21	<?xml version="1.0"?>\n<Clock xmlns:dt="urn:schemas-microsoft-com:datatypes"><Description dt:dt="string">E-Prime Primary Realtime Clock</Description><StartTime><Timestamp dt:dt="int">0</Timestamp><DateUtc dt:dt="string">2015-08-11T07:55:35Z</DateUtc></StartTime><FrequencyChanges><FrequencyChange><Frequency dt:dt="r8">2441406</Frequency><Timestamp dt:dt="r8">1529764338</Timestamp><Current dt:dt="r8">0</Current><DateUtc dt:dt="string">2015-08-11T07:55:35Z</DateUtc></FrequencyChange></FrequencyChanges></Clock>\n	1 ver1_main_procedure-8-1	99.925	1.0.0.880	2	mk	1530229063	prawa	1	2.0.10.356	08-11-2015	2015-08-11 07:55:35	09:55:35	mezczyzna	2.0.10.92	3	5	1	1																							l	{SPACE}		no	BlockProc2		BlockList									50	Free	dl	color_orange.png		0	5	297202	311																			1					75	prime_left.png	0	296832	0	0	13	0	296832	0	296832	1	296832	20	0	-1	295333	296832	296831	0	prime_left.png	TrialProc1	left	0		1	10	297142	-297142		0	0	TrialList2	target_both.png	0	dl	0	3	296882	260	l	315	297197															8	1	50	neut			300
1 ver1_main_procedure	8	1	21	<?xml version="1.0"?>\n<Clock xmlns:dt="urn:schemas-microsoft-com:datatypes"><Description dt:dt="string">E-Prime Primary Realtime Clock</Description><StartTime><Timestamp dt:dt="int">0</Timestamp><DateUtc dt:dt="string">2015-08-11T07:55:35Z</DateUtc></StartTime><FrequencyChanges><FrequencyChange><Frequency dt:dt="r8">2441406</Frequency><Timestamp dt:dt="r8">1529764338</Timestamp><Current dt:dt="r8">0</Current><DateUtc dt:dt="string">2015-08-11T07:55:35Z</DateUtc></FrequencyChange></FrequencyChanges></Clock>\n	1 ver1_main_procedure-8-1	99.925	1.0.0.880	2	mk	1530229063	prawa	1	2.0.10.356	08-11-2015	2015-08-11 07:55:35	09:55:35	mezczyzna	2.0.10.92	3	5	1	1																							l	{SPACE}		no	BlockProc2		BlockList									51	Free	dl	color_orange.png		0	7	299604	461																			2					75	prime_right.png	0	299324	0	0	13	0	299324	0	299324	1	299324	20	0	-1	297825	299324	299323	0	prime_right.png	TrialProc1	right	0		0	0	0	0		0	0	TrialList2	target_both.png	0	dl	-999999	3	299374	0	l	223	299597															11	1	51	neut			450
1 ver1_main_procedure	8	1	21	<?xml version="1.0"?>\n<Clock xmlns:dt="urn:schemas-microsoft-com:datatypes"><Description dt:dt="string">E-Prime Primary Realtime Clock</Description><StartTime><Timestamp dt:dt="int">0</Timestamp><DateUtc dt:dt="string">2015-08-11T07:55:35Z</DateUtc></StartTime><FrequencyChanges><FrequencyChange><Frequency dt:dt="r8">2441406</Frequency><Timestamp dt:dt="r8">1529764338</Timestamp><Current dt:dt="r8">0</Current><DateUtc dt:dt="string">2015-08-11T07:55:35Z</DateUtc></FrequencyChange></FrequencyChanges></Clock>\n	1 ver1_main_procedure-8-1	99.925	1.0.0.880	2	mk	1530229063	prawa	1	2.0.10.356	08-11-2015	2015-08-11 07:55:35	09:55:35	mezczyzna	2.0.10.92	3	5	1	1																							l	{SPACE}		no	BlockProc2		BlockList									52	Free	dl	color_yellow.png		0	11	302236	160																			1					75	prime_left.png	0	301876	0	0	13	0	301876	0	301876	1	301876	20	0	-1	300377	301876	301875	0	prime_left.png	TrialProc1	left	0		0	10	302186	-302186		0	0	TrialList2	target_both.png	0	dl	0	3	301926	260	d	299	302225															8	1	52	neut			150
1 ver1_main_procedure	8	1	21	<?xml version="1.0"?>\n<Clock xmlns:dt="urn:schemas-microsoft-com:datatypes"><Description dt:dt="string">E-Prime Primary Realtime Clock</Description><StartTime><Timestamp dt:dt="int">0</Timestamp><DateUtc dt:dt="string">2015-08-11T07:55:35Z</DateUtc></StartTime><FrequencyChanges><FrequencyChange><Frequency dt:dt="r8">2441406</Frequency><Timestamp dt:dt="r8">1529764338</Timestamp><Current dt:dt="r8">0</Current><DateUtc dt:dt="string">2015-08-11T07:55:35Z</DateUtc></FrequencyChange></FrequencyChanges></Clock>\n	1 ver1_main_procedure-8-1	99.925	1.0.0.880	2	mk	1530229063	prawa	1	2.0.10.356	08-11-2015	2015-08-11 07:55:35	09:55:35	mezczyzna	2.0.10.92	3	5	1	1																							l	{SPACE}		no	BlockProc2		BlockList									53	Free	dl	color_yellow.png		0	7	304598	310																			2					25	prime_right.png	0	304208	0	0	13	0	304208	0	304208	1	304208	20	0	-1	302709	304208	304207	0	prime_right.png	TrialProc1	left	0		0	10	304518	-304518		0	0	TrialList2	target_both.png	0	dl	0	3	304258	260	d	333	304591															8	1	53	neut			300
1 ver1_main_procedure	8	1	21	<?xml version="1.0"?>\n<Clock xmlns:dt="urn:schemas-microsoft-com:datatypes"><Description dt:dt="string">E-Prime Primary Realtime Clock</Description><StartTime><Timestamp dt:dt="int">0</Timestamp><DateUtc dt:dt="string">2015-08-11T07:55:35Z</DateUtc></StartTime><FrequencyChanges><FrequencyChange><Frequency dt:dt="r8">2441406</Frequency><Timestamp dt:dt="r8">1529764338</Timestamp><Current dt:dt="r8">0</Current><DateUtc dt:dt="string">2015-08-11T07:55:35Z</DateUtc></FrequencyChange></FrequencyChanges></Clock>\n	1 ver1_main_procedure-8-1	99.925	1.0.0.880	2	mk	1530229063	prawa	1	2.0.10.356	08-11-2015	2015-08-11 07:55:35	09:55:35	mezczyzna	2.0.10.92	3	5	1	1																							l	{SPACE}		no	BlockProc2		BlockList									54	Cued	l	color_purple.png		0	10	307020	160																								25	prime_left.png	0	306720	0	0	13	0	306720	0	306720	2	306720	20	0	-1	305221	306720	306718	0		TrialProc1	right	0		0	0	0	0		0	0	TrialList2	target_right.png	1	l	-999999	3	306770	0	l	240	307010															6	1	54	incomp			150
1 ver1_main_procedure	8	1	21	<?xml version="1.0"?>\n<Clock xmlns:dt="urn:schemas-microsoft-com:datatypes"><Description dt:dt="string">E-Prime Primary Realtime Clock</Description><StartTime><Timestamp dt:dt="int">0</Timestamp><DateUtc dt:dt="string">2015-08-11T07:55:35Z</DateUtc></StartTime><FrequencyChanges><FrequencyChange><Frequency dt:dt="r8">2441406</Frequency><Timestamp dt:dt="r8">1529764338</Timestamp><Current dt:dt="r8">0</Current><DateUtc dt:dt="string">2015-08-11T07:55:35Z</DateUtc></FrequencyChange></FrequencyChanges></Clock>\n	1 ver1_main_procedure-8-1	99.925	1.0.0.880	2	mk	1530229063	prawa	1	2.0.10.356	08-11-2015	2015-08-11 07:55:35	09:55:35	mezczyzna	2.0.10.92	3	5	1	1																							l	{SPACE}		no	BlockProc2		BlockList									55	Free	dl	color_red.png		0	14	309342	460																								25	prime_right.png	0	308991	0	0	13	0	308991	0	308991	1	308991	20	0	-1	307492	308991	308990	0		TrialProc1	right	0		0	11	309302	-309302		0	0	TrialList2	target_both.png	0	dl	0	3	309041	261	d	287	309328															10	1	55	comp			450
1 ver1_main_procedure	8	1	21	<?xml version="1.0"?>\n<Clock xmlns:dt="urn:schemas-microsoft-com:datatypes"><Description dt:dt="string">E-Prime Primary Realtime Clock</Description><StartTime><Timestamp dt:dt="int">0</Timestamp><DateUtc dt:dt="string">2015-08-11T07:55:35Z</DateUtc></StartTime><FrequencyChanges><FrequencyChange><Frequency dt:dt="r8">2441406</Frequency><Timestamp dt:dt="r8">1529764338</Timestamp><Current dt:dt="r8">0</Current><DateUtc dt:dt="string">2015-08-11T07:55:35Z</DateUtc></FrequencyChange></FrequencyChanges></Clock>\n	1 ver1_main_procedure-8-1	99.925	1.0.0.880	2	mk	1530229063	prawa	1	2.0.10.356	08-11-2015	2015-08-11 07:55:35	09:55:35	mezczyzna	2.0.10.92	3	5	1	1																							l	{SPACE}		no	BlockProc2		BlockList									56	Cued	d	color_red.png		0	8	312014	160																								25	prime_right.png	0	311613	0	0	13	0	311613	0	311613	1	311613	20	0	-1	310114	311613	311612	0		TrialProc1	left	0		1	10	311923	-311923		0	0	TrialList2	target_left.png	1	d	0	3	311663	260	d	343	312006															3	1	56	incomp			150
1 ver1_main_procedure	8	1	21	<?xml version="1.0"?>\n<Clock xmlns:dt="urn:schemas-microsoft-com:datatypes"><Description dt:dt="string">E-Prime Primary Realtime Clock</Description><StartTime><Timestamp dt:dt="int">0</Timestamp><DateUtc dt:dt="string">2015-08-11T07:55:35Z</DateUtc></StartTime><FrequencyChanges><FrequencyChange><Frequency dt:dt="r8">2441406</Frequency><Timestamp dt:dt="r8">1529764338</Timestamp><Current dt:dt="r8">0</Current><DateUtc dt:dt="string">2015-08-11T07:55:35Z</DateUtc></FrequencyChange></FrequencyChanges></Clock>\n	1 ver1_main_procedure-8-1	99.925	1.0.0.880	2	mk	1530229063	prawa	1	2.0.10.356	08-11-2015	2015-08-11 07:55:35	09:55:35	mezczyzna	2.0.10.92	3	5	1	1																							l	{SPACE}		no	BlockProc2		BlockList									57	Free	dl	color_blue.png		0	9	314325	461																								75	prime_right.png	0	313985	0	0	13	0	313985	0	313985	1	313985	20	0	-1	312486	313985	313984	0		TrialProc1	left	0		0	10	314295	-314295		0	0	TrialList2	target_both.png	0	dl	0	3	314035	260	l	281	314316															9	1	57	incomp			450
1 ver1_main_procedure	8	1	21	<?xml version="1.0"?>\n<Clock xmlns:dt="urn:schemas-microsoft-com:datatypes"><Description dt:dt="string">E-Prime Primary Realtime Clock</Description><StartTime><Timestamp dt:dt="int">0</Timestamp><DateUtc dt:dt="string">2015-08-11T07:55:35Z</DateUtc></StartTime><FrequencyChanges><FrequencyChange><Frequency dt:dt="r8">2441406</Frequency><Timestamp dt:dt="r8">1529764338</Timestamp><Current dt:dt="r8">0</Current><DateUtc dt:dt="string">2015-08-11T07:55:35Z</DateUtc></FrequencyChange></FrequencyChanges></Clock>\n	1 ver1_main_procedure-8-1	99.925	1.0.0.880	2	mk	1530229063	prawa	1	2.0.10.356	08-11-2015	2015-08-11 07:55:35	09:55:35	mezczyzna	2.0.10.92	3	5	1	1																							l	{SPACE}		no	BlockProc2		BlockList									58	Free	dl	color_purple.png		0	11	316867	160																								75	prime_left.png	0	316597	0	0	13	0	316597	0	316597	1	316597	20	0	-1	315098	316597	316596	0		TrialProc1	right	0		0	0	0	0		0	0	TrialList2	target_both.png	0	dl	-999999	3	316647	0	l	209	316856															12	1	58	incomp			150
1 ver1_main_procedure	8	1	21	<?xml version="1.0"?>\n<Clock xmlns:dt="urn:schemas-microsoft-com:datatypes"><Description dt:dt="string">E-Prime Primary Realtime Clock</Description><StartTime><Timestamp dt:dt="int">0</Timestamp><DateUtc dt:dt="string">2015-08-11T07:55:35Z</DateUtc></StartTime><FrequencyChanges><FrequencyChange><Frequency dt:dt="r8">2441406</Frequency><Timestamp dt:dt="r8">1529764338</Timestamp><Current dt:dt="r8">0</Current><DateUtc dt:dt="string">2015-08-11T07:55:35Z</DateUtc></FrequencyChange></FrequencyChanges></Clock>\n	1 ver1_main_procedure-8-1	99.925	1.0.0.880	2	mk	1530229063	prawa	1	2.0.10.356	08-11-2015	2015-08-11 07:55:35	09:55:35	mezczyzna	2.0.10.92	3	5	1	1																							l	{SPACE}		no	BlockProc2		BlockList									59	Free	dl	color_blue.png		0	9	319149	310																								25	prime_right.png	0	318839	0	0	13	0	318839	0	318839	1	318839	20	0	-1	317340	318839	318838	0		TrialProc1	left	0		-999999	0	0	0		0	0	TrialList2	target_both.png	0	dl	0	3	318889	0	l	251	319140															9	1	59	incomp			300
1 ver1_main_procedure	8	1	21	<?xml version="1.0"?>\n<Clock xmlns:dt="urn:schemas-microsoft-com:datatypes"><Description dt:dt="string">E-Prime Primary Realtime Clock</Description><StartTime><Timestamp dt:dt="int">0</Timestamp><DateUtc dt:dt="string">2015-08-11T07:55:35Z</DateUtc></StartTime><FrequencyChanges><FrequencyChange><Frequency dt:dt="r8">2441406</Frequency><Timestamp dt:dt="r8">1529764338</Timestamp><Current dt:dt="r8">0</Current><DateUtc dt:dt="string">2015-08-11T07:55:35Z</DateUtc></FrequencyChange></FrequencyChanges></Clock>\n	1 ver1_main_procedure-8-1	99.925	1.0.0.880	2	mk	1530229063	prawa	1	2.0.10.356	08-11-2015	2015-08-11 07:55:35	09:55:35	mezczyzna	2.0.10.92	3	5	1	1																							l	{SPACE}		no	BlockProc2		BlockList									60	Cued	d	color_yellow.png		0	7	321621	160																			1					75	prime_left.png	1	321271	0	0	13	1	321271	1	321271	1	321270	20	0	-1	319772	321270	321269	0	prime_left.png	TrialProc1	left	0		0	11	321581	-321581		0	0	TrialList2	target_left.png	1	d	0	3	321320	261	d	294	321614															2	1	60	neut			150
1 ver1_main_procedure	8	1	21	<?xml version="1.0"?>\n<Clock xmlns:dt="urn:schemas-microsoft-com:datatypes"><Description dt:dt="string">E-Prime Primary Realtime Clock</Description><StartTime><Timestamp dt:dt="int">0</Timestamp><DateUtc dt:dt="string">2015-08-11T07:55:35Z</DateUtc></StartTime><FrequencyChanges><FrequencyChange><Frequency dt:dt="r8">2441406</Frequency><Timestamp dt:dt="r8">1529764338</Timestamp><Current dt:dt="r8">0</Current><DateUtc dt:dt="string">2015-08-11T07:55:35Z</DateUtc></FrequencyChange></FrequencyChanges></Clock>\n	1 ver1_main_procedure-8-1	99.925	1.0.0.880	2	mk	1530229063	prawa	1	2.0.10.356	08-11-2015	2015-08-11 07:55:35	09:55:35	mezczyzna	2.0.10.92	3	5	1	1																							l	{SPACE}		no	BlockProc2		BlockList									61	Free	dl	color_orange.png		0	7	323922	461																			2					75	prime_right.png	0	323592	0	0	13	0	323592	0	323592	1	323592	20	0	-1	322093	323592	323591	0	prime_right.png	TrialProc1	right	0		1	10	323902	-323902		0	0	TrialList2	target_both.png	0	dl	0	3	323642	260	l	272	323914															11	1	61	neut			450
1 ver1_main_procedure	8	1	21	<?xml version="1.0"?>\n<Clock xmlns:dt="urn:schemas-microsoft-com:datatypes"><Description dt:dt="string">E-Prime Primary Realtime Clock</Description><StartTime><Timestamp dt:dt="int">0</Timestamp><DateUtc dt:dt="string">2015-08-11T07:55:35Z</DateUtc></StartTime><FrequencyChanges><FrequencyChange><Frequency dt:dt="r8">2441406</Frequency><Timestamp dt:dt="r8">1529764338</Timestamp><Current dt:dt="r8">0</Current><DateUtc dt:dt="string">2015-08-11T07:55:35Z</DateUtc></FrequencyChange></FrequencyChanges></Clock>\n	1 ver1_main_procedure-8-1	99.925	1.0.0.880	2	mk	1530229063	prawa	1	2.0.10.356	08-11-2015	2015-08-11 07:55:35	09:55:35	mezczyzna	2.0.10.92	3	5	1	1																							l	{SPACE}		no	BlockProc2		BlockList									62	Free	dl	color_red.png		0	7	326484	160																								25	prime_right.png	0	326194	0	0	13	0	326194	0	326194	1	326194	20	0	-1	324695	326194	326193	0		TrialProc1	right	0		0	0	0	0		0	0	TrialList2	target_both.png	0	dl	-999999	3	326244	0	d	232	326476															10	1	62	comp			150
1 ver1_main_procedure	8	1	21	<?xml version="1.0"?>\n<Clock xmlns:dt="urn:schemas-microsoft-com:datatypes"><Description dt:dt="string">E-Prime Primary Realtime Clock</Description><StartTime><Timestamp dt:dt="int">0</Timestamp><DateUtc dt:dt="string">2015-08-11T07:55:35Z</DateUtc></StartTime><FrequencyChanges><FrequencyChange><Frequency dt:dt="r8">2441406</Frequency><Timestamp dt:dt="r8">1529764338</Timestamp><Current dt:dt="r8">0</Current><DateUtc dt:dt="string">2015-08-11T07:55:35Z</DateUtc></FrequencyChange></FrequencyChanges></Clock>\n	1 ver1_main_procedure-8-1	99.925	1.0.0.880	2	mk	1530229063	prawa	1	2.0.10.356	08-11-2015	2015-08-11 07:55:35	09:55:35	mezczyzna	2.0.10.92	3	5	1	1																							l	{SPACE}		no	BlockProc2		BlockList									63	Free	dl	color_red.png		0	6	328726	460																								25	prime_right.png	0	328456	0	0	13	0	328456	0	328456	1	328456	20	0	-1	326957	328456	328455	0		TrialProc1	right	0		0	0	0	0		0	0	TrialList2	target_both.png	0	dl	-999999	3	328506	0	d	214	328720															10	1	63	comp			450
1 ver1_main_procedure	8	1	21	<?xml version="1.0"?>\n<Clock xmlns:dt="urn:schemas-microsoft-com:datatypes"><Description dt:dt="string">E-Prime Primary Realtime Clock</Description><StartTime><Timestamp dt:dt="int">0</Timestamp><DateUtc dt:dt="string">2015-08-11T07:55:35Z</DateUtc></StartTime><FrequencyChanges><FrequencyChange><Frequency dt:dt="r8">2441406</Frequency><Timestamp dt:dt="r8">1529764338</Timestamp><Current dt:dt="r8">0</Current><DateUtc dt:dt="string">2015-08-11T07:55:35Z</DateUtc></FrequencyChange></FrequencyChanges></Clock>\n	1 ver1_main_procedure-8-1	99.925	1.0.0.880	2	mk	1530229063	prawa	1	2.0.10.356	08-11-2015	2015-08-11 07:55:35	09:55:35	mezczyzna	2.0.10.92	3	5	1	1																							l	{SPACE}		no	BlockProc2		BlockList									64	Free	dl	color_red.png		0	12	331258	160																								75	prime_right.png	0	330998	0	0	13	0	330998	0	330998	1	330998	20	0	-1	329499	330998	330997	0		TrialProc1	right	0		0	0	0	0		0	0	TrialList2	target_both.png	0	dl	-999999	3	331048	0	d	198	331246															10	1	64	comp			150
1 ver1_main_procedure	8	1	21	<?xml version="1.0"?>\n<Clock xmlns:dt="urn:schemas-microsoft-com:datatypes"><Description dt:dt="string">E-Prime Primary Realtime Clock</Description><StartTime><Timestamp dt:dt="int">0</Timestamp><DateUtc dt:dt="string">2015-08-11T07:55:35Z</DateUtc></StartTime><FrequencyChanges><FrequencyChange><Frequency dt:dt="r8">2441406</Frequency><Timestamp dt:dt="r8">1529764338</Timestamp><Current dt:dt="r8">0</Current><DateUtc dt:dt="string">2015-08-11T07:55:35Z</DateUtc></FrequencyChange></FrequencyChanges></Clock>\n	1 ver1_main_procedure-8-1	99.925	1.0.0.880	2	mk	1530229063	prawa	1	2.0.10.356	08-11-2015	2015-08-11 07:55:35	09:55:35	mezczyzna	2.0.10.92	3	5	1	1																							l	{SPACE}		no	BlockProc2		BlockList									65	Cued	d	color_green.png		0	10	333520	160																								75	prime_left.png	0	333229	0	0	13	1	333230	1	333230	1	333229	20	0	-1	331731	333229	333228	0		TrialProc1	left	0		0	0	0	0		0	0	TrialList2	target_left.png	1	d	-999999	3	333279	0	d	231	333510															1	1	65	comp			150
1 ver1_main_procedure	8	1	21	<?xml version="1.0"?>\n<Clock xmlns:dt="urn:schemas-microsoft-com:datatypes"><Description dt:dt="string">E-Prime Primary Realtime Clock</Description><StartTime><Timestamp dt:dt="int">0</Timestamp><DateUtc dt:dt="string">2015-08-11T07:55:35Z</DateUtc></StartTime><FrequencyChanges><FrequencyChange><Frequency dt:dt="r8">2441406</Frequency><Timestamp dt:dt="r8">1529764338</Timestamp><Current dt:dt="r8">0</Current><DateUtc dt:dt="string">2015-08-11T07:55:35Z</DateUtc></FrequencyChange></FrequencyChanges></Clock>\n	1 ver1_main_procedure-8-1	99.925	1.0.0.880	2	mk	1530229063	prawa	1	2.0.10.356	08-11-2015	2015-08-11 07:55:35	09:55:35	mezczyzna	2.0.10.92	3	5	1	1																							l	{SPACE}		no	BlockProc2		BlockList									66	Free	dl	color_yellow.png		0	7	335821	461																			1					75	prime_left.png	0	335491	0	0	13	0	335491	0	335491	1	335491	20	0	-1	333992	335491	335490	0	prime_left.png	TrialProc1	right	0		0	10	335801	-335801		0	0	TrialList2	target_both.png	0	dl	0	3	335541	260	d	273	335814															11	1	66	neut			450
1 ver1_main_procedure	8	1	21	<?xml version="1.0"?>\n<Clock xmlns:dt="urn:schemas-microsoft-com:datatypes"><Description dt:dt="string">E-Prime Primary Realtime Clock</Description><StartTime><Timestamp dt:dt="int">0</Timestamp><DateUtc dt:dt="string">2015-08-11T07:55:35Z</DateUtc></StartTime><FrequencyChanges><FrequencyChange><Frequency dt:dt="r8">2441406</Frequency><Timestamp dt:dt="r8">1529764338</Timestamp><Current dt:dt="r8">0</Current><DateUtc dt:dt="string">2015-08-11T07:55:35Z</DateUtc></FrequencyChange></FrequencyChanges></Clock>\n	1 ver1_main_procedure-8-1	99.925	1.0.0.880	2	mk	1530229063	prawa	1	2.0.10.356	08-11-2015	2015-08-11 07:55:35	09:55:35	mezczyzna	2.0.10.92	3	5	1	1																							l	{SPACE}		no	BlockProc2		BlockList									67	Cued	l	color_orange.png		0	9	338453	160																			2					75	prime_right.png	0	338093	0	0	13	0	338093	0	338093	1	338093	20	0	-1	336594	338093	338092	0	prime_right.png	TrialProc1	right	0		0	10	338403	-338403		0	0	TrialList2	target_right.png	1	l	0	3	338143	260	l	301	338444															5	1	67	neut			150
1 ver1_main_procedure	8	1	21	<?xml version="1.0"?>\n<Clock xmlns:dt="urn:schemas-microsoft-com:datatypes"><Description dt:dt="string">E-Prime Primary Realtime Clock</Description><StartTime><Timestamp dt:dt="int">0</Timestamp><DateUtc dt:dt="string">2015-08-11T07:55:35Z</DateUtc></StartTime><FrequencyChanges><FrequencyChange><Frequency dt:dt="r8">2441406</Frequency><Timestamp dt:dt="r8">1529764338</Timestamp><Current dt:dt="r8">0</Current><DateUtc dt:dt="string">2015-08-11T07:55:35Z</DateUtc></FrequencyChange></FrequencyChanges></Clock>\n	1 ver1_main_procedure-8-1	99.925	1.0.0.880	2	mk	1530229063	prawa	1	2.0.10.356	08-11-2015	2015-08-11 07:55:35	09:55:35	mezczyzna	2.0.10.92	3	5	1	1																							l	{SPACE}		no	BlockProc2		BlockList									68	Free	dl	color_green.png		0	12	340725	310																								75	prime_left.png	0	340425	0	0	13	0	340425	0	340425	1	340425	20	0	-1	338926	340425	340424	0		TrialProc1	right	0		0	0	0	0		0	0	TrialList2	target_both.png	0	dl	-999999	3	340475	0	d	238	340713															12	1	68	incomp			300
1 ver1_main_procedure	8	1	21	<?xml version="1.0"?>\n<Clock xmlns:dt="urn:schemas-microsoft-com:datatypes"><Description dt:dt="string">E-Prime Primary Realtime Clock</Description><StartTime><Timestamp dt:dt="int">0</Timestamp><DateUtc dt:dt="string">2015-08-11T07:55:35Z</DateUtc></StartTime><FrequencyChanges><FrequencyChange><Frequency dt:dt="r8">2441406</Frequency><Timestamp dt:dt="r8">1529764338</Timestamp><Current dt:dt="r8">0</Current><DateUtc dt:dt="string">2015-08-11T07:55:35Z</DateUtc></FrequencyChange></FrequencyChanges></Clock>\n	1 ver1_main_procedure-8-1	99.925	1.0.0.880	2	mk	1530229063	prawa	1	2.0.10.356	08-11-2015	2015-08-11 07:55:35	09:55:35	mezczyzna	2.0.10.92	3	5	1	1																							l	{SPACE}		no	BlockProc2		BlockList									69	Cued	l	color_orange.png		0	12	343197	310																			1					75	prime_left.png	0	342847	0	0	13	0	342847	0	342847	2	342847	20	0	-1	341348	342847	342845	0	prime_left.png	TrialProc1	right	0		0	10	343157	-343157		0	0	TrialList2	target_right.png	1	l	0	3	342897	260	l	288	343185															5	1	69	neut			300
1 ver1_main_procedure	8	1	21	<?xml version="1.0"?>\n<Clock xmlns:dt="urn:schemas-microsoft-com:datatypes"><Description dt:dt="string">E-Prime Primary Realtime Clock</Description><StartTime><Timestamp dt:dt="int">0</Timestamp><DateUtc dt:dt="string">2015-08-11T07:55:35Z</DateUtc></StartTime><FrequencyChanges><FrequencyChange><Frequency dt:dt="r8">2441406</Frequency><Timestamp dt:dt="r8">1529764338</Timestamp><Current dt:dt="r8">0</Current><DateUtc dt:dt="string">2015-08-11T07:55:35Z</DateUtc></FrequencyChange></FrequencyChanges></Clock>\n	1 ver1_main_procedure-8-1	99.925	1.0.0.880	2	mk	1530229063	prawa	1	2.0.10.356	08-11-2015	2015-08-11 07:55:35	09:55:35	mezczyzna	2.0.10.92	3	5	1	1																							l	{SPACE}		no	BlockProc2		BlockList									70	Free	dl	color_green.png		0	14	345599	460																								75	prime_left.png	1	345319	0	0	13	1	345319	1	345319	1	345318	20	0	-1	343820	345318	345317	0		TrialProc1	right	0		0	0	0	0		0	0	TrialList2	target_both.png	0	dl	-999999	3	345368	0	d	217	345585															12	1	70	incomp			450
1 ver1_main_procedure	8	1	21	<?xml version="1.0"?>\n<Clock xmlns:dt="urn:schemas-microsoft-com:datatypes"><Description dt:dt="string">E-Prime Primary Realtime Clock</Description><StartTime><Timestamp dt:dt="int">0</Timestamp><DateUtc dt:dt="string">2015-08-11T07:55:35Z</DateUtc></StartTime><FrequencyChanges><FrequencyChange><Frequency dt:dt="r8">2441406</Frequency><Timestamp dt:dt="r8">1529764338</Timestamp><Current dt:dt="r8">0</Current><DateUtc dt:dt="string">2015-08-11T07:55:35Z</DateUtc></FrequencyChange></FrequencyChanges></Clock>\n	1 ver1_main_procedure-8-1	99.925	1.0.0.880	2	mk	1530229063	prawa	1	2.0.10.356	08-11-2015	2015-08-11 07:55:35	09:55:35	mezczyzna	2.0.10.92	3	5	1	1																							l	{SPACE}		no	BlockProc2		BlockList									71	Free	dl	color_orange.png		0	12	348211	460																			2					25	prime_right.png	0	347870	0	0	13	1	347871	1	347871	1	347870	20	0	-1	346371	347870	347869	0	prime_right.png	TrialProc1	left	0		0	11	348181	-348181		0	0	TrialList2	target_both.png	0	dl	0	3	347920	261	l	279	348199															8	1	71	neut			450
1 ver1_main_procedure	8	1	21	<?xml version="1.0"?>\n<Clock xmlns:dt="urn:schemas-microsoft-com:datatypes"><Description dt:dt="string">E-Prime Primary Realtime Clock</Description><StartTime><Timestamp dt:dt="int">0</Timestamp><DateUtc dt:dt="string">2015-08-11T07:55:35Z</DateUtc></StartTime><FrequencyChanges><FrequencyChange><Frequency dt:dt="r8">2441406</Frequency><Timestamp dt:dt="r8">1529764338</Timestamp><Current dt:dt="r8">0</Current><DateUtc dt:dt="string">2015-08-11T07:55:35Z</DateUtc></FrequencyChange></FrequencyChanges></Clock>\n	1 ver1_main_procedure-8-1	99.925	1.0.0.880	2	mk	1530229063	prawa	1	2.0.10.356	08-11-2015	2015-08-11 07:55:35	09:55:35	mezczyzna	2.0.10.92	3	5	1	1																							l	{SPACE}		no	BlockProc2		BlockList									72	Cued	l	color_blue.png		0	10	350803	160																								25	prime_right.png	0	350482	0	0	13	0	350482	0	350482	1	350482	20	0	-1	348983	350482	350481	0		TrialProc1	right	0		-999999	11	350793	0		0	0	TrialList2	target_right.png	1	l	0	3	350532	0	l	251	350783															4	1	72	comp			150
1 ver1_main_procedure	8	1	21	<?xml version="1.0"?>\n<Clock xmlns:dt="urn:schemas-microsoft-com:datatypes"><Description dt:dt="string">E-Prime Primary Realtime Clock</Description><StartTime><Timestamp dt:dt="int">0</Timestamp><DateUtc dt:dt="string">2015-08-11T07:55:35Z</DateUtc></StartTime><FrequencyChanges><FrequencyChange><Frequency dt:dt="r8">2441406</Frequency><Timestamp dt:dt="r8">1529764338</Timestamp><Current dt:dt="r8">0</Current><DateUtc dt:dt="string">2015-08-11T07:55:35Z</DateUtc></FrequencyChange></FrequencyChanges></Clock>\n	1 ver1_main_procedure-8-1	99.925	1.0.0.880	2	mk	1530229063	prawa	1	2.0.10.356	08-11-2015	2015-08-11 07:55:35	09:55:35	mezczyzna	2.0.10.92	3	5	1	1																							l	{SPACE}		no	BlockProc2		BlockList									73									2	6	5	3	4	1	color_purple.png	color_green.png	color_red.png	color_yellow.png	color_orange.png	color_blue.png	color_blue.png	color_purple.png	color_yellow.png	color_orange.png	color_red.png	color_green.png		1	1	1	34866																						DragProc											Ocena																															
1 ver1_main_procedure	8	1	21	<?xml version="1.0"?>\n<Clock xmlns:dt="urn:schemas-microsoft-com:datatypes"><Description dt:dt="string">E-Prime Primary Realtime Clock</Description><StartTime><Timestamp dt:dt="int">0</Timestamp><DateUtc dt:dt="string">2015-08-11T07:55:35Z</DateUtc></StartTime><FrequencyChanges><FrequencyChange><Frequency dt:dt="r8">2441406</Frequency><Timestamp dt:dt="r8">1529764338</Timestamp><Current dt:dt="r8">0</Current><DateUtc dt:dt="string">2015-08-11T07:55:35Z</DateUtc></FrequencyChange></FrequencyChanges></Clock>\n	1 ver1_main_procedure-8-1	99.925	1.0.0.880	2	mk	1530229063	prawa	1	2.0.10.356	08-11-2015	2015-08-11 07:55:35	09:55:35	mezczyzna	2.0.10.92	3	5	1	1																							l	{SPACE}		no	BlockProc2		BlockList									74															color_purple.png	color_green.png	color_red.png	color_yellow.png	color_orange.png	color_blue.png								2	1	2																							EnterProc											Ocena												5	10	20	24	25	30														
1 ver1_main_procedure	8	1	21	<?xml version="1.0"?>\n<Clock xmlns:dt="urn:schemas-microsoft-com:datatypes"><Description dt:dt="string">E-Prime Primary Realtime Clock</Description><StartTime><Timestamp dt:dt="int">0</Timestamp><DateUtc dt:dt="string">2015-08-11T07:55:35Z</DateUtc></StartTime><FrequencyChanges><FrequencyChange><Frequency dt:dt="r8">2441406</Frequency><Timestamp dt:dt="r8">1529764338</Timestamp><Current dt:dt="r8">0</Current><DateUtc dt:dt="string">2015-08-11T07:55:35Z</DateUtc></FrequencyChange></FrequencyChanges></Clock>\n	1 ver1_main_procedure-8-1	99.925	1.0.0.880	2	mk	1530229063	prawa	1	2.0.10.356	08-11-2015	2015-08-11 07:55:35	09:55:35	mezczyzna	2.0.10.92	4	1	1	2																							d	{SPACE}		no	BlockProc1		BlockList									1	Free	dl	color_yellow.png		0	12	504447	160																								25	prime_left.png	0	504137	0	0	13	0	504137	0	504137	1	504137	20	0	-1	502638	504137	504136	0		TrialProc1	right	0		0	0	0	0		0	0	TrialList1	target_both.png	0	dl	-999999	3	504187	0	d	248	504435												12	1	1				incomp			150
1 ver1_main_procedure	8	1	21	<?xml version="1.0"?>\n<Clock xmlns:dt="urn:schemas-microsoft-com:datatypes"><Description dt:dt="string">E-Prime Primary Realtime Clock</Description><StartTime><Timestamp dt:dt="int">0</Timestamp><DateUtc dt:dt="string">2015-08-11T07:55:35Z</DateUtc></StartTime><FrequencyChanges><FrequencyChange><Frequency dt:dt="r8">2441406</Frequency><Timestamp dt:dt="r8">1529764338</Timestamp><Current dt:dt="r8">0</Current><DateUtc dt:dt="string">2015-08-11T07:55:35Z</DateUtc></FrequencyChange></FrequencyChanges></Clock>\n	1 ver1_main_procedure-8-1	99.925	1.0.0.880	2	mk	1530229063	prawa	1	2.0.10.356	08-11-2015	2015-08-11 07:55:35	09:55:35	mezczyzna	2.0.10.92	4	1	1	2																							d	{SPACE}		no	BlockProc1		BlockList									2	Cued	d	color_yellow.png		0	10	506729	460																								25	prime_left.png	0	506419	0	0	13	0	506419	0	506419	1	506419	20	0	-1	504920	506419	506418	0		TrialProc1	left	0		-999999	0	0	0		0	0	TrialList1	target_left.png	1	d	0	3	506469	0	d	250	506719												1	1	2				comp			450
1 ver1_main_procedure	8	1	21	<?xml version="1.0"?>\n<Clock xmlns:dt="urn:schemas-microsoft-com:datatypes"><Description dt:dt="string">E-Prime Primary Realtime Clock</Description><StartTime><Timestamp dt:dt="int">0</Timestamp><DateUtc dt:dt="string">2015-08-11T07:55:35Z</DateUtc></StartTime><FrequencyChanges><FrequencyChange><Frequency dt:dt="r8">2441406</Frequency><Timestamp dt:dt="r8">1529764338</Timestamp><Current dt:dt="r8">0</Current><DateUtc dt:dt="string">2015-08-11T07:55:35Z</DateUtc></FrequencyChange></FrequencyChanges></Clock>\n	1 ver1_main_procedure-8-1	99.925	1.0.0.880	2	mk	1530229063	prawa	1	2.0.10.356	08-11-2015	2015-08-11 07:55:35	09:55:35	mezczyzna	2.0.10.92	4	1	1	2																							d	{SPACE}		no	BlockProc1		BlockList									3	Free	dl	color_orange.png		0	7	509361	460																								75	prime_left.png	0	509001	0	0	13	0	509001	0	509001	1	509001	20	0	-1	507502	509001	509000	0		TrialProc1	left	0		0	10	509311	-509311		0	0	TrialList1	target_both.png	0	dl	0	3	509051	260	l	303	509354												7	1	3				comp			450
1 ver1_main_procedure	8	1	21	<?xml version="1.0"?>\n<Clock xmlns:dt="urn:schemas-microsoft-com:datatypes"><Description dt:dt="string">E-Prime Primary Realtime Clock</Description><StartTime><Timestamp dt:dt="int">0</Timestamp><DateUtc dt:dt="string">2015-08-11T07:55:35Z</DateUtc></StartTime><FrequencyChanges><FrequencyChange><Frequency dt:dt="r8">2441406</Frequency><Timestamp dt:dt="r8">1529764338</Timestamp><Current dt:dt="r8">0</Current><DateUtc dt:dt="string">2015-08-11T07:55:35Z</DateUtc></FrequencyChange></FrequencyChanges></Clock>\n	1 ver1_main_procedure-8-1	99.925	1.0.0.880	2	mk	1530229063	prawa	1	2.0.10.356	08-11-2015	2015-08-11 07:55:35	09:55:35	mezczyzna	2.0.10.92	4	1	1	2																							d	{SPACE}		no	BlockProc1		BlockList									4	Cued	l	color_purple.png		0	9	511913	460																								75	prime_right.png	0	511633	0	0	13	0	511633	0	511633	1	511633	20	0	-1	510134	511633	511632	0		TrialProc1	right	0		0	0	0	0		0	0	TrialList1	target_right.png	1	l	-999999	3	511683	0	l	221	511904												4	1	4				comp			450
1 ver1_main_procedure	8	1	21	<?xml version="1.0"?>\n<Clock xmlns:dt="urn:schemas-microsoft-com:datatypes"><Description dt:dt="string">E-Prime Primary Realtime Clock</Description><StartTime><Timestamp dt:dt="int">0</Timestamp><DateUtc dt:dt="string">2015-08-11T07:55:35Z</DateUtc></StartTime><FrequencyChanges><FrequencyChange><Frequency dt:dt="r8">2441406</Frequency><Timestamp dt:dt="r8">1529764338</Timestamp><Current dt:dt="r8">0</Current><DateUtc dt:dt="string">2015-08-11T07:55:35Z</DateUtc></FrequencyChange></FrequencyChanges></Clock>\n	1 ver1_main_procedure-8-1	99.925	1.0.0.880	2	mk	1530229063	prawa	1	2.0.10.356	08-11-2015	2015-08-11 07:55:35	09:55:35	mezczyzna	2.0.10.92	4	1	1	2																							d	{SPACE}		no	BlockProc1		BlockList									5	Cued	l	color_orange.png		0	5	514525	310																								75	prime_left.png	0	514185	0	0	13	0	514185	0	514185	2	514185	20	0	-1	512686	514185	514183	0		TrialProc1	right	0		0	10	514495	-514495		0	0	TrialList1	target_right.png	1	l	0	3	514235	260	l	285	514520												6	1	5				incomp			300
1 ver1_main_procedure	8	1	21	<?xml version="1.0"?>\n<Clock xmlns:dt="urn:schemas-microsoft-com:datatypes"><Description dt:dt="string">E-Prime Primary Realtime Clock</Description><StartTime><Timestamp dt:dt="int">0</Timestamp><DateUtc dt:dt="string">2015-08-11T07:55:35Z</DateUtc></StartTime><FrequencyChanges><FrequencyChange><Frequency dt:dt="r8">2441406</Frequency><Timestamp dt:dt="r8">1529764338</Timestamp><Current dt:dt="r8">0</Current><DateUtc dt:dt="string">2015-08-11T07:55:35Z</DateUtc></FrequencyChange></FrequencyChanges></Clock>\n	1 ver1_main_procedure-8-1	99.925	1.0.0.880	2	mk	1530229063	prawa	1	2.0.10.356	08-11-2015	2015-08-11 07:55:35	09:55:35	mezczyzna	2.0.10.92	4	1	1	2																							d	{SPACE}		no	BlockProc1		BlockList									6	Cued	l			0	11	516927	460																			1					75	prime_left.png	1	516647	0	0	13	1	516647	1	516647	1	516646	20	0	-1	515148	516646	516645	0	prime_left.png	TrialProc1	right	0		0	0	0	0		0	0	TrialList1	target_right.png	0	l	-999999	3	516696	0	d	220	516916												5	1	6				neut			450
1 ver1_main_procedure	8	1	21	<?xml version="1.0"?>\n<Clock xmlns:dt="urn:schemas-microsoft-com:datatypes"><Description dt:dt="string">E-Prime Primary Realtime Clock</Description><StartTime><Timestamp dt:dt="int">0</Timestamp><DateUtc dt:dt="string">2015-08-11T07:55:35Z</DateUtc></StartTime><FrequencyChanges><FrequencyChange><Frequency dt:dt="r8">2441406</Frequency><Timestamp dt:dt="r8">1529764338</Timestamp><Current dt:dt="r8">0</Current><DateUtc dt:dt="string">2015-08-11T07:55:35Z</DateUtc></FrequencyChange></FrequencyChanges></Clock>\n	1 ver1_main_procedure-8-1	99.925	1.0.0.880	2	mk	1530229063	prawa	1	2.0.10.356	08-11-2015	2015-08-11 07:55:35	09:55:35	mezczyzna	2.0.10.92	4	1	1	2																							d	{SPACE}		no	BlockProc1		BlockList									7	Free	dl	color_green.png		0	13	519479	460																								25	prime_right.png	0	519198	0	0	13	0	519198	0	519198	1	519198	20	0	-1	517699	519198	519197	0		TrialProc1	right	0		0	0	0	0		0	0	TrialList1	target_both.png	0	dl	-999999	3	519248	0	d	218	519466												10	1	7				comp			450
1 ver1_main_procedure	8	1	21	<?xml version="1.0"?>\n<Clock xmlns:dt="urn:schemas-microsoft-com:datatypes"><Description dt:dt="string">E-Prime Primary Realtime Clock</Description><StartTime><Timestamp dt:dt="int">0</Timestamp><DateUtc dt:dt="string">2015-08-11T07:55:35Z</DateUtc></StartTime><FrequencyChanges><FrequencyChange><Frequency dt:dt="r8">2441406</Frequency><Timestamp dt:dt="r8">1529764338</Timestamp><Current dt:dt="r8">0</Current><DateUtc dt:dt="string">2015-08-11T07:55:35Z</DateUtc></FrequencyChange></FrequencyChanges></Clock>\n	1 ver1_main_procedure-8-1	99.925	1.0.0.880	2	mk	1530229063	prawa	1	2.0.10.356	08-11-2015	2015-08-11 07:55:35	09:55:35	mezczyzna	2.0.10.92	4	1	1	2																							d	{SPACE}		no	BlockProc1		BlockList									8	Cued	d	color_yellow.png		0	8	522030	311																								25	prime_left.png	0	521750	0	0	13	0	521750	0	521750	1	521750	20	0	-1	520251	521750	521749	0		TrialProc1	left	0		0	0	0	0		0	0	TrialList1	target_left.png	1	d	-999999	3	521800	0	d	221	522021												1	1	8				comp			300
1 ver1_main_procedure	8	1	21	<?xml version="1.0"?>\n<Clock xmlns:dt="urn:schemas-microsoft-com:datatypes"><Description dt:dt="string">E-Prime Primary Realtime Clock</Description><StartTime><Timestamp dt:dt="int">0</Timestamp><DateUtc dt:dt="string">2015-08-11T07:55:35Z</DateUtc></StartTime><FrequencyChanges><FrequencyChange><Frequency dt:dt="r8">2441406</Frequency><Timestamp dt:dt="r8">1529764338</Timestamp><Current dt:dt="r8">0</Current><DateUtc dt:dt="string">2015-08-11T07:55:35Z</DateUtc></FrequencyChange></FrequencyChanges></Clock>\n	1 ver1_main_procedure-8-1	99.925	1.0.0.880	2	mk	1530229063	prawa	1	2.0.10.356	08-11-2015	2015-08-11 07:55:35	09:55:35	mezczyzna	2.0.10.92	4	1	1	2																							d	{SPACE}		no	BlockProc1		BlockList									9	Free	dl	color_purple.png		0	10	524422	310																								75	prime_right.png	0	524152	0	0	13	0	524152	0	524152	1	524152	20	0	-1	522653	524152	524151	0		TrialProc1	left	0		0	0	0	0		0	0	TrialList1	target_both.png	0	dl	-999999	3	524202	0	l	209	524411												9	1	9				incomp			300
1 ver1_main_procedure	8	1	21	<?xml version="1.0"?>\n<Clock xmlns:dt="urn:schemas-microsoft-com:datatypes"><Description dt:dt="string">E-Prime Primary Realtime Clock</Description><StartTime><Timestamp dt:dt="int">0</Timestamp><DateUtc dt:dt="string">2015-08-11T07:55:35Z</DateUtc></StartTime><FrequencyChanges><FrequencyChange><Frequency dt:dt="r8">2441406</Frequency><Timestamp dt:dt="r8">1529764338</Timestamp><Current dt:dt="r8">0</Current><DateUtc dt:dt="string">2015-08-11T07:55:35Z</DateUtc></FrequencyChange></FrequencyChanges></Clock>\n	1 ver1_main_procedure-8-1	99.925	1.0.0.880	2	mk	1530229063	prawa	1	2.0.10.356	08-11-2015	2015-08-11 07:55:35	09:55:35	mezczyzna	2.0.10.92	4	1	1	2																							d	{SPACE}		no	BlockProc1		BlockList									10	Cued	l	color_red.png		0	10	526824	460																			2					75	prime_right.png	0	526544	0	0	13	0	526544	0	526544	1	526544	20	0	-1	525045	526544	526543	0	prime_right.png	TrialProc1	right	0		0	0	0	0		0	0	TrialList1	target_right.png	1	l	-999999	3	526594	0	l	220	526814												5	1	10				neut			450
