ExperimentName	Subject	Session	Age	Clock.Information	DataFile.Basename	Display.RefreshRate	ExperimentVersion	Group	Name	RandomSeed	Recznosc	ResearcherID	RuntimeVersion	SessionDate	SessionStartDateTimeUtc	SessionTime	Sex	StudioVersion	Block	BlockList	BlockList.Cycle	BlockList.Sample	BlockNumber	GoodBye.RESP	GoodBye2.RESP	GoodByeList	GoodByeList.Cycle	GoodByeList.Sample	InstrList	InstrList.Cycle	InstrList.Sample	Instructions3.RESP	Instructions4.RESP	Instructions5.RESP	kobieta_S1	kobieta_S2	kobieta_S3	kobieta_S4	kobieta_S5	mezczyzna_S1	mezczyzna_S2	mezczyzna_S3	mezczyzna_S4	mezczyzna_S5	NextBlock.RESP	NextBlock0.RESP	planowanie	PracticeMode	Procedure[Block]	proszenie	Running[Block]	TrainingList	TrainingList.Cycle	TrainingList.Sample	WordList	WordList1	wykonanie	zauwazenie	zrozumienie	Trial	ChoiceType	CorrectRespon	Effect	ErrorText	Fixation2.DurationError	Fixation2.OnsetDelay	Fixation2.OnsetTime	Fixation2.OnsetToOnsetTime	GoalRespInd1	GoalRespInd2	GoalRespInd3	GoalRespInd4	GoalRespInd5	GoalRespInd6	GoalRespName1	GoalRespName2	GoalRespName3	GoalRespName4	GoalRespName5	GoalRespName6	kol1	kol2	kol3	kol4	kol5	kol6	NeutralPrimeList1	Ocena	Ocena.Cycle	Ocena.Sample	OverallRT	Posit	Prime	Prime.ActionDelay	Prime.ActionTime	Prime.CustomOffsetTime	Prime.CustomOnsetTime	Prime.Duration	Prime.DurationError	Prime.FinishTime	Prime.OffsetDelay	Prime.OffsetTime	Prime.OnsetDelay	Prime.OnsetTime	Prime.OnsetToOnsetTime	Prime.PendingInputMasks	Prime.PreRelease	Prime.StartTime	Prime.TargetOffsetTime	Prime.TargetOnsetTime	Prime.TimingMode	PrimeChoice	Procedure[Trial]	Resp	RespWin.ACC	RespWin.CRESP	RespWin.DurationError	RespWin.OnsetDelay	RespWin.OnsetTime	RespWin.OnsetToOnsetTime	RespWin.RESP	RespWin.RT	RespWin.RTTime	Running[Trial]	Target	TargetSlide.ACC	TargetSlide.CRESP	TargetSlide.DurationError	TargetSlide.OnsetDelay	TargetSlide.OnsetTime	TargetSlide.OnsetToOnsetTime	TargetSlide.RESP	TargetSlide.RT	TargetSlide.RTTime	TargetTraining	TBox1	TBox2	TBox3	TBox4	TBox5	TBox6	TrainingList1	TrainingList1.Cycle	TrainingList1.Sample	TrCorrectResp	TrialList1	TrialList1.Cycle	TrialList1.Sample	TrialList2	TrialList2.Cycle	TrialList2.Sample	TrialType	TrPosit	TrWaitTime	WaitTime
1 ver1_main_procedure	9	1	25	<?xml version="1.0"?>\n<Clock xmlns:dt="urn:schemas-microsoft-com:datatypes"><Description dt:dt="string">E-Prime Primary Realtime Clock</Description><StartTime><Timestamp dt:dt="int">0</Timestamp><DateUtc dt:dt="string">2015-08-11T07:10:41Z</DateUtc></StartTime><FrequencyChanges><FrequencyChange><Frequency dt:dt="r8">2612324</Frequency><Timestamp dt:dt="r8">2611945348</Timestamp><Current dt:dt="r8">0</Current><DateUtc dt:dt="string">2015-08-11T07:10:41Z</DateUtc></FrequencyChange></FrequencyChanges></Clock>\n	1 ver1_main_procedure-9-1	99.940	1.0.0.880	1	jz	-1682491531	prawa	1	2.0.10.182	08-11-2015	2015-08-11 07:10:41	09:10:41	mezczyzna	2.0.10.92	1										1	1	1	{SPACE}	{SPACE}	d	poproszona	planowała	zrozumiałaś	wykonała		poproszony	planował	zrozumiałeś	wykonał				planował		InstrProc	poproszony	InstrList				1		wykonał		zrozumiałeś																																																																																																
1 ver1_main_procedure	9	1	25	<?xml version="1.0"?>\n<Clock xmlns:dt="urn:schemas-microsoft-com:datatypes"><Description dt:dt="string">E-Prime Primary Realtime Clock</Description><StartTime><Timestamp dt:dt="int">0</Timestamp><DateUtc dt:dt="string">2015-08-11T07:10:41Z</DateUtc></StartTime><FrequencyChanges><FrequencyChange><Frequency dt:dt="r8">2612324</Frequency><Timestamp dt:dt="r8">2611945348</Timestamp><Current dt:dt="r8">0</Current><DateUtc dt:dt="string">2015-08-11T07:10:41Z</DateUtc></FrequencyChange></FrequencyChanges></Clock>\n	1 ver1_main_procedure-9-1	99.940	1.0.0.880	1	jz	-1682491531	prawa	1	2.0.10.182	08-11-2015	2015-08-11 07:10:41	09:10:41	mezczyzna	2.0.10.92	2																														TrainingProc1		TrainingList	1	1	1						1																																																					TrainProc											TrainingList1											target_left.png							1	1	1	d								25	150	
1 ver1_main_procedure	9	1	25	<?xml version="1.0"?>\n<Clock xmlns:dt="urn:schemas-microsoft-com:datatypes"><Description dt:dt="string">E-Prime Primary Realtime Clock</Description><StartTime><Timestamp dt:dt="int">0</Timestamp><DateUtc dt:dt="string">2015-08-11T07:10:41Z</DateUtc></StartTime><FrequencyChanges><FrequencyChange><Frequency dt:dt="r8">2612324</Frequency><Timestamp dt:dt="r8">2611945348</Timestamp><Current dt:dt="r8">0</Current><DateUtc dt:dt="string">2015-08-11T07:10:41Z</DateUtc></FrequencyChange></FrequencyChanges></Clock>\n	1 ver1_main_procedure-9-1	99.940	1.0.0.880	1	jz	-1682491531	prawa	1	2.0.10.182	08-11-2015	2015-08-11 07:10:41	09:10:41	mezczyzna	2.0.10.92	2																														TrainingProc1		TrainingList	1	1	1						2																																																					TrainProc											TrainingList1											target_right.png							2	1	2	l								75	450	
1 ver1_main_procedure	9	1	25	<?xml version="1.0"?>\n<Clock xmlns:dt="urn:schemas-microsoft-com:datatypes"><Description dt:dt="string">E-Prime Primary Realtime Clock</Description><StartTime><Timestamp dt:dt="int">0</Timestamp><DateUtc dt:dt="string">2015-08-11T07:10:41Z</DateUtc></StartTime><FrequencyChanges><FrequencyChange><Frequency dt:dt="r8">2612324</Frequency><Timestamp dt:dt="r8">2611945348</Timestamp><Current dt:dt="r8">0</Current><DateUtc dt:dt="string">2015-08-11T07:10:41Z</DateUtc></FrequencyChange></FrequencyChanges></Clock>\n	1 ver1_main_procedure-9-1	99.940	1.0.0.880	1	jz	-1682491531	prawa	1	2.0.10.182	08-11-2015	2015-08-11 07:10:41	09:10:41	mezczyzna	2.0.10.92	2																														TrainingProc1		TrainingList	1	1	1						3																																																					TrainProc											TrainingList1											target_both.png							3	1	3	dl								25	300	
1 ver1_main_procedure	9	1	25	<?xml version="1.0"?>\n<Clock xmlns:dt="urn:schemas-microsoft-com:datatypes"><Description dt:dt="string">E-Prime Primary Realtime Clock</Description><StartTime><Timestamp dt:dt="int">0</Timestamp><DateUtc dt:dt="string">2015-08-11T07:10:41Z</DateUtc></StartTime><FrequencyChanges><FrequencyChange><Frequency dt:dt="r8">2612324</Frequency><Timestamp dt:dt="r8">2611945348</Timestamp><Current dt:dt="r8">0</Current><DateUtc dt:dt="string">2015-08-11T07:10:41Z</DateUtc></FrequencyChange></FrequencyChanges></Clock>\n	1 ver1_main_procedure-9-1	99.940	1.0.0.880	1	jz	-1682491531	prawa	1	2.0.10.182	08-11-2015	2015-08-11 07:10:41	09:10:41	mezczyzna	2.0.10.92	2																														TrainingProc1		TrainingList	1	1	1						4																																																					TrainProc											TrainingList1											target_left.png							1	1	4	d								25	300	
1 ver1_main_procedure	9	1	25	<?xml version="1.0"?>\n<Clock xmlns:dt="urn:schemas-microsoft-com:datatypes"><Description dt:dt="string">E-Prime Primary Realtime Clock</Description><StartTime><Timestamp dt:dt="int">0</Timestamp><DateUtc dt:dt="string">2015-08-11T07:10:41Z</DateUtc></StartTime><FrequencyChanges><FrequencyChange><Frequency dt:dt="r8">2612324</Frequency><Timestamp dt:dt="r8">2611945348</Timestamp><Current dt:dt="r8">0</Current><DateUtc dt:dt="string">2015-08-11T07:10:41Z</DateUtc></FrequencyChange></FrequencyChanges></Clock>\n	1 ver1_main_procedure-9-1	99.940	1.0.0.880	1	jz	-1682491531	prawa	1	2.0.10.182	08-11-2015	2015-08-11 07:10:41	09:10:41	mezczyzna	2.0.10.92	2																														TrainingProc1		TrainingList	1	1	1						5																																																					TrainProc											TrainingList1											target_left.png							1	1	5	d								75	150	
1 ver1_main_procedure	9	1	25	<?xml version="1.0"?>\n<Clock xmlns:dt="urn:schemas-microsoft-com:datatypes"><Description dt:dt="string">E-Prime Primary Realtime Clock</Description><StartTime><Timestamp dt:dt="int">0</Timestamp><DateUtc dt:dt="string">2015-08-11T07:10:41Z</DateUtc></StartTime><FrequencyChanges><FrequencyChange><Frequency dt:dt="r8">2612324</Frequency><Timestamp dt:dt="r8">2611945348</Timestamp><Current dt:dt="r8">0</Current><DateUtc dt:dt="string">2015-08-11T07:10:41Z</DateUtc></FrequencyChange></FrequencyChanges></Clock>\n	1 ver1_main_procedure-9-1	99.940	1.0.0.880	1	jz	-1682491531	prawa	1	2.0.10.182	08-11-2015	2015-08-11 07:10:41	09:10:41	mezczyzna	2.0.10.92	2																														TrainingProc1		TrainingList	1	1	1						6																																																					TrainProc											TrainingList1											target_both.png							3	1	6	dl								25	450	
1 ver1_main_procedure	9	1	25	<?xml version="1.0"?>\n<Clock xmlns:dt="urn:schemas-microsoft-com:datatypes"><Description dt:dt="string">E-Prime Primary Realtime Clock</Description><StartTime><Timestamp dt:dt="int">0</Timestamp><DateUtc dt:dt="string">2015-08-11T07:10:41Z</DateUtc></StartTime><FrequencyChanges><FrequencyChange><Frequency dt:dt="r8">2612324</Frequency><Timestamp dt:dt="r8">2611945348</Timestamp><Current dt:dt="r8">0</Current><DateUtc dt:dt="string">2015-08-11T07:10:41Z</DateUtc></FrequencyChange></FrequencyChanges></Clock>\n	1 ver1_main_procedure-9-1	99.940	1.0.0.880	1	jz	-1682491531	prawa	1	2.0.10.182	08-11-2015	2015-08-11 07:10:41	09:10:41	mezczyzna	2.0.10.92	2																														TrainingProc1		TrainingList	1	1	1						7																																																					TrainProc											TrainingList1											target_both.png							3	1	7	dl								75	450	
1 ver1_main_procedure	9	1	25	<?xml version="1.0"?>\n<Clock xmlns:dt="urn:schemas-microsoft-com:datatypes"><Description dt:dt="string">E-Prime Primary Realtime Clock</Description><StartTime><Timestamp dt:dt="int">0</Timestamp><DateUtc dt:dt="string">2015-08-11T07:10:41Z</DateUtc></StartTime><FrequencyChanges><FrequencyChange><Frequency dt:dt="r8">2612324</Frequency><Timestamp dt:dt="r8">2611945348</Timestamp><Current dt:dt="r8">0</Current><DateUtc dt:dt="string">2015-08-11T07:10:41Z</DateUtc></FrequencyChange></FrequencyChanges></Clock>\n	1 ver1_main_procedure-9-1	99.940	1.0.0.880	1	jz	-1682491531	prawa	1	2.0.10.182	08-11-2015	2015-08-11 07:10:41	09:10:41	mezczyzna	2.0.10.92	2																														TrainingProc1		TrainingList	1	1	1						8																																																					TrainProc											TrainingList1											target_right.png							2	1	8	l								75	300	
1 ver1_main_procedure	9	1	25	<?xml version="1.0"?>\n<Clock xmlns:dt="urn:schemas-microsoft-com:datatypes"><Description dt:dt="string">E-Prime Primary Realtime Clock</Description><StartTime><Timestamp dt:dt="int">0</Timestamp><DateUtc dt:dt="string">2015-08-11T07:10:41Z</DateUtc></StartTime><FrequencyChanges><FrequencyChange><Frequency dt:dt="r8">2612324</Frequency><Timestamp dt:dt="r8">2611945348</Timestamp><Current dt:dt="r8">0</Current><DateUtc dt:dt="string">2015-08-11T07:10:41Z</DateUtc></FrequencyChange></FrequencyChanges></Clock>\n	1 ver1_main_procedure-9-1	99.940	1.0.0.880	1	jz	-1682491531	prawa	1	2.0.10.182	08-11-2015	2015-08-11 07:10:41	09:10:41	mezczyzna	2.0.10.92	2																														TrainingProc1		TrainingList	1	1	1						9																																																					TrainProc											TrainingList1											target_right.png							2	1	9	l								75	300	
1 ver1_main_procedure	9	1	25	<?xml version="1.0"?>\n<Clock xmlns:dt="urn:schemas-microsoft-com:datatypes"><Description dt:dt="string">E-Prime Primary Realtime Clock</Description><StartTime><Timestamp dt:dt="int">0</Timestamp><DateUtc dt:dt="string">2015-08-11T07:10:41Z</DateUtc></StartTime><FrequencyChanges><FrequencyChange><Frequency dt:dt="r8">2612324</Frequency><Timestamp dt:dt="r8">2611945348</Timestamp><Current dt:dt="r8">0</Current><DateUtc dt:dt="string">2015-08-11T07:10:41Z</DateUtc></FrequencyChange></FrequencyChanges></Clock>\n	1 ver1_main_procedure-9-1	99.940	1.0.0.880	1	jz	-1682491531	prawa	1	2.0.10.182	08-11-2015	2015-08-11 07:10:41	09:10:41	mezczyzna	2.0.10.92	3	4	1	1																							d	{SPACE}		no	BlockProc2		BlockList									1	Free	dl	color_purple.png		-1	6	272492	310																								75	prime_right.png	0	271531	0	0	13	1	271532	1	271532	0	271531	20	0	-1	270032	271531	271531	0		TrialProc1	left	0		0	21	271852	-271852		0	0	TrialList2	target_both.png	0	dl	-1	3	271581	271	l	904	272485															9	1	1	incomp			300
1 ver1_main_procedure	9	1	25	<?xml version="1.0"?>\n<Clock xmlns:dt="urn:schemas-microsoft-com:datatypes"><Description dt:dt="string">E-Prime Primary Realtime Clock</Description><StartTime><Timestamp dt:dt="int">0</Timestamp><DateUtc dt:dt="string">2015-08-11T07:10:41Z</DateUtc></StartTime><FrequencyChanges><FrequencyChange><Frequency dt:dt="r8">2612324</Frequency><Timestamp dt:dt="r8">2611945348</Timestamp><Current dt:dt="r8">0</Current><DateUtc dt:dt="string">2015-08-11T07:10:41Z</DateUtc></FrequencyChange></FrequencyChanges></Clock>\n	1 ver1_main_procedure-9-1	99.940	1.0.0.880	1	jz	-1682491531	prawa	1	2.0.10.182	08-11-2015	2015-08-11 07:10:41	09:10:41	mezczyzna	2.0.10.92	3	4	1	1																							d	{SPACE}		no	BlockProc2		BlockList									2	Free	dl	color_blue.png		-1	14	275524	460																			1					25	prime_left.png	0	274613	0	0	13	0	274613	0	274613	1	274613	20	0	-1	273114	274613	274612	0	prime_left.png	TrialProc1	left	0		0	10	274923	-274923		0	0	TrialList2	target_both.png	0	dl	-1	3	274663	260	d	846	275509															8	1	2	neut			450
1 ver1_main_procedure	9	1	25	<?xml version="1.0"?>\n<Clock xmlns:dt="urn:schemas-microsoft-com:datatypes"><Description dt:dt="string">E-Prime Primary Realtime Clock</Description><StartTime><Timestamp dt:dt="int">0</Timestamp><DateUtc dt:dt="string">2015-08-11T07:10:41Z</DateUtc></StartTime><FrequencyChanges><FrequencyChange><Frequency dt:dt="r8">2612324</Frequency><Timestamp dt:dt="r8">2611945348</Timestamp><Current dt:dt="r8">0</Current><DateUtc dt:dt="string">2015-08-11T07:10:41Z</DateUtc></FrequencyChange></FrequencyChanges></Clock>\n	1 ver1_main_procedure-9-1	99.940	1.0.0.880	1	jz	-1682491531	prawa	1	2.0.10.182	08-11-2015	2015-08-11 07:10:41	09:10:41	mezczyzna	2.0.10.92	3	4	1	1																							d	{SPACE}		no	BlockProc2		BlockList									3	Cued	d	color_blue.png		-1	8	278806	460																			2					75	prime_right.png	0	277795	0	0	13	0	277795	0	277795	1	277795	20	0	-1	276296	277795	277794	0	prime_right.png	TrialProc1	left	0		0	10	278105	-278105		0	0	TrialList2	target_left.png	1	d	-1	3	277845	260	d	952	278797															2	1	3	neut			450
1 ver1_main_procedure	9	1	25	<?xml version="1.0"?>\n<Clock xmlns:dt="urn:schemas-microsoft-com:datatypes"><Description dt:dt="string">E-Prime Primary Realtime Clock</Description><StartTime><Timestamp dt:dt="int">0</Timestamp><DateUtc dt:dt="string">2015-08-11T07:10:41Z</DateUtc></StartTime><FrequencyChanges><FrequencyChange><Frequency dt:dt="r8">2612324</Frequency><Timestamp dt:dt="r8">2611945348</Timestamp><Current dt:dt="r8">0</Current><DateUtc dt:dt="string">2015-08-11T07:10:41Z</DateUtc></FrequencyChange></FrequencyChanges></Clock>\n	1 ver1_main_procedure-9-1	99.940	1.0.0.880	1	jz	-1682491531	prawa	1	2.0.10.182	08-11-2015	2015-08-11 07:10:41	09:10:41	mezczyzna	2.0.10.92	3	4	1	1																							d	{SPACE}		no	BlockProc2		BlockList									4	Cued	d	color_red.png		-1	9	281967	161																								75	prime_right.png	0	281077	0	0	13	0	281077	0	281077	1	281077	20	0	-1	279578	281077	281076	0		TrialProc1	left	0		0	10	281387	-281387		0	0	TrialList2	target_left.png	1	d	-1	3	281127	260	d	830	281957															3	1	4	incomp			150
1 ver1_main_procedure	9	1	25	<?xml version="1.0"?>\n<Clock xmlns:dt="urn:schemas-microsoft-com:datatypes"><Description dt:dt="string">E-Prime Primary Realtime Clock</Description><StartTime><Timestamp dt:dt="int">0</Timestamp><DateUtc dt:dt="string">2015-08-11T07:10:41Z</DateUtc></StartTime><FrequencyChanges><FrequencyChange><Frequency dt:dt="r8">2612324</Frequency><Timestamp dt:dt="r8">2611945348</Timestamp><Current dt:dt="r8">0</Current><DateUtc dt:dt="string">2015-08-11T07:10:41Z</DateUtc></FrequencyChange></FrequencyChanges></Clock>\n	1 ver1_main_procedure-9-1	99.940	1.0.0.880	1	jz	-1682491531	prawa	1	2.0.10.182	08-11-2015	2015-08-11 07:10:41	09:10:41	mezczyzna	2.0.10.92	3	4	1	1																							d	{SPACE}		no	BlockProc2		BlockList									5	Free	dl	color_yellow.png		-1	9	284919	311																			1					25	prime_left.png	0	283939	0	0	13	0	283939	0	283939	1	283939	20	0	-1	282439	283939	283938	0	prime_left.png	TrialProc1	left	0		0	10	284249	-284249		0	0	TrialList2	target_both.png	0	dl	-1	3	283989	260	l	920	284909															8	1	5	neut			300
1 ver1_main_procedure	9	1	25	<?xml version="1.0"?>\n<Clock xmlns:dt="urn:schemas-microsoft-com:datatypes"><Description dt:dt="string">E-Prime Primary Realtime Clock</Description><StartTime><Timestamp dt:dt="int">0</Timestamp><DateUtc dt:dt="string">2015-08-11T07:10:41Z</DateUtc></StartTime><FrequencyChanges><FrequencyChange><Frequency dt:dt="r8">2612324</Frequency><Timestamp dt:dt="r8">2611945348</Timestamp><Current dt:dt="r8">0</Current><DateUtc dt:dt="string">2015-08-11T07:10:41Z</DateUtc></FrequencyChange></FrequencyChanges></Clock>\n	1 ver1_main_procedure-9-1	99.940	1.0.0.880	1	jz	-1682491531	prawa	1	2.0.10.182	08-11-2015	2015-08-11 07:10:41	09:10:41	mezczyzna	2.0.10.92	3	4	1	1																							d	{SPACE}		no	BlockProc2		BlockList									6	Free	dl	color_orange.png		-1	13	287891	160																								25	prime_left.png	1	287041	0	0	13	1	287041	1	287041	0	287040	20	0	-1	285541	287040	287040	0		TrialProc1	right	0		0	11	287351	-287351		0	0	TrialList2	target_both.png	0	dl	-1	3	287090	261	d	787	287877															12	1	6	incomp			150
1 ver1_main_procedure	9	1	25	<?xml version="1.0"?>\n<Clock xmlns:dt="urn:schemas-microsoft-com:datatypes"><Description dt:dt="string">E-Prime Primary Realtime Clock</Description><StartTime><Timestamp dt:dt="int">0</Timestamp><DateUtc dt:dt="string">2015-08-11T07:10:41Z</DateUtc></StartTime><FrequencyChanges><FrequencyChange><Frequency dt:dt="r8">2612324</Frequency><Timestamp dt:dt="r8">2611945348</Timestamp><Current dt:dt="r8">0</Current><DateUtc dt:dt="string">2015-08-11T07:10:41Z</DateUtc></FrequencyChange></FrequencyChanges></Clock>\n	1 ver1_main_procedure-9-1	99.940	1.0.0.880	1	jz	-1682491531	prawa	1	2.0.10.182	08-11-2015	2015-08-11 07:10:41	09:10:41	mezczyzna	2.0.10.92	3	4	1	1																							d	{SPACE}		no	BlockProc2		BlockList									7	Free	dl	color_yellow.png		-1	7	290693	460																			2					75	prime_right.png	0	289862	0	0	13	0	289862	0	289862	1	289862	20	0	-1	288363	289862	289861	0	prime_right.png	TrialProc1	right	0		1	10	290172	-290172		0	0	TrialList2	target_both.png	0	dl	-1	3	289912	260	l	773	290685															11	1	7	neut			450
1 ver1_main_procedure	9	1	25	<?xml version="1.0"?>\n<Clock xmlns:dt="urn:schemas-microsoft-com:datatypes"><Description dt:dt="string">E-Prime Primary Realtime Clock</Description><StartTime><Timestamp dt:dt="int">0</Timestamp><DateUtc dt:dt="string">2015-08-11T07:10:41Z</DateUtc></StartTime><FrequencyChanges><FrequencyChange><Frequency dt:dt="r8">2612324</Frequency><Timestamp dt:dt="r8">2611945348</Timestamp><Current dt:dt="r8">0</Current><DateUtc dt:dt="string">2015-08-11T07:10:41Z</DateUtc></FrequencyChange></FrequencyChanges></Clock>\n	1 ver1_main_procedure-9-1	99.940	1.0.0.880	1	jz	-1682491531	prawa	1	2.0.10.182	08-11-2015	2015-08-11 07:10:41	09:10:41	mezczyzna	2.0.10.92	3	4	1	1																							d	{SPACE}		no	BlockProc2		BlockList									8	Free	dl	color_blue.png		-1	13	293755	310																			1					75	prime_left.png	0	292964	0	0	13	0	292964	0	292964	1	292964	20	0	-1	291465	292964	292963	0	prime_left.png	TrialProc1	left	0		0	10	293274	-293274		0	0	TrialList2	target_both.png	0	dl	-1	3	293014	260	d	727	293741															8	1	8	neut			300
1 ver1_main_procedure	9	1	25	<?xml version="1.0"?>\n<Clock xmlns:dt="urn:schemas-microsoft-com:datatypes"><Description dt:dt="string">E-Prime Primary Realtime Clock</Description><StartTime><Timestamp dt:dt="int">0</Timestamp><DateUtc dt:dt="string">2015-08-11T07:10:41Z</DateUtc></StartTime><FrequencyChanges><FrequencyChange><Frequency dt:dt="r8">2612324</Frequency><Timestamp dt:dt="r8">2611945348</Timestamp><Current dt:dt="r8">0</Current><DateUtc dt:dt="string">2015-08-11T07:10:41Z</DateUtc></FrequencyChange></FrequencyChanges></Clock>\n	1 ver1_main_procedure-9-1	99.940	1.0.0.880	1	jz	-1682491531	prawa	1	2.0.10.182	08-11-2015	2015-08-11 07:10:41	09:10:41	mezczyzna	2.0.10.92	3	4	1	1																							d	{SPACE}		no	BlockProc2		BlockList									9	Free	dl	color_orange.png		-1	6	296916	160																								75	prime_left.png	0	295876	0	0	13	0	295876	0	295876	1	295876	20	0	-1	294376	295876	295875	0		TrialProc1	left	0		0	10	296186	-296186		0	0	TrialList2	target_both.png	0	dl	-1	3	295926	260	d	983	296909															7	1	9	comp			150
1 ver1_main_procedure	9	1	25	<?xml version="1.0"?>\n<Clock xmlns:dt="urn:schemas-microsoft-com:datatypes"><Description dt:dt="string">E-Prime Primary Realtime Clock</Description><StartTime><Timestamp dt:dt="int">0</Timestamp><DateUtc dt:dt="string">2015-08-11T07:10:41Z</DateUtc></StartTime><FrequencyChanges><FrequencyChange><Frequency dt:dt="r8">2612324</Frequency><Timestamp dt:dt="r8">2611945348</Timestamp><Current dt:dt="r8">0</Current><DateUtc dt:dt="string">2015-08-11T07:10:41Z</DateUtc></FrequencyChange></FrequencyChanges></Clock>\n	1 ver1_main_procedure-9-1	99.940	1.0.0.880	1	jz	-1682491531	prawa	1	2.0.10.182	08-11-2015	2015-08-11 07:10:41	09:10:41	mezczyzna	2.0.10.92	3	4	1	1																							d	{SPACE}		no	BlockProc2		BlockList									10	Free	dl	color_orange.png		-1	12	300098	310																								25	prime_left.png	1	298888	0	0	13	1	298888	1	298888	0	298887	20	0	-1	297388	298887	298887	0		TrialProc1	left	0		0	11	299198	-299198		0	0	TrialList2	target_both.png	0	dl	-1	3	298937	261	d	1148	300085															7	1	10	comp			300
1 ver1_main_procedure	9	1	25	<?xml version="1.0"?>\n<Clock xmlns:dt="urn:schemas-microsoft-com:datatypes"><Description dt:dt="string">E-Prime Primary Realtime Clock</Description><StartTime><Timestamp dt:dt="int">0</Timestamp><DateUtc dt:dt="string">2015-08-11T07:10:41Z</DateUtc></StartTime><FrequencyChanges><FrequencyChange><Frequency dt:dt="r8">2612324</Frequency><Timestamp dt:dt="r8">2611945348</Timestamp><Current dt:dt="r8">0</Current><DateUtc dt:dt="string">2015-08-11T07:10:41Z</DateUtc></FrequencyChange></FrequencyChanges></Clock>\n	1 ver1_main_procedure-9-1	99.940	1.0.0.880	1	jz	-1682491531	prawa	1	2.0.10.182	08-11-2015	2015-08-11 07:10:41	09:10:41	mezczyzna	2.0.10.92	3	4	1	1																							d	{SPACE}		no	BlockProc2		BlockList									11	Cued	d	color_red.png		-1	12	303130	460																								25	prime_right.png	0	302219	0	0	13	1	302220	1	302220	1	302219	20	0	-1	300720	302219	302218	0		TrialProc1	left	0		0	11	302530	-302530		0	0	TrialList2	target_left.png	1	d	-1	3	302269	261	d	848	303117															3	1	11	incomp			450
1 ver1_main_procedure	9	1	25	<?xml version="1.0"?>\n<Clock xmlns:dt="urn:schemas-microsoft-com:datatypes"><Description dt:dt="string">E-Prime Primary Realtime Clock</Description><StartTime><Timestamp dt:dt="int">0</Timestamp><DateUtc dt:dt="string">2015-08-11T07:10:41Z</DateUtc></StartTime><FrequencyChanges><FrequencyChange><Frequency dt:dt="r8">2612324</Frequency><Timestamp dt:dt="r8">2611945348</Timestamp><Current dt:dt="r8">0</Current><DateUtc dt:dt="string">2015-08-11T07:10:41Z</DateUtc></FrequencyChange></FrequencyChanges></Clock>\n	1 ver1_main_procedure-9-1	99.940	1.0.0.880	1	jz	-1682491531	prawa	1	2.0.10.182	08-11-2015	2015-08-11 07:10:41	09:10:41	mezczyzna	2.0.10.92	3	4	1	1																							d	{SPACE}		no	BlockProc2		BlockList									12	Free	dl	color_yellow.png		-1	12	306402	160																			2					75	prime_right.png	0	305401	0	0	13	0	305401	0	305401	1	305401	20	0	-1	303902	305401	305400	0	prime_right.png	TrialProc1	left	0		1	10	305711	-305711		0	0	TrialList2	target_both.png	0	dl	-1	3	305451	260	l	938	306389															8	1	12	neut			150
1 ver1_main_procedure	9	1	25	<?xml version="1.0"?>\n<Clock xmlns:dt="urn:schemas-microsoft-com:datatypes"><Description dt:dt="string">E-Prime Primary Realtime Clock</Description><StartTime><Timestamp dt:dt="int">0</Timestamp><DateUtc dt:dt="string">2015-08-11T07:10:41Z</DateUtc></StartTime><FrequencyChanges><FrequencyChange><Frequency dt:dt="r8">2612324</Frequency><Timestamp dt:dt="r8">2611945348</Timestamp><Current dt:dt="r8">0</Current><DateUtc dt:dt="string">2015-08-11T07:10:41Z</DateUtc></FrequencyChange></FrequencyChanges></Clock>\n	1 ver1_main_procedure-9-1	99.940	1.0.0.880	1	jz	-1682491531	prawa	1	2.0.10.182	08-11-2015	2015-08-11 07:10:41	09:10:41	mezczyzna	2.0.10.92	3	4	1	1																							d	{SPACE}		no	BlockProc2		BlockList									13	Free	dl	color_orange.png		-1	13	309163	161																								25	prime_left.png	0	308373	0	0	13	0	308373	0	308373	1	308373	20	0	-1	306874	308373	308372	0		TrialProc1	right	0		0	10	308683	-308683		0	0	TrialList2	target_both.png	0	dl	-1	3	308423	260	d	726	309149															12	1	13	incomp			150
1 ver1_main_procedure	9	1	25	<?xml version="1.0"?>\n<Clock xmlns:dt="urn:schemas-microsoft-com:datatypes"><Description dt:dt="string">E-Prime Primary Realtime Clock</Description><StartTime><Timestamp dt:dt="int">0</Timestamp><DateUtc dt:dt="string">2015-08-11T07:10:41Z</DateUtc></StartTime><FrequencyChanges><FrequencyChange><Frequency dt:dt="r8">2612324</Frequency><Timestamp dt:dt="r8">2611945348</Timestamp><Current dt:dt="r8">0</Current><DateUtc dt:dt="string">2015-08-11T07:10:41Z</DateUtc></FrequencyChange></FrequencyChanges></Clock>\n	1 ver1_main_procedure-9-1	99.940	1.0.0.880	1	jz	-1682491531	prawa	1	2.0.10.182	08-11-2015	2015-08-11 07:10:41	09:10:41	mezczyzna	2.0.10.92	3	4	1	1																							d	{SPACE}		no	BlockProc2		BlockList									14	Cued	d	color_red.png		-1	13	311915	310																								25	prime_right.png	0	311135	0	0	13	0	311135	0	311135	1	311135	20	0	-1	309635	311135	311134	0		TrialProc1	left	0		0	10	311445	-311445		0	0	TrialList2	target_left.png	1	d	-1	3	311185	260	d	716	311901															3	1	14	incomp			300
1 ver1_main_procedure	9	1	25	<?xml version="1.0"?>\n<Clock xmlns:dt="urn:schemas-microsoft-com:datatypes"><Description dt:dt="string">E-Prime Primary Realtime Clock</Description><StartTime><Timestamp dt:dt="int">0</Timestamp><DateUtc dt:dt="string">2015-08-11T07:10:41Z</DateUtc></StartTime><FrequencyChanges><FrequencyChange><Frequency dt:dt="r8">2612324</Frequency><Timestamp dt:dt="r8">2611945348</Timestamp><Current dt:dt="r8">0</Current><DateUtc dt:dt="string">2015-08-11T07:10:41Z</DateUtc></FrequencyChange></FrequencyChanges></Clock>\n	1 ver1_main_procedure-9-1	99.940	1.0.0.880	1	jz	-1682491531	prawa	1	2.0.10.182	08-11-2015	2015-08-11 07:10:41	09:10:41	mezczyzna	2.0.10.92	3	4	1	1																							d	{SPACE}		no	BlockProc2		BlockList									15	Free	dl	color_green.png		-1	15	314717	460																								75	prime_left.png	0	314036	0	0	13	1	314037	1	314037	1	314036	20	0	-1	312537	314036	314035	0		TrialProc1	left	0		1	10	314346	-314346		0	0	TrialList2	target_both.png	0	dl	-1	3	314086	260	l	615	314701															7	1	15	comp			450
1 ver1_main_procedure	9	1	25	<?xml version="1.0"?>\n<Clock xmlns:dt="urn:schemas-microsoft-com:datatypes"><Description dt:dt="string">E-Prime Primary Realtime Clock</Description><StartTime><Timestamp dt:dt="int">0</Timestamp><DateUtc dt:dt="string">2015-08-11T07:10:41Z</DateUtc></StartTime><FrequencyChanges><FrequencyChange><Frequency dt:dt="r8">2612324</Frequency><Timestamp dt:dt="r8">2611945348</Timestamp><Current dt:dt="r8">0</Current><DateUtc dt:dt="string">2015-08-11T07:10:41Z</DateUtc></FrequencyChange></FrequencyChanges></Clock>\n	1 ver1_main_procedure-9-1	99.940	1.0.0.880	1	jz	-1682491531	prawa	1	2.0.10.182	08-11-2015	2015-08-11 07:10:41	09:10:41	mezczyzna	2.0.10.92	3	4	1	1																							d	{SPACE}		no	BlockProc2		BlockList									16	Free	dl	color_blue.png		-1	15	317789	310																			1					25	prime_left.png	0	316988	0	0	13	0	316988	0	316988	1	316988	20	0	-1	315489	316988	316987	0	prime_left.png	TrialProc1	right	0		0	10	317298	-317298		0	0	TrialList2	target_both.png	0	dl	-1	3	317038	260	d	735	317773															11	1	16	neut			300
1 ver1_main_procedure	9	1	25	<?xml version="1.0"?>\n<Clock xmlns:dt="urn:schemas-microsoft-com:datatypes"><Description dt:dt="string">E-Prime Primary Realtime Clock</Description><StartTime><Timestamp dt:dt="int">0</Timestamp><DateUtc dt:dt="string">2015-08-11T07:10:41Z</DateUtc></StartTime><FrequencyChanges><FrequencyChange><Frequency dt:dt="r8">2612324</Frequency><Timestamp dt:dt="r8">2611945348</Timestamp><Current dt:dt="r8">0</Current><DateUtc dt:dt="string">2015-08-11T07:10:41Z</DateUtc></FrequencyChange></FrequencyChanges></Clock>\n	1 ver1_main_procedure-9-1	99.940	1.0.0.880	1	jz	-1682491531	prawa	1	2.0.10.182	08-11-2015	2015-08-11 07:10:41	09:10:41	mezczyzna	2.0.10.92	3	4	1	1																							d	{SPACE}		no	BlockProc2		BlockList									17	Free	dl	color_purple.png		-1	10	320840	160																								75	prime_right.png	0	319910	0	0	13	0	319910	0	319910	1	319910	20	0	-1	318411	319910	319909	0		TrialProc1	left	0		0	10	320220	-320220		0	0	TrialList2	target_both.png	0	dl	-1	3	319960	260	l	869	320829															9	1	17	incomp			150
1 ver1_main_procedure	9	1	25	<?xml version="1.0"?>\n<Clock xmlns:dt="urn:schemas-microsoft-com:datatypes"><Description dt:dt="string">E-Prime Primary Realtime Clock</Description><StartTime><Timestamp dt:dt="int">0</Timestamp><DateUtc dt:dt="string">2015-08-11T07:10:41Z</DateUtc></StartTime><FrequencyChanges><FrequencyChange><Frequency dt:dt="r8">2612324</Frequency><Timestamp dt:dt="r8">2611945348</Timestamp><Current dt:dt="r8">0</Current><DateUtc dt:dt="string">2015-08-11T07:10:41Z</DateUtc></FrequencyChange></FrequencyChanges></Clock>\n	1 ver1_main_procedure-9-1	99.940	1.0.0.880	1	jz	-1682491531	prawa	1	2.0.10.182	08-11-2015	2015-08-11 07:10:41	09:10:41	mezczyzna	2.0.10.92	3	4	1	1																							d	{SPACE}		no	BlockProc2		BlockList									18	Cued	d	color_blue.png		-1	8	323622	160																			2					25	prime_right.png	1	322812	0	0	13	1	322812	1	322812	0	322811	20	0	-1	321312	322811	322811	0	prime_right.png	TrialProc1	left	0		0	10	323122	-323122		0	0	TrialList2	target_left.png	1	d	-1	4	322862	260	d	751	323613															2	1	18	neut			150
1 ver1_main_procedure	9	1	25	<?xml version="1.0"?>\n<Clock xmlns:dt="urn:schemas-microsoft-com:datatypes"><Description dt:dt="string">E-Prime Primary Realtime Clock</Description><StartTime><Timestamp dt:dt="int">0</Timestamp><DateUtc dt:dt="string">2015-08-11T07:10:41Z</DateUtc></StartTime><FrequencyChanges><FrequencyChange><Frequency dt:dt="r8">2612324</Frequency><Timestamp dt:dt="r8">2611945348</Timestamp><Current dt:dt="r8">0</Current><DateUtc dt:dt="string">2015-08-11T07:10:41Z</DateUtc></FrequencyChange></FrequencyChanges></Clock>\n	1 ver1_main_procedure-9-1	99.940	1.0.0.880	1	jz	-1682491531	prawa	1	2.0.10.182	08-11-2015	2015-08-11 07:10:41	09:10:41	mezczyzna	2.0.10.92	3	4	1	1																							d	{SPACE}		no	BlockProc2		BlockList									19	Free	dl	color_yellow.png		-1	6	326284	160																			1					75	prime_left.png	0	325593	0	0	13	0	325593	0	325593	1	325593	20	0	-1	324094	325593	325592	0	prime_left.png	TrialProc1	right	0		0	10	325903	-325903		0	0	TrialList2	target_both.png	0	dl	-1	3	325643	260	l	634	326277															11	1	19	neut			150
1 ver1_main_procedure	9	1	25	<?xml version="1.0"?>\n<Clock xmlns:dt="urn:schemas-microsoft-com:datatypes"><Description dt:dt="string">E-Prime Primary Realtime Clock</Description><StartTime><Timestamp dt:dt="int">0</Timestamp><DateUtc dt:dt="string">2015-08-11T07:10:41Z</DateUtc></StartTime><FrequencyChanges><FrequencyChange><Frequency dt:dt="r8">2612324</Frequency><Timestamp dt:dt="r8">2611945348</Timestamp><Current dt:dt="r8">0</Current><DateUtc dt:dt="string">2015-08-11T07:10:41Z</DateUtc></FrequencyChange></FrequencyChanges></Clock>\n	1 ver1_main_procedure-9-1	99.940	1.0.0.880	1	jz	-1682491531	prawa	1	2.0.10.182	08-11-2015	2015-08-11 07:10:41	09:10:41	mezczyzna	2.0.10.92	3	4	1	1																							d	{SPACE}		no	BlockProc2		BlockList									20	Free	dl	color_green.png		-1	13	328795	160																								75	prime_left.png	0	328255	0	0	13	0	328255	0	328255	1	328255	20	0	-1	326756	328255	328254	0		TrialProc1	left	0		0	10	328565	-328565		0	0	TrialList2	target_both.png	0	dl	-1	3	328305	260	l	477	328782															7	1	20	comp			150
1 ver1_main_procedure	9	1	25	<?xml version="1.0"?>\n<Clock xmlns:dt="urn:schemas-microsoft-com:datatypes"><Description dt:dt="string">E-Prime Primary Realtime Clock</Description><StartTime><Timestamp dt:dt="int">0</Timestamp><DateUtc dt:dt="string">2015-08-11T07:10:41Z</DateUtc></StartTime><FrequencyChanges><FrequencyChange><Frequency dt:dt="r8">2612324</Frequency><Timestamp dt:dt="r8">2611945348</Timestamp><Current dt:dt="r8">0</Current><DateUtc dt:dt="string">2015-08-11T07:10:41Z</DateUtc></FrequencyChange></FrequencyChanges></Clock>\n	1 ver1_main_procedure-9-1	99.940	1.0.0.880	1	jz	-1682491531	prawa	1	2.0.10.182	08-11-2015	2015-08-11 07:10:41	09:10:41	mezczyzna	2.0.10.92	3	4	1	1																							d	{SPACE}		no	BlockProc2		BlockList									21	Cued	d	color_orange.png		-1	12	331306	311																								25	prime_left.png	0	330766	0	0	13	0	330766	0	330766	1	330766	20	0	-1	329267	330766	330765	0		TrialProc1	left	0		0	10	331076	-331076		0	0	TrialList2	target_left.png	1	d	-1	3	330816	260	d	478	331294															1	1	21	comp			300
1 ver1_main_procedure	9	1	25	<?xml version="1.0"?>\n<Clock xmlns:dt="urn:schemas-microsoft-com:datatypes"><Description dt:dt="string">E-Prime Primary Realtime Clock</Description><StartTime><Timestamp dt:dt="int">0</Timestamp><DateUtc dt:dt="string">2015-08-11T07:10:41Z</DateUtc></StartTime><FrequencyChanges><FrequencyChange><Frequency dt:dt="r8">2612324</Frequency><Timestamp dt:dt="r8">2611945348</Timestamp><Current dt:dt="r8">0</Current><DateUtc dt:dt="string">2015-08-11T07:10:41Z</DateUtc></FrequencyChange></FrequencyChanges></Clock>\n	1 ver1_main_procedure-9-1	99.940	1.0.0.880	1	jz	-1682491531	prawa	1	2.0.10.182	08-11-2015	2015-08-11 07:10:41	09:10:41	mezczyzna	2.0.10.92	3	4	1	1																							d	{SPACE}		no	BlockProc2		BlockList									22	Free	dl	color_purple.png		-1	14	333988	310																								75	prime_right.png	0	333428	0	0	13	0	333428	0	333428	1	333428	20	0	-1	331929	333428	333427	0		TrialProc1	right	0		0	10	333738	-333738		0	0	TrialList2	target_both.png	0	dl	-1	3	333478	260	l	496	333974															10	1	22	comp			300
1 ver1_main_procedure	9	1	25	<?xml version="1.0"?>\n<Clock xmlns:dt="urn:schemas-microsoft-com:datatypes"><Description dt:dt="string">E-Prime Primary Realtime Clock</Description><StartTime><Timestamp dt:dt="int">0</Timestamp><DateUtc dt:dt="string">2015-08-11T07:10:41Z</DateUtc></StartTime><FrequencyChanges><FrequencyChange><Frequency dt:dt="r8">2612324</Frequency><Timestamp dt:dt="r8">2611945348</Timestamp><Current dt:dt="r8">0</Current><DateUtc dt:dt="string">2015-08-11T07:10:41Z</DateUtc></FrequencyChange></FrequencyChanges></Clock>\n	1 ver1_main_procedure-9-1	99.940	1.0.0.880	1	jz	-1682491531	prawa	1	2.0.10.182	08-11-2015	2015-08-11 07:10:41	09:10:41	mezczyzna	2.0.10.92	3	4	1	1																							d	{SPACE}		no	BlockProc2		BlockList									23	Free	dl	color_purple.png		-1	10	336720	310																								75	prime_right.png	0	336109	0	0	13	1	336110	1	336110	0	336109	20	0	-1	334610	336109	336109	0		TrialProc1	right	0		1	10	336419	-336419		0	0	TrialList2	target_both.png	0	dl	-1	3	336159	260	l	551	336710															10	1	23	comp			300
1 ver1_main_procedure	9	1	25	<?xml version="1.0"?>\n<Clock xmlns:dt="urn:schemas-microsoft-com:datatypes"><Description dt:dt="string">E-Prime Primary Realtime Clock</Description><StartTime><Timestamp dt:dt="int">0</Timestamp><DateUtc dt:dt="string">2015-08-11T07:10:41Z</DateUtc></StartTime><FrequencyChanges><FrequencyChange><Frequency dt:dt="r8">2612324</Frequency><Timestamp dt:dt="r8">2611945348</Timestamp><Current dt:dt="r8">0</Current><DateUtc dt:dt="string">2015-08-11T07:10:41Z</DateUtc></FrequencyChange></FrequencyChanges></Clock>\n	1 ver1_main_procedure-9-1	99.940	1.0.0.880	1	jz	-1682491531	prawa	1	2.0.10.182	08-11-2015	2015-08-11 07:10:41	09:10:41	mezczyzna	2.0.10.92	3	4	1	1																							d	{SPACE}		no	BlockProc2		BlockList									24	Free	dl	color_red.png		-1	13	339411	310																								25	prime_right.png	0	338841	0	0	13	0	338841	0	338841	1	338841	20	0	-1	337342	338841	338840	0		TrialProc1	left	0		0	10	339151	-339151		0	0	TrialList2	target_both.png	0	dl	-1	3	338891	260	d	507	339398															9	1	24	incomp			300
1 ver1_main_procedure	9	1	25	<?xml version="1.0"?>\n<Clock xmlns:dt="urn:schemas-microsoft-com:datatypes"><Description dt:dt="string">E-Prime Primary Realtime Clock</Description><StartTime><Timestamp dt:dt="int">0</Timestamp><DateUtc dt:dt="string">2015-08-11T07:10:41Z</DateUtc></StartTime><FrequencyChanges><FrequencyChange><Frequency dt:dt="r8">2612324</Frequency><Timestamp dt:dt="r8">2611945348</Timestamp><Current dt:dt="r8">0</Current><DateUtc dt:dt="string">2015-08-11T07:10:41Z</DateUtc></FrequencyChange></FrequencyChanges></Clock>\n	1 ver1_main_procedure-9-1	99.940	1.0.0.880	1	jz	-1682491531	prawa	1	2.0.10.182	08-11-2015	2015-08-11 07:10:41	09:10:41	mezczyzna	2.0.10.92	3	4	1	1																							d	{SPACE}		no	BlockProc2		BlockList									25	Free	dl	color_orange.png		-1	15	342133	160																								25	prime_left.png	1	341533	0	0	13	1	341533	1	341533	0	341532	20	0	-1	340033	341532	341532	0		TrialProc1	left	0		0	10	341843	-341843		0	0	TrialList2	target_both.png	0	dl	-1	4	341583	260	d	535	342118															7	1	25	comp			150
1 ver1_main_procedure	9	1	25	<?xml version="1.0"?>\n<Clock xmlns:dt="urn:schemas-microsoft-com:datatypes"><Description dt:dt="string">E-Prime Primary Realtime Clock</Description><StartTime><Timestamp dt:dt="int">0</Timestamp><DateUtc dt:dt="string">2015-08-11T07:10:41Z</DateUtc></StartTime><FrequencyChanges><FrequencyChange><Frequency dt:dt="r8">2612324</Frequency><Timestamp dt:dt="r8">2611945348</Timestamp><Current dt:dt="r8">0</Current><DateUtc dt:dt="string">2015-08-11T07:10:41Z</DateUtc></FrequencyChange></FrequencyChanges></Clock>\n	1 ver1_main_procedure-9-1	99.940	1.0.0.880	1	jz	-1682491531	prawa	1	2.0.10.182	08-11-2015	2015-08-11 07:10:41	09:10:41	mezczyzna	2.0.10.92	3	4	1	1																							d	{SPACE}		no	BlockProc2		BlockList									26	Free	dl	color_green.png		-1	6	344724	311																								75	prime_left.png	0	344104	0	0	13	0	344104	0	344104	1	344104	20	0	-1	342605	344104	344103	0		TrialProc1	right	0		0	10	344414	-344414		0	0	TrialList2	target_both.png	0	dl	-1	3	344154	260	l	564	344718															12	1	26	incomp			300
1 ver1_main_procedure	9	1	25	<?xml version="1.0"?>\n<Clock xmlns:dt="urn:schemas-microsoft-com:datatypes"><Description dt:dt="string">E-Prime Primary Realtime Clock</Description><StartTime><Timestamp dt:dt="int">0</Timestamp><DateUtc dt:dt="string">2015-08-11T07:10:41Z</DateUtc></StartTime><FrequencyChanges><FrequencyChange><Frequency dt:dt="r8">2612324</Frequency><Timestamp dt:dt="r8">2611945348</Timestamp><Current dt:dt="r8">0</Current><DateUtc dt:dt="string">2015-08-11T07:10:41Z</DateUtc></FrequencyChange></FrequencyChanges></Clock>\n	1 ver1_main_procedure-9-1	99.940	1.0.0.880	1	jz	-1682491531	prawa	1	2.0.10.182	08-11-2015	2015-08-11 07:10:41	09:10:41	mezczyzna	2.0.10.92	3	4	1	1																							d	{SPACE}		no	BlockProc2		BlockList									27	Free	dl	color_purple.png		-1	12	347306	160																								75	prime_right.png	0	346846	0	0	13	0	346846	0	346846	1	346846	20	0	-1	345347	346846	346845	0		TrialProc1	right	0		0	10	347156	-347156		0	0	TrialList2	target_both.png	0	dl	-1	3	346896	260	l	398	347294															10	1	27	comp			150
1 ver1_main_procedure	9	1	25	<?xml version="1.0"?>\n<Clock xmlns:dt="urn:schemas-microsoft-com:datatypes"><Description dt:dt="string">E-Prime Primary Realtime Clock</Description><StartTime><Timestamp dt:dt="int">0</Timestamp><DateUtc dt:dt="string">2015-08-11T07:10:41Z</DateUtc></StartTime><FrequencyChanges><FrequencyChange><Frequency dt:dt="r8">2612324</Frequency><Timestamp dt:dt="r8">2611945348</Timestamp><Current dt:dt="r8">0</Current><DateUtc dt:dt="string">2015-08-11T07:10:41Z</DateUtc></FrequencyChange></FrequencyChanges></Clock>\n	1 ver1_main_procedure-9-1	99.940	1.0.0.880	1	jz	-1682491531	prawa	1	2.0.10.182	08-11-2015	2015-08-11 07:10:41	09:10:41	mezczyzna	2.0.10.92	3	4	1	1																							d	{SPACE}		no	BlockProc2		BlockList									28	Free	dl	color_red.png		-1	9	349767	461																								25	prime_right.png	0	349277	0	0	13	0	349277	0	349277	1	349277	20	0	-1	347778	349277	349276	0		TrialProc1	right	0		0	10	349587	-349587		0	0	TrialList2	target_both.png	0	dl	-1	3	349327	260	d	431	349758															10	1	28	comp			450
1 ver1_main_procedure	9	1	25	<?xml version="1.0"?>\n<Clock xmlns:dt="urn:schemas-microsoft-com:datatypes"><Description dt:dt="string">E-Prime Primary Realtime Clock</Description><StartTime><Timestamp dt:dt="int">0</Timestamp><DateUtc dt:dt="string">2015-08-11T07:10:41Z</DateUtc></StartTime><FrequencyChanges><FrequencyChange><Frequency dt:dt="r8">2612324</Frequency><Timestamp dt:dt="r8">2611945348</Timestamp><Current dt:dt="r8">0</Current><DateUtc dt:dt="string">2015-08-11T07:10:41Z</DateUtc></FrequencyChange></FrequencyChanges></Clock>\n	1 ver1_main_procedure-9-1	99.940	1.0.0.880	1	jz	-1682491531	prawa	1	2.0.10.182	08-11-2015	2015-08-11 07:10:41	09:10:41	mezczyzna	2.0.10.92	3	4	1	1																							d	{SPACE}		no	BlockProc2		BlockList									29	Free	dl	color_green.png		-1	6	352589	310																								75	prime_left.png	0	352039	0	0	13	0	352039	0	352039	1	352039	20	0	-1	350540	352039	352038	0		TrialProc1	right	0		0	10	352349	-352349		0	0	TrialList2	target_both.png	0	dl	-1	3	352089	260	l	493	352582															12	1	29	incomp			300
1 ver1_main_procedure	9	1	25	<?xml version="1.0"?>\n<Clock xmlns:dt="urn:schemas-microsoft-com:datatypes"><Description dt:dt="string">E-Prime Primary Realtime Clock</Description><StartTime><Timestamp dt:dt="int">0</Timestamp><DateUtc dt:dt="string">2015-08-11T07:10:41Z</DateUtc></StartTime><FrequencyChanges><FrequencyChange><Frequency dt:dt="r8">2612324</Frequency><Timestamp dt:dt="r8">2611945348</Timestamp><Current dt:dt="r8">0</Current><DateUtc dt:dt="string">2015-08-11T07:10:41Z</DateUtc></FrequencyChange></FrequencyChanges></Clock>\n	1 ver1_main_procedure-9-1	99.940	1.0.0.880	1	jz	-1682491531	prawa	1	2.0.10.182	08-11-2015	2015-08-11 07:10:41	09:10:41	mezczyzna	2.0.10.92	3	4	1	1																							d	{SPACE}		no	BlockProc2		BlockList									30	Free	dl	color_green.png		-1	11	355130	461																								75	prime_left.png	0	354710	0	0	13	0	354710	0	354710	1	354710	20	0	-1	353211	354710	354709	0		TrialProc1	left	0		0	11	355021	-355021		0	0	TrialList2	target_both.png	0	dl	-1	3	354760	261	l	358	355118															7	1	30	comp			450
1 ver1_main_procedure	9	1	25	<?xml version="1.0"?>\n<Clock xmlns:dt="urn:schemas-microsoft-com:datatypes"><Description dt:dt="string">E-Prime Primary Realtime Clock</Description><StartTime><Timestamp dt:dt="int">0</Timestamp><DateUtc dt:dt="string">2015-08-11T07:10:41Z</DateUtc></StartTime><FrequencyChanges><FrequencyChange><Frequency dt:dt="r8">2612324</Frequency><Timestamp dt:dt="r8">2611945348</Timestamp><Current dt:dt="r8">0</Current><DateUtc dt:dt="string">2015-08-11T07:10:41Z</DateUtc></FrequencyChange></FrequencyChanges></Clock>\n	1 ver1_main_procedure-9-1	99.940	1.0.0.880	1	jz	-1682491531	prawa	1	2.0.10.182	08-11-2015	2015-08-11 07:10:41	09:10:41	mezczyzna	2.0.10.92	3	4	1	1																							d	{SPACE}		no	BlockProc2		BlockList									31	Free	dl	color_purple.png		-1	9	357832	160																								75	prime_right.png	0	357402	0	0	13	0	357402	0	357402	1	357402	20	0	-1	355903	357402	357401	0		TrialProc1	left	0		0	10	357712	-357712		0	0	TrialList2	target_both.png	0	dl	-1	3	357452	260	l	370	357822															9	1	31	incomp			150
1 ver1_main_procedure	9	1	25	<?xml version="1.0"?>\n<Clock xmlns:dt="urn:schemas-microsoft-com:datatypes"><Description dt:dt="string">E-Prime Primary Realtime Clock</Description><StartTime><Timestamp dt:dt="int">0</Timestamp><DateUtc dt:dt="string">2015-08-11T07:10:41Z</DateUtc></StartTime><FrequencyChanges><FrequencyChange><Frequency dt:dt="r8">2612324</Frequency><Timestamp dt:dt="r8">2611945348</Timestamp><Current dt:dt="r8">0</Current><DateUtc dt:dt="string">2015-08-11T07:10:41Z</DateUtc></FrequencyChange></FrequencyChanges></Clock>\n	1 ver1_main_procedure-9-1	99.940	1.0.0.880	1	jz	-1682491531	prawa	1	2.0.10.182	08-11-2015	2015-08-11 07:10:41	09:10:41	mezczyzna	2.0.10.92	3	4	1	1																							d	{SPACE}		no	BlockProc2		BlockList									32	Free	dl	color_orange.png		-1	11	360354	310																								25	prime_left.png	0	359803	0	0	13	0	359803	0	359803	1	359803	20	0	-1	358304	359803	359802	0		TrialProc1	right	0		1	10	360113	-360113		0	0	TrialList2	target_both.png	0	dl	-1	3	359853	260	d	489	360342															12	1	32	incomp			300
1 ver1_main_procedure	9	1	25	<?xml version="1.0"?>\n<Clock xmlns:dt="urn:schemas-microsoft-com:datatypes"><Description dt:dt="string">E-Prime Primary Realtime Clock</Description><StartTime><Timestamp dt:dt="int">0</Timestamp><DateUtc dt:dt="string">2015-08-11T07:10:41Z</DateUtc></StartTime><FrequencyChanges><FrequencyChange><Frequency dt:dt="r8">2612324</Frequency><Timestamp dt:dt="r8">2611945348</Timestamp><Current dt:dt="r8">0</Current><DateUtc dt:dt="string">2015-08-11T07:10:41Z</DateUtc></FrequencyChange></FrequencyChanges></Clock>\n	1 ver1_main_procedure-9-1	99.940	1.0.0.880	1	jz	-1682491531	prawa	1	2.0.10.182	08-11-2015	2015-08-11 07:10:41	09:10:41	mezczyzna	2.0.10.92	3	4	1	1																							d	{SPACE}		no	BlockProc2		BlockList									33	Free	dl	color_red.png		-1	14	363125	460																								25	prime_right.png	0	362475	0	0	13	0	362475	0	362475	1	362475	20	0	-1	360976	362475	362474	0		TrialProc1	right	0		0	10	362785	-362785		0	0	TrialList2	target_both.png	0	dl	-1	3	362525	260	d	585	363110															10	1	33	comp			450
1 ver1_main_procedure	9	1	25	<?xml version="1.0"?>\n<Clock xmlns:dt="urn:schemas-microsoft-com:datatypes"><Description dt:dt="string">E-Prime Primary Realtime Clock</Description><StartTime><Timestamp dt:dt="int">0</Timestamp><DateUtc dt:dt="string">2015-08-11T07:10:41Z</DateUtc></StartTime><FrequencyChanges><FrequencyChange><Frequency dt:dt="r8">2612324</Frequency><Timestamp dt:dt="r8">2611945348</Timestamp><Current dt:dt="r8">0</Current><DateUtc dt:dt="string">2015-08-11T07:10:41Z</DateUtc></FrequencyChange></FrequencyChanges></Clock>\n	1 ver1_main_procedure-9-1	99.940	1.0.0.880	1	jz	-1682491531	prawa	1	2.0.10.182	08-11-2015	2015-08-11 07:10:41	09:10:41	mezczyzna	2.0.10.92	3	4	1	1																							d	{SPACE}		no	BlockProc2		BlockList									34	Free	dl	color_yellow.png		-1	10	365817	310																			2					75	prime_right.png	0	365397	0	0	13	0	365397	0	365397	1	365397	19	0	-1	363897	365397	365396	0	prime_right.png	TrialProc1	left	0		0	10	365707	-365707		0	0	TrialList2	target_both.png	0	dl	-1	4	365447	260	l	359	365806															8	1	34	neut			300
1 ver1_main_procedure	9	1	25	<?xml version="1.0"?>\n<Clock xmlns:dt="urn:schemas-microsoft-com:datatypes"><Description dt:dt="string">E-Prime Primary Realtime Clock</Description><StartTime><Timestamp dt:dt="int">0</Timestamp><DateUtc dt:dt="string">2015-08-11T07:10:41Z</DateUtc></StartTime><FrequencyChanges><FrequencyChange><Frequency dt:dt="r8">2612324</Frequency><Timestamp dt:dt="r8">2611945348</Timestamp><Current dt:dt="r8">0</Current><DateUtc dt:dt="string">2015-08-11T07:10:41Z</DateUtc></FrequencyChange></FrequencyChanges></Clock>\n	1 ver1_main_procedure-9-1	99.940	1.0.0.880	1	jz	-1682491531	prawa	1	2.0.10.182	08-11-2015	2015-08-11 07:10:41	09:10:41	mezczyzna	2.0.10.92	3	4	1	1																							d	{SPACE}		no	BlockProc2		BlockList									35	Free	dl	color_blue.png		-1	7	368558	311																			1					25	prime_left.png	0	367938	0	0	13	0	367938	0	367938	1	367938	20	0	-1	366439	367938	367937	0	prime_left.png	TrialProc1	right	0		0	10	368248	-368248		0	0	TrialList2	target_both.png	0	dl	-1	3	367988	260	d	562	368550															11	1	35	neut			300
1 ver1_main_procedure	9	1	25	<?xml version="1.0"?>\n<Clock xmlns:dt="urn:schemas-microsoft-com:datatypes"><Description dt:dt="string">E-Prime Primary Realtime Clock</Description><StartTime><Timestamp dt:dt="int">0</Timestamp><DateUtc dt:dt="string">2015-08-11T07:10:41Z</DateUtc></StartTime><FrequencyChanges><FrequencyChange><Frequency dt:dt="r8">2612324</Frequency><Timestamp dt:dt="r8">2611945348</Timestamp><Current dt:dt="r8">0</Current><DateUtc dt:dt="string">2015-08-11T07:10:41Z</DateUtc></FrequencyChange></FrequencyChanges></Clock>\n	1 ver1_main_procedure-9-1	99.940	1.0.0.880	1	jz	-1682491531	prawa	1	2.0.10.182	08-11-2015	2015-08-11 07:10:41	09:10:41	mezczyzna	2.0.10.92	3	4	1	1																							d	{SPACE}		no	BlockProc2		BlockList									36	Free	dl	color_blue.png		-1	13	371140	310																			2					25	prime_right.png	0	370680	0	0	13	0	370680	0	370680	1	370680	20	0	-1	369180	370680	370679	0	prime_right.png	TrialProc1	right	0		0	10	370990	-370990		0	0	TrialList2	target_both.png	0	dl	-1	3	370730	260	d	396	371126															11	1	36	neut			300
1 ver1_main_procedure	9	1	25	<?xml version="1.0"?>\n<Clock xmlns:dt="urn:schemas-microsoft-com:datatypes"><Description dt:dt="string">E-Prime Primary Realtime Clock</Description><StartTime><Timestamp dt:dt="int">0</Timestamp><DateUtc dt:dt="string">2015-08-11T07:10:41Z</DateUtc></StartTime><FrequencyChanges><FrequencyChange><Frequency dt:dt="r8">2612324</Frequency><Timestamp dt:dt="r8">2611945348</Timestamp><Current dt:dt="r8">0</Current><DateUtc dt:dt="string">2015-08-11T07:10:41Z</DateUtc></FrequencyChange></FrequencyChanges></Clock>\n	1 ver1_main_procedure-9-1	99.940	1.0.0.880	1	jz	-1682491531	prawa	1	2.0.10.182	08-11-2015	2015-08-11 07:10:41	09:10:41	mezczyzna	2.0.10.92	3	4	1	1																							d	{SPACE}		no	BlockProc2		BlockList									37	Free	dl	color_purple.png		-1	10	373721	311																								75	prime_right.png	0	373261	0	0	13	0	373261	0	373261	1	373261	20	0	-1	371762	373261	373260	0		TrialProc1	right	0		1	10	373571	-373571		0	0	TrialList2	target_both.png	0	dl	-1	3	373311	260	l	399	373710															10	1	37	comp			300
1 ver1_main_procedure	9	1	25	<?xml version="1.0"?>\n<Clock xmlns:dt="urn:schemas-microsoft-com:datatypes"><Description dt:dt="string">E-Prime Primary Realtime Clock</Description><StartTime><Timestamp dt:dt="int">0</Timestamp><DateUtc dt:dt="string">2015-08-11T07:10:41Z</DateUtc></StartTime><FrequencyChanges><FrequencyChange><Frequency dt:dt="r8">2612324</Frequency><Timestamp dt:dt="r8">2611945348</Timestamp><Current dt:dt="r8">0</Current><DateUtc dt:dt="string">2015-08-11T07:10:41Z</DateUtc></FrequencyChange></FrequencyChanges></Clock>\n	1 ver1_main_procedure-9-1	99.940	1.0.0.880	1	jz	-1682491531	prawa	1	2.0.10.182	08-11-2015	2015-08-11 07:10:41	09:10:41	mezczyzna	2.0.10.92	3	4	1	1																							d	{SPACE}		no	BlockProc2		BlockList									38	Cued	d	color_orange.png		-1	14	376213	160																								25	prime_left.png	0	375843	0	0	13	0	375843	0	375843	1	375843	20	0	-1	374343	375843	375842	0		TrialProc1	left	0		0	10	376153	-376153		0	0	TrialList2	target_left.png	1	d	-1	3	375893	260	d	305	376198															1	1	38	comp			150
1 ver1_main_procedure	9	1	25	<?xml version="1.0"?>\n<Clock xmlns:dt="urn:schemas-microsoft-com:datatypes"><Description dt:dt="string">E-Prime Primary Realtime Clock</Description><StartTime><Timestamp dt:dt="int">0</Timestamp><DateUtc dt:dt="string">2015-08-11T07:10:41Z</DateUtc></StartTime><FrequencyChanges><FrequencyChange><Frequency dt:dt="r8">2612324</Frequency><Timestamp dt:dt="r8">2611945348</Timestamp><Current dt:dt="r8">0</Current><DateUtc dt:dt="string">2015-08-11T07:10:41Z</DateUtc></FrequencyChange></FrequencyChanges></Clock>\n	1 ver1_main_procedure-9-1	99.940	1.0.0.880	1	jz	-1682491531	prawa	1	2.0.10.182	08-11-2015	2015-08-11 07:10:41	09:10:41	mezczyzna	2.0.10.92	3	4	1	1																							d	{SPACE}		no	BlockProc2		BlockList									39	Cued	l	color_purple.png		-1	5	378604	160																								75	prime_right.png	0	378184	0	0	13	0	378184	0	378184	1	378184	20	0	-1	376685	378184	378183	0		TrialProc1	right	0		0	10	378494	-378494		0	0	TrialList2	target_right.png	1	l	-1	3	378234	260	l	364	378598															4	1	39	comp			150
1 ver1_main_procedure	9	1	25	<?xml version="1.0"?>\n<Clock xmlns:dt="urn:schemas-microsoft-com:datatypes"><Description dt:dt="string">E-Prime Primary Realtime Clock</Description><StartTime><Timestamp dt:dt="int">0</Timestamp><DateUtc dt:dt="string">2015-08-11T07:10:41Z</DateUtc></StartTime><FrequencyChanges><FrequencyChange><Frequency dt:dt="r8">2612324</Frequency><Timestamp dt:dt="r8">2611945348</Timestamp><Current dt:dt="r8">0</Current><DateUtc dt:dt="string">2015-08-11T07:10:41Z</DateUtc></FrequencyChange></FrequencyChanges></Clock>\n	1 ver1_main_procedure-9-1	99.940	1.0.0.880	1	jz	-1682491531	prawa	1	2.0.10.182	08-11-2015	2015-08-11 07:10:41	09:10:41	mezczyzna	2.0.10.92	3	4	1	1																							d	{SPACE}		no	BlockProc2		BlockList									40	Cued	d	color_orange.png		-1	7	380926	460																								25	prime_left.png	0	380575	0	0	13	1	380576	1	380576	0	380575	20	0	-1	379076	380575	380575	0		TrialProc1	left	0		0	11	380886	-380886		0	0	TrialList2	target_left.png	1	d	-1	3	380625	261	d	293	380918															1	1	40	comp			450
1 ver1_main_procedure	9	1	25	<?xml version="1.0"?>\n<Clock xmlns:dt="urn:schemas-microsoft-com:datatypes"><Description dt:dt="string">E-Prime Primary Realtime Clock</Description><StartTime><Timestamp dt:dt="int">0</Timestamp><DateUtc dt:dt="string">2015-08-11T07:10:41Z</DateUtc></StartTime><FrequencyChanges><FrequencyChange><Frequency dt:dt="r8">2612324</Frequency><Timestamp dt:dt="r8">2611945348</Timestamp><Current dt:dt="r8">0</Current><DateUtc dt:dt="string">2015-08-11T07:10:41Z</DateUtc></FrequencyChange></FrequencyChanges></Clock>\n	1 ver1_main_procedure-9-1	99.940	1.0.0.880	1	jz	-1682491531	prawa	1	2.0.10.182	08-11-2015	2015-08-11 07:10:41	09:10:41	mezczyzna	2.0.10.92	3	4	1	1																							d	{SPACE}		no	BlockProc2		BlockList									41	Free	dl	color_yellow.png		-1	10	383657	160																			1					75	prime_left.png	0	383197	0	0	13	0	383197	0	383197	1	383197	20	0	-1	381698	383197	383196	0	prime_left.png	TrialProc1	right	0		0	10	383507	-383507		0	0	TrialList2	target_both.png	0	dl	-1	3	383247	260	l	399	383646															11	1	41	neut			150
1 ver1_main_procedure	9	1	25	<?xml version="1.0"?>\n<Clock xmlns:dt="urn:schemas-microsoft-com:datatypes"><Description dt:dt="string">E-Prime Primary Realtime Clock</Description><StartTime><Timestamp dt:dt="int">0</Timestamp><DateUtc dt:dt="string">2015-08-11T07:10:41Z</DateUtc></StartTime><FrequencyChanges><FrequencyChange><Frequency dt:dt="r8">2612324</Frequency><Timestamp dt:dt="r8">2611945348</Timestamp><Current dt:dt="r8">0</Current><DateUtc dt:dt="string">2015-08-11T07:10:41Z</DateUtc></FrequencyChange></FrequencyChanges></Clock>\n	1 ver1_main_procedure-9-1	99.940	1.0.0.880	1	jz	-1682491531	prawa	1	2.0.10.182	08-11-2015	2015-08-11 07:10:41	09:10:41	mezczyzna	2.0.10.92	3	4	1	1																							d	{SPACE}		no	BlockProc2		BlockList									42	Free	dl	color_red.png		-1	6	386109	160																								25	prime_right.png	1	385629	0	0	13	1	385629	1	385629	1	385628	20	0	-1	384129	385628	385627	0		TrialProc1	left	0		0	11	385939	-385939		0	0	TrialList2	target_both.png	0	dl	-1	3	385678	261	d	424	386102															9	1	42	incomp			150
1 ver1_main_procedure	9	1	25	<?xml version="1.0"?>\n<Clock xmlns:dt="urn:schemas-microsoft-com:datatypes"><Description dt:dt="string">E-Prime Primary Realtime Clock</Description><StartTime><Timestamp dt:dt="int">0</Timestamp><DateUtc dt:dt="string">2015-08-11T07:10:41Z</DateUtc></StartTime><FrequencyChanges><FrequencyChange><Frequency dt:dt="r8">2612324</Frequency><Timestamp dt:dt="r8">2611945348</Timestamp><Current dt:dt="r8">0</Current><DateUtc dt:dt="string">2015-08-11T07:10:41Z</DateUtc></FrequencyChange></FrequencyChanges></Clock>\n	1 ver1_main_procedure-9-1	99.940	1.0.0.880	1	jz	-1682491531	prawa	1	2.0.10.182	08-11-2015	2015-08-11 07:10:41	09:10:41	mezczyzna	2.0.10.92	3	4	1	1																							d	{SPACE}		no	BlockProc2		BlockList									43	Free	dl	color_yellow.png		-1	5	388500	460																			2					75	prime_right.png	0	388080	0	0	13	0	388080	0	388080	1	388080	20	0	-1	386581	388080	388079	0	prime_right.png	TrialProc1	right	0		0	10	388390	-388390		0	0	TrialList2	target_both.png	0	dl	-1	3	388130	260	l	364	388494															11	1	43	neut			450
1 ver1_main_procedure	9	1	25	<?xml version="1.0"?>\n<Clock xmlns:dt="urn:schemas-microsoft-com:datatypes"><Description dt:dt="string">E-Prime Primary Realtime Clock</Description><StartTime><Timestamp dt:dt="int">0</Timestamp><DateUtc dt:dt="string">2015-08-11T07:10:41Z</DateUtc></StartTime><FrequencyChanges><FrequencyChange><Frequency dt:dt="r8">2612324</Frequency><Timestamp dt:dt="r8">2611945348</Timestamp><Current dt:dt="r8">0</Current><DateUtc dt:dt="string">2015-08-11T07:10:41Z</DateUtc></FrequencyChange></FrequencyChanges></Clock>\n	1 ver1_main_procedure-9-1	99.940	1.0.0.880	1	jz	-1682491531	prawa	1	2.0.10.182	08-11-2015	2015-08-11 07:10:41	09:10:41	mezczyzna	2.0.10.92	3	4	1	1																							d	{SPACE}		no	BlockProc2		BlockList									44	Cued	l			-1	9	391312	460																			1					25	prime_left.png	0	390771	0	0	13	1	390772	1	390772	0	390771	20	0	-1	389272	390771	390771	0	prime_left.png	TrialProc1	right	0		0	11	391082	-391082		0	0	TrialList2	target_right.png	0	l	-1	3	390821	261	d	481	391302															5	1	44	neut			450
1 ver1_main_procedure	9	1	25	<?xml version="1.0"?>\n<Clock xmlns:dt="urn:schemas-microsoft-com:datatypes"><Description dt:dt="string">E-Prime Primary Realtime Clock</Description><StartTime><Timestamp dt:dt="int">0</Timestamp><DateUtc dt:dt="string">2015-08-11T07:10:41Z</DateUtc></StartTime><FrequencyChanges><FrequencyChange><Frequency dt:dt="r8">2612324</Frequency><Timestamp dt:dt="r8">2611945348</Timestamp><Current dt:dt="r8">0</Current><DateUtc dt:dt="string">2015-08-11T07:10:41Z</DateUtc></FrequencyChange></FrequencyChanges></Clock>\n	1 ver1_main_procedure-9-1	99.940	1.0.0.880	1	jz	-1682491531	prawa	1	2.0.10.182	08-11-2015	2015-08-11 07:10:41	09:10:41	mezczyzna	2.0.10.92	3	4	1	1																							d	{SPACE}		no	BlockProc2		BlockList									45	Free	dl	color_green.png		-1	8	394143	161																								75	prime_left.png	0	393583	0	0	13	0	393583	0	393583	1	393583	20	0	-1	392084	393583	393582	0		TrialProc1	left	0		0	10	393893	-393893		0	0	TrialList2	target_both.png	0	dl	-1	3	393633	260	l	501	394134															7	1	45	comp			150
1 ver1_main_procedure	9	1	25	<?xml version="1.0"?>\n<Clock xmlns:dt="urn:schemas-microsoft-com:datatypes"><Description dt:dt="string">E-Prime Primary Realtime Clock</Description><StartTime><Timestamp dt:dt="int">0</Timestamp><DateUtc dt:dt="string">2015-08-11T07:10:41Z</DateUtc></StartTime><FrequencyChanges><FrequencyChange><Frequency dt:dt="r8">2612324</Frequency><Timestamp dt:dt="r8">2611945348</Timestamp><Current dt:dt="r8">0</Current><DateUtc dt:dt="string">2015-08-11T07:10:41Z</DateUtc></FrequencyChange></FrequencyChanges></Clock>\n	1 ver1_main_procedure-9-1	99.940	1.0.0.880	1	jz	-1682491531	prawa	1	2.0.10.182	08-11-2015	2015-08-11 07:10:41	09:10:41	mezczyzna	2.0.10.92	3	4	1	1																							d	{SPACE}		no	BlockProc2		BlockList									46	Free	dl	color_purple.png		-1	10	396785	160																								75	prime_right.png	0	396115	0	0	13	0	396115	0	396115	1	396115	20	0	-1	394615	396115	396114	0		TrialProc1	right	0		0	10	396425	-396425		0	0	TrialList2	target_both.png	0	dl	-1	3	396165	260	l	609	396774															10	1	46	comp			150
1 ver1_main_procedure	9	1	25	<?xml version="1.0"?>\n<Clock xmlns:dt="urn:schemas-microsoft-com:datatypes"><Description dt:dt="string">E-Prime Primary Realtime Clock</Description><StartTime><Timestamp dt:dt="int">0</Timestamp><DateUtc dt:dt="string">2015-08-11T07:10:41Z</DateUtc></StartTime><FrequencyChanges><FrequencyChange><Frequency dt:dt="r8">2612324</Frequency><Timestamp dt:dt="r8">2611945348</Timestamp><Current dt:dt="r8">0</Current><DateUtc dt:dt="string">2015-08-11T07:10:41Z</DateUtc></FrequencyChange></FrequencyChanges></Clock>\n	1 ver1_main_procedure-9-1	99.940	1.0.0.880	1	jz	-1682491531	prawa	1	2.0.10.182	08-11-2015	2015-08-11 07:10:41	09:10:41	mezczyzna	2.0.10.92	3	4	1	1																							d	{SPACE}		no	BlockProc2		BlockList									47	Free	dl	color_yellow.png		-1	8	399247	159																			2					75	prime_right.png	0	398756	0	0	13	0	398756	0	398756	1	398756	20	0	-1	397257	398756	398755	0	prime_right.png	TrialProc1	left	0		1	10	399066	-399066		0	0	TrialList2	target_both.png	0	dl	-1	3	398806	260	l	432	399238															8	1	47	neut			150
1 ver1_main_procedure	9	1	25	<?xml version="1.0"?>\n<Clock xmlns:dt="urn:schemas-microsoft-com:datatypes"><Description dt:dt="string">E-Prime Primary Realtime Clock</Description><StartTime><Timestamp dt:dt="int">0</Timestamp><DateUtc dt:dt="string">2015-08-11T07:10:41Z</DateUtc></StartTime><FrequencyChanges><FrequencyChange><Frequency dt:dt="r8">2612324</Frequency><Timestamp dt:dt="r8">2611945348</Timestamp><Current dt:dt="r8">0</Current><DateUtc dt:dt="string">2015-08-11T07:10:41Z</DateUtc></FrequencyChange></FrequencyChanges></Clock>\n	1 ver1_main_procedure-9-1	99.940	1.0.0.880	1	jz	-1682491531	prawa	1	2.0.10.182	08-11-2015	2015-08-11 07:10:41	09:10:41	mezczyzna	2.0.10.92	3	4	1	1																							d	{SPACE}		no	BlockProc2		BlockList									48	Cued	l	color_green.png		-1	13	401828	160																								75	prime_left.png	0	401218	0	0	13	0	401218	0	401218	1	401218	20	0	-1	399718	401218	401217	0		TrialProc1	right	0		0	10	401528	-401528		0	0	TrialList2	target_right.png	1	l	-1	3	401268	260	l	546	401814															6	1	48	incomp			150
1 ver1_main_procedure	9	1	25	<?xml version="1.0"?>\n<Clock xmlns:dt="urn:schemas-microsoft-com:datatypes"><Description dt:dt="string">E-Prime Primary Realtime Clock</Description><StartTime><Timestamp dt:dt="int">0</Timestamp><DateUtc dt:dt="string">2015-08-11T07:10:41Z</DateUtc></StartTime><FrequencyChanges><FrequencyChange><Frequency dt:dt="r8">2612324</Frequency><Timestamp dt:dt="r8">2611945348</Timestamp><Current dt:dt="r8">0</Current><DateUtc dt:dt="string">2015-08-11T07:10:41Z</DateUtc></FrequencyChange></FrequencyChanges></Clock>\n	1 ver1_main_procedure-9-1	99.940	1.0.0.880	1	jz	-1682491531	prawa	1	2.0.10.182	08-11-2015	2015-08-11 07:10:41	09:10:41	mezczyzna	2.0.10.92	3	4	1	1																							d	{SPACE}		no	BlockProc2		BlockList									49	Free	dl	color_red.png		-1	6	404389	461																								25	prime_right.png	0	403799	0	0	13	0	403799	0	403799	1	403799	20	0	-1	402300	403799	403798	0		TrialProc1	left	0		0	10	404109	-404109		0	0	TrialList2	target_both.png	0	dl	-1	3	403849	260	d	533	404382															9	1	49	incomp			450
1 ver1_main_procedure	9	1	25	<?xml version="1.0"?>\n<Clock xmlns:dt="urn:schemas-microsoft-com:datatypes"><Description dt:dt="string">E-Prime Primary Realtime Clock</Description><StartTime><Timestamp dt:dt="int">0</Timestamp><DateUtc dt:dt="string">2015-08-11T07:10:41Z</DateUtc></StartTime><FrequencyChanges><FrequencyChange><Frequency dt:dt="r8">2612324</Frequency><Timestamp dt:dt="r8">2611945348</Timestamp><Current dt:dt="r8">0</Current><DateUtc dt:dt="string">2015-08-11T07:10:41Z</DateUtc></FrequencyChange></FrequencyChanges></Clock>\n	1 ver1_main_procedure-9-1	99.940	1.0.0.880	1	jz	-1682491531	prawa	1	2.0.10.182	08-11-2015	2015-08-11 07:10:41	09:10:41	mezczyzna	2.0.10.92	3	4	1	1																							d	{SPACE}		no	BlockProc2		BlockList									50	Free	dl	color_green.png		-1	14	407061	460																								25	prime_left.png	0	406661	0	0	13	0	406661	0	406661	1	406661	20	0	-1	405162	406661	406660	0		TrialProc1	right	0		0	10	406971	-406971		0	0	TrialList2	target_both.png	0	dl	-1	3	406711	260	l	335	407046															12	1	50	incomp			450
1 ver1_main_procedure	9	1	25	<?xml version="1.0"?>\n<Clock xmlns:dt="urn:schemas-microsoft-com:datatypes"><Description dt:dt="string">E-Prime Primary Realtime Clock</Description><StartTime><Timestamp dt:dt="int">0</Timestamp><DateUtc dt:dt="string">2015-08-11T07:10:41Z</DateUtc></StartTime><FrequencyChanges><FrequencyChange><Frequency dt:dt="r8">2612324</Frequency><Timestamp dt:dt="r8">2611945348</Timestamp><Current dt:dt="r8">0</Current><DateUtc dt:dt="string">2015-08-11T07:10:41Z</DateUtc></FrequencyChange></FrequencyChanges></Clock>\n	1 ver1_main_procedure-9-1	99.940	1.0.0.880	1	jz	-1682491531	prawa	1	2.0.10.182	08-11-2015	2015-08-11 07:10:41	09:10:41	mezczyzna	2.0.10.92	3	4	1	1																							d	{SPACE}		no	BlockProc2		BlockList									51	Free	dl	color_purple.png		-1	10	409833	310																								75	prime_right.png	0	409332	0	0	13	1	409333	1	409333	1	409332	20	0	-1	407833	409332	409331	0		TrialProc1	left	0		1	10	409642	-409642		0	0	TrialList2	target_both.png	0	dl	-1	3	409382	260	l	441	409823															9	1	51	incomp			300
1 ver1_main_procedure	9	1	25	<?xml version="1.0"?>\n<Clock xmlns:dt="urn:schemas-microsoft-com:datatypes"><Description dt:dt="string">E-Prime Primary Realtime Clock</Description><StartTime><Timestamp dt:dt="int">0</Timestamp><DateUtc dt:dt="string">2015-08-11T07:10:41Z</DateUtc></StartTime><FrequencyChanges><FrequencyChange><Frequency dt:dt="r8">2612324</Frequency><Timestamp dt:dt="r8">2611945348</Timestamp><Current dt:dt="r8">0</Current><DateUtc dt:dt="string">2015-08-11T07:10:41Z</DateUtc></FrequencyChange></FrequencyChanges></Clock>\n	1 ver1_main_procedure-9-1	99.940	1.0.0.880	1	jz	-1682491531	prawa	1	2.0.10.182	08-11-2015	2015-08-11 07:10:41	09:10:41	mezczyzna	2.0.10.92	3	4	1	1																							d	{SPACE}		no	BlockProc2		BlockList									52	Free	dl	color_blue.png		-1	5	412684	310																			1					25	prime_left.png	0	411954	0	0	13	0	411954	0	411954	1	411954	20	0	-1	410455	411954	411953	0	prime_left.png	TrialProc1	left	0		0	10	412264	-412264		0	0	TrialList2	target_both.png	0	dl	-1	3	412004	260	d	675	412679															8	1	52	neut			300
1 ver1_main_procedure	9	1	25	<?xml version="1.0"?>\n<Clock xmlns:dt="urn:schemas-microsoft-com:datatypes"><Description dt:dt="string">E-Prime Primary Realtime Clock</Description><StartTime><Timestamp dt:dt="int">0</Timestamp><DateUtc dt:dt="string">2015-08-11T07:10:41Z</DateUtc></StartTime><FrequencyChanges><FrequencyChange><Frequency dt:dt="r8">2612324</Frequency><Timestamp dt:dt="r8">2611945348</Timestamp><Current dt:dt="r8">0</Current><DateUtc dt:dt="string">2015-08-11T07:10:41Z</DateUtc></FrequencyChange></FrequencyChanges></Clock>\n	1 ver1_main_procedure-9-1	99.940	1.0.0.880	1	jz	-1682491531	prawa	1	2.0.10.182	08-11-2015	2015-08-11 07:10:41	09:10:41	mezczyzna	2.0.10.92	3	4	1	1																							d	{SPACE}		no	BlockProc2		BlockList									53	Free	dl	color_red.png		-1	15	415326	310																								25	prime_right.png	0	414806	0	0	13	0	414806	0	414806	1	414806	20	0	-1	413306	414806	414805	0		TrialProc1	left	0		0	10	415116	-415116		0	0	TrialList2	target_both.png	0	dl	-1	3	414856	260	d	455	415311															9	1	53	incomp			300
1 ver1_main_procedure	9	1	25	<?xml version="1.0"?>\n<Clock xmlns:dt="urn:schemas-microsoft-com:datatypes"><Description dt:dt="string">E-Prime Primary Realtime Clock</Description><StartTime><Timestamp dt:dt="int">0</Timestamp><DateUtc dt:dt="string">2015-08-11T07:10:41Z</DateUtc></StartTime><FrequencyChanges><FrequencyChange><Frequency dt:dt="r8">2612324</Frequency><Timestamp dt:dt="r8">2611945348</Timestamp><Current dt:dt="r8">0</Current><DateUtc dt:dt="string">2015-08-11T07:10:41Z</DateUtc></FrequencyChange></FrequencyChanges></Clock>\n	1 ver1_main_procedure-9-1	99.940	1.0.0.880	1	jz	-1682491531	prawa	1	2.0.10.182	08-11-2015	2015-08-11 07:10:41	09:10:41	mezczyzna	2.0.10.92	3	4	1	1																							d	{SPACE}		no	BlockProc2		BlockList									54	Cued	l	color_yellow.png		-1	14	417957	160																			2					25	prime_right.png	0	417447	0	0	13	0	417447	0	417447	1	417447	20	0	-1	415948	417447	417446	0	prime_right.png	TrialProc1	right	0		0	10	417757	-417757		0	0	TrialList2	target_right.png	1	l	-1	3	417497	260	l	446	417943															5	1	54	neut			150
1 ver1_main_procedure	9	1	25	<?xml version="1.0"?>\n<Clock xmlns:dt="urn:schemas-microsoft-com:datatypes"><Description dt:dt="string">E-Prime Primary Realtime Clock</Description><StartTime><Timestamp dt:dt="int">0</Timestamp><DateUtc dt:dt="string">2015-08-11T07:10:41Z</DateUtc></StartTime><FrequencyChanges><FrequencyChange><Frequency dt:dt="r8">2612324</Frequency><Timestamp dt:dt="r8">2611945348</Timestamp><Current dt:dt="r8">0</Current><DateUtc dt:dt="string">2015-08-11T07:10:41Z</DateUtc></FrequencyChange></FrequencyChanges></Clock>\n	1 ver1_main_procedure-9-1	99.940	1.0.0.880	1	jz	-1682491531	prawa	1	2.0.10.182	08-11-2015	2015-08-11 07:10:41	09:10:41	mezczyzna	2.0.10.92	3	4	1	1																							d	{SPACE}		no	BlockProc2		BlockList									55	Cued	d	color_blue.png		-1	12	420379	310																			1					25	prime_left.png	0	419929	0	0	13	0	419929	0	419929	1	419929	20	0	-1	418429	419929	419928	0	prime_left.png	TrialProc1	left	0		0	10	420239	-420239		0	0	TrialList2	target_left.png	1	d	-1	3	419979	260	d	388	420367															2	1	55	neut			300
1 ver1_main_procedure	9	1	25	<?xml version="1.0"?>\n<Clock xmlns:dt="urn:schemas-microsoft-com:datatypes"><Description dt:dt="string">E-Prime Primary Realtime Clock</Description><StartTime><Timestamp dt:dt="int">0</Timestamp><DateUtc dt:dt="string">2015-08-11T07:10:41Z</DateUtc></StartTime><FrequencyChanges><FrequencyChange><Frequency dt:dt="r8">2612324</Frequency><Timestamp dt:dt="r8">2611945348</Timestamp><Current dt:dt="r8">0</Current><DateUtc dt:dt="string">2015-08-11T07:10:41Z</DateUtc></FrequencyChange></FrequencyChanges></Clock>\n	1 ver1_main_procedure-9-1	99.940	1.0.0.880	1	jz	-1682491531	prawa	1	2.0.10.182	08-11-2015	2015-08-11 07:10:41	09:10:41	mezczyzna	2.0.10.92	3	4	1	1																							d	{SPACE}		no	BlockProc2		BlockList									56	Cued	l	color_purple.png		-1	9	422920	461																								25	prime_right.png	0	422500	0	0	13	0	422500	0	422500	1	422500	20	0	-1	421001	422500	422499	0		TrialProc1	right	0		0	10	422810	-422810		0	0	TrialList2	target_right.png	1	l	-1	3	422550	260	l	361	422911															4	1	56	comp			450
1 ver1_main_procedure	9	1	25	<?xml version="1.0"?>\n<Clock xmlns:dt="urn:schemas-microsoft-com:datatypes"><Description dt:dt="string">E-Prime Primary Realtime Clock</Description><StartTime><Timestamp dt:dt="int">0</Timestamp><DateUtc dt:dt="string">2015-08-11T07:10:41Z</DateUtc></StartTime><FrequencyChanges><FrequencyChange><Frequency dt:dt="r8">2612324</Frequency><Timestamp dt:dt="r8">2611945348</Timestamp><Current dt:dt="r8">0</Current><DateUtc dt:dt="string">2015-08-11T07:10:41Z</DateUtc></FrequencyChange></FrequencyChanges></Clock>\n	1 ver1_main_procedure-9-1	99.940	1.0.0.880	1	jz	-1682491531	prawa	1	2.0.10.182	08-11-2015	2015-08-11 07:10:41	09:10:41	mezczyzna	2.0.10.92	3	4	1	1																							d	{SPACE}		no	BlockProc2		BlockList									57	Free	dl	color_yellow.png		-1	7	425782	460																			2					75	prime_right.png	0	425192	0	0	13	0	425192	0	425192	1	425192	20	0	-1	423692	425192	425191	0	prime_right.png	TrialProc1	right	0		0	10	425502	-425502		0	0	TrialList2	target_both.png	0	dl	-1	3	425242	260	l	533	425775															11	1	57	neut			450
1 ver1_main_procedure	9	1	25	<?xml version="1.0"?>\n<Clock xmlns:dt="urn:schemas-microsoft-com:datatypes"><Description dt:dt="string">E-Prime Primary Realtime Clock</Description><StartTime><Timestamp dt:dt="int">0</Timestamp><DateUtc dt:dt="string">2015-08-11T07:10:41Z</DateUtc></StartTime><FrequencyChanges><FrequencyChange><Frequency dt:dt="r8">2612324</Frequency><Timestamp dt:dt="r8">2611945348</Timestamp><Current dt:dt="r8">0</Current><DateUtc dt:dt="string">2015-08-11T07:10:41Z</DateUtc></FrequencyChange></FrequencyChanges></Clock>\n	1 ver1_main_procedure-9-1	99.940	1.0.0.880	1	jz	-1682491531	prawa	1	2.0.10.182	08-11-2015	2015-08-11 07:10:41	09:10:41	mezczyzna	2.0.10.92	3	4	1	1																							d	{SPACE}		no	BlockProc2		BlockList									58	Free	dl	color_orange.png		-1	15	428654	310																								25	prime_left.png	0	428053	0	0	13	0	428054	0	428053	1	428053	20	0	-1	426554	428053	428052	0		TrialProc1	left	0		1	10	428363	-428363		0	0	TrialList2	target_both.png	0	dl	-1	3	428103	260	d	536	428639															7	1	58	comp			300
1 ver1_main_procedure	9	1	25	<?xml version="1.0"?>\n<Clock xmlns:dt="urn:schemas-microsoft-com:datatypes"><Description dt:dt="string">E-Prime Primary Realtime Clock</Description><StartTime><Timestamp dt:dt="int">0</Timestamp><DateUtc dt:dt="string">2015-08-11T07:10:41Z</DateUtc></StartTime><FrequencyChanges><FrequencyChange><Frequency dt:dt="r8">2612324</Frequency><Timestamp dt:dt="r8">2611945348</Timestamp><Current dt:dt="r8">0</Current><DateUtc dt:dt="string">2015-08-11T07:10:41Z</DateUtc></FrequencyChange></FrequencyChanges></Clock>\n	1 ver1_main_procedure-9-1	99.940	1.0.0.880	1	jz	-1682491531	prawa	1	2.0.10.182	08-11-2015	2015-08-11 07:10:41	09:10:41	mezczyzna	2.0.10.92	3	4	1	1																							d	{SPACE}		no	BlockProc2		BlockList									59	Cued	l	color_yellow.png		-1	14	431285	460																			1					75	prime_left.png	0	430775	0	0	13	0	430775	0	430775	1	430775	20	0	-1	429276	430775	430774	0	prime_left.png	TrialProc1	right	0		0	10	431085	-431085		0	0	TrialList2	target_right.png	1	l	-1	3	430825	260	l	446	431271															5	1	59	neut			450
1 ver1_main_procedure	9	1	25	<?xml version="1.0"?>\n<Clock xmlns:dt="urn:schemas-microsoft-com:datatypes"><Description dt:dt="string">E-Prime Primary Realtime Clock</Description><StartTime><Timestamp dt:dt="int">0</Timestamp><DateUtc dt:dt="string">2015-08-11T07:10:41Z</DateUtc></StartTime><FrequencyChanges><FrequencyChange><Frequency dt:dt="r8">2612324</Frequency><Timestamp dt:dt="r8">2611945348</Timestamp><Current dt:dt="r8">0</Current><DateUtc dt:dt="string">2015-08-11T07:10:41Z</DateUtc></FrequencyChange></FrequencyChanges></Clock>\n	1 ver1_main_procedure-9-1	99.940	1.0.0.880	1	jz	-1682491531	prawa	1	2.0.10.182	08-11-2015	2015-08-11 07:10:41	09:10:41	mezczyzna	2.0.10.92	3	4	1	1																							d	{SPACE}		no	BlockProc2		BlockList									60	Cued	l	color_green.png		-1	7	434087	160																								25	prime_left.png	0	433557	0	0	13	0	433557	0	433557	1	433557	20	0	-1	432057	433557	433556	0		TrialProc1	right	0		0	10	433867	-433867		0	0	TrialList2	target_right.png	1	l	-1	3	433607	260	l	472	434079															6	1	60	incomp			150
1 ver1_main_procedure	9	1	25	<?xml version="1.0"?>\n<Clock xmlns:dt="urn:schemas-microsoft-com:datatypes"><Description dt:dt="string">E-Prime Primary Realtime Clock</Description><StartTime><Timestamp dt:dt="int">0</Timestamp><DateUtc dt:dt="string">2015-08-11T07:10:41Z</DateUtc></StartTime><FrequencyChanges><FrequencyChange><Frequency dt:dt="r8">2612324</Frequency><Timestamp dt:dt="r8">2611945348</Timestamp><Current dt:dt="r8">0</Current><DateUtc dt:dt="string">2015-08-11T07:10:41Z</DateUtc></FrequencyChange></FrequencyChanges></Clock>\n	1 ver1_main_procedure-9-1	99.940	1.0.0.880	1	jz	-1682491531	prawa	1	2.0.10.182	08-11-2015	2015-08-11 07:10:41	09:10:41	mezczyzna	2.0.10.92	3	4	1	1																							d	{SPACE}		no	BlockProc2		BlockList									61	Free	dl	color_blue.png		-1	6	436758	160																			2					25	prime_right.png	0	436058	0	0	13	0	436058	0	436058	1	436058	20	0	-1	434559	436058	436057	0	prime_right.png	TrialProc1	right	0		0	10	436368	-436368		0	0	TrialList2	target_both.png	0	dl	-1	3	436108	260	d	643	436751															11	1	61	neut			150
1 ver1_main_procedure	9	1	25	<?xml version="1.0"?>\n<Clock xmlns:dt="urn:schemas-microsoft-com:datatypes"><Description dt:dt="string">E-Prime Primary Realtime Clock</Description><StartTime><Timestamp dt:dt="int">0</Timestamp><DateUtc dt:dt="string">2015-08-11T07:10:41Z</DateUtc></StartTime><FrequencyChanges><FrequencyChange><Frequency dt:dt="r8">2612324</Frequency><Timestamp dt:dt="r8">2611945348</Timestamp><Current dt:dt="r8">0</Current><DateUtc dt:dt="string">2015-08-11T07:10:41Z</DateUtc></FrequencyChange></FrequencyChanges></Clock>\n	1 ver1_main_procedure-9-1	99.940	1.0.0.880	1	jz	-1682491531	prawa	1	2.0.10.182	08-11-2015	2015-08-11 07:10:41	09:10:41	mezczyzna	2.0.10.92	3	4	1	1																							d	{SPACE}		no	BlockProc2		BlockList									62	Cued	l	color_green.png		-1	8	439400	460																								75	prime_left.png	0	438730	0	0	13	0	438730	0	438730	1	438730	20	0	-1	437230	438730	438729	0		TrialProc1	right	0		0	10	439040	-439040		0	0	TrialList2	target_right.png	1	l	-1	3	438780	260	l	611	439391															6	1	62	incomp			450
1 ver1_main_procedure	9	1	25	<?xml version="1.0"?>\n<Clock xmlns:dt="urn:schemas-microsoft-com:datatypes"><Description dt:dt="string">E-Prime Primary Realtime Clock</Description><StartTime><Timestamp dt:dt="int">0</Timestamp><DateUtc dt:dt="string">2015-08-11T07:10:41Z</DateUtc></StartTime><FrequencyChanges><FrequencyChange><Frequency dt:dt="r8">2612324</Frequency><Timestamp dt:dt="r8">2611945348</Timestamp><Current dt:dt="r8">0</Current><DateUtc dt:dt="string">2015-08-11T07:10:41Z</DateUtc></FrequencyChange></FrequencyChanges></Clock>\n	1 ver1_main_procedure-9-1	99.940	1.0.0.880	1	jz	-1682491531	prawa	1	2.0.10.182	08-11-2015	2015-08-11 07:10:41	09:10:41	mezczyzna	2.0.10.92	3	4	1	1																							d	{SPACE}		no	BlockProc2		BlockList									63	Free	dl	color_yellow.png		-1	10	442162	160																			1					75	prime_left.png	0	441671	0	0	13	0	441671	0	441671	1	441671	20	0	-1	440172	441671	441670	0	prime_left.png	TrialProc1	left	0		1	10	441981	-441981		0	0	TrialList2	target_both.png	0	dl	-1	3	441721	260	l	430	442151															8	1	63	neut			150
1 ver1_main_procedure	9	1	25	<?xml version="1.0"?>\n<Clock xmlns:dt="urn:schemas-microsoft-com:datatypes"><Description dt:dt="string">E-Prime Primary Realtime Clock</Description><StartTime><Timestamp dt:dt="int">0</Timestamp><DateUtc dt:dt="string">2015-08-11T07:10:41Z</DateUtc></StartTime><FrequencyChanges><FrequencyChange><Frequency dt:dt="r8">2612324</Frequency><Timestamp dt:dt="r8">2611945348</Timestamp><Current dt:dt="r8">0</Current><DateUtc dt:dt="string">2015-08-11T07:10:41Z</DateUtc></FrequencyChange></FrequencyChanges></Clock>\n	1 ver1_main_procedure-9-1	99.940	1.0.0.880	1	jz	-1682491531	prawa	1	2.0.10.182	08-11-2015	2015-08-11 07:10:41	09:10:41	mezczyzna	2.0.10.92	3	4	1	1																							d	{SPACE}		no	BlockProc2		BlockList									64	Free	dl	color_purple.png		-1	5	444533	310																								25	prime_right.png	0	444133	0	0	13	0	444133	0	444133	1	444133	20	0	-1	442634	444133	444132	0		TrialProc1	left	0		0	10	444443	-444443		0	0	TrialList2	target_both.png	0	dl	-1	3	444183	260	l	344	444527															9	1	64	incomp			300
1 ver1_main_procedure	9	1	25	<?xml version="1.0"?>\n<Clock xmlns:dt="urn:schemas-microsoft-com:datatypes"><Description dt:dt="string">E-Prime Primary Realtime Clock</Description><StartTime><Timestamp dt:dt="int">0</Timestamp><DateUtc dt:dt="string">2015-08-11T07:10:41Z</DateUtc></StartTime><FrequencyChanges><FrequencyChange><Frequency dt:dt="r8">2612324</Frequency><Timestamp dt:dt="r8">2611945348</Timestamp><Current dt:dt="r8">0</Current><DateUtc dt:dt="string">2015-08-11T07:10:41Z</DateUtc></FrequencyChange></FrequencyChanges></Clock>\n	1 ver1_main_procedure-9-1	99.940	1.0.0.880	1	jz	-1682491531	prawa	1	2.0.10.182	08-11-2015	2015-08-11 07:10:41	09:10:41	mezczyzna	2.0.10.92	3	4	1	1																							d	{SPACE}		no	BlockProc2		BlockList									65	Free	dl	color_orange.png		-1	5	447405	160																								25	prime_left.png	0	446654	0	0	13	0	446654	0	446654	1	446654	20	0	-1	445155	446654	446653	0		TrialProc1	left	0		1	10	446964	-446964		0	0	TrialList2	target_both.png	0	dl	-1	3	446704	260	d	695	447399															7	1	65	comp			150
1 ver1_main_procedure	9	1	25	<?xml version="1.0"?>\n<Clock xmlns:dt="urn:schemas-microsoft-com:datatypes"><Description dt:dt="string">E-Prime Primary Realtime Clock</Description><StartTime><Timestamp dt:dt="int">0</Timestamp><DateUtc dt:dt="string">2015-08-11T07:10:41Z</DateUtc></StartTime><FrequencyChanges><FrequencyChange><Frequency dt:dt="r8">2612324</Frequency><Timestamp dt:dt="r8">2611945348</Timestamp><Current dt:dt="r8">0</Current><DateUtc dt:dt="string">2015-08-11T07:10:41Z</DateUtc></FrequencyChange></FrequencyChanges></Clock>\n	1 ver1_main_procedure-9-1	99.940	1.0.0.880	1	jz	-1682491531	prawa	1	2.0.10.182	08-11-2015	2015-08-11 07:10:41	09:10:41	mezczyzna	2.0.10.92	3	4	1	1																							d	{SPACE}		no	BlockProc2		BlockList									66	Cued	l	color_purple.png		-1	14	450006	310																								25	prime_right.png	0	449376	0	0	13	0	449376	0	449376	1	449376	20	0	-1	447877	449376	449375	0		TrialProc1	right	0		0	10	449686	-449686		0	0	TrialList2	target_right.png	1	l	-1	3	449426	260	l	565	449991															4	1	66	comp			300
1 ver1_main_procedure	9	1	25	<?xml version="1.0"?>\n<Clock xmlns:dt="urn:schemas-microsoft-com:datatypes"><Description dt:dt="string">E-Prime Primary Realtime Clock</Description><StartTime><Timestamp dt:dt="int">0</Timestamp><DateUtc dt:dt="string">2015-08-11T07:10:41Z</DateUtc></StartTime><FrequencyChanges><FrequencyChange><Frequency dt:dt="r8">2612324</Frequency><Timestamp dt:dt="r8">2611945348</Timestamp><Current dt:dt="r8">0</Current><DateUtc dt:dt="string">2015-08-11T07:10:41Z</DateUtc></FrequencyChange></FrequencyChanges></Clock>\n	1 ver1_main_procedure-9-1	99.940	1.0.0.880	1	jz	-1682491531	prawa	1	2.0.10.182	08-11-2015	2015-08-11 07:10:41	09:10:41	mezczyzna	2.0.10.92	3	4	1	1																							d	{SPACE}		no	BlockProc2		BlockList									67	Free	dl	color_orange.png		-1	6	452798	460																								25	prime_left.png	1	452128	0	0	13	1	452128	1	452128	0	452127	20	0	-1	450628	452127	452127	0		TrialProc1	right	0		0	11	452438	-452438		0	0	TrialList2	target_both.png	0	dl	-1	3	452177	261	d	614	452791															12	1	67	incomp			450
1 ver1_main_procedure	9	1	25	<?xml version="1.0"?>\n<Clock xmlns:dt="urn:schemas-microsoft-com:datatypes"><Description dt:dt="string">E-Prime Primary Realtime Clock</Description><StartTime><Timestamp dt:dt="int">0</Timestamp><DateUtc dt:dt="string">2015-08-11T07:10:41Z</DateUtc></StartTime><FrequencyChanges><FrequencyChange><Frequency dt:dt="r8">2612324</Frequency><Timestamp dt:dt="r8">2611945348</Timestamp><Current dt:dt="r8">0</Current><DateUtc dt:dt="string">2015-08-11T07:10:41Z</DateUtc></FrequencyChange></FrequencyChanges></Clock>\n	1 ver1_main_procedure-9-1	99.940	1.0.0.880	1	jz	-1682491531	prawa	1	2.0.10.182	08-11-2015	2015-08-11 07:10:41	09:10:41	mezczyzna	2.0.10.92	3	4	1	1																							d	{SPACE}		no	BlockProc2		BlockList									68	Free	dl	color_purple.png		-1	9	455569	311																								75	prime_right.png	0	455069	0	0	13	0	455069	0	455069	1	455069	20	0	-1	453570	455069	455068	0		TrialProc1	right	0		0	10	455379	-455379		0	0	TrialList2	target_both.png	0	dl	-1	3	455119	260	l	440	455559															10	1	68	comp			300
1 ver1_main_procedure	9	1	25	<?xml version="1.0"?>\n<Clock xmlns:dt="urn:schemas-microsoft-com:datatypes"><Description dt:dt="string">E-Prime Primary Realtime Clock</Description><StartTime><Timestamp dt:dt="int">0</Timestamp><DateUtc dt:dt="string">2015-08-11T07:10:41Z</DateUtc></StartTime><FrequencyChanges><FrequencyChange><Frequency dt:dt="r8">2612324</Frequency><Timestamp dt:dt="r8">2611945348</Timestamp><Current dt:dt="r8">0</Current><DateUtc dt:dt="string">2015-08-11T07:10:41Z</DateUtc></FrequencyChange></FrequencyChanges></Clock>\n	1 ver1_main_procedure-9-1	99.940	1.0.0.880	1	jz	-1682491531	prawa	1	2.0.10.182	08-11-2015	2015-08-11 07:10:41	09:10:41	mezczyzna	2.0.10.92	3	4	1	1																							d	{SPACE}		no	BlockProc2		BlockList									69	Free	dl	color_orange.png		-1	9	458361	460																								25	prime_left.png	0	457691	0	0	13	0	457691	0	457691	1	457691	20	0	-1	456192	457691	457690	0		TrialProc1	right	0		0	10	458001	-458001		0	0	TrialList2	target_both.png	0	dl	-1	3	457741	260	d	610	458351															12	1	69	incomp			450
1 ver1_main_procedure	9	1	25	<?xml version="1.0"?>\n<Clock xmlns:dt="urn:schemas-microsoft-com:datatypes"><Description dt:dt="string">E-Prime Primary Realtime Clock</Description><StartTime><Timestamp dt:dt="int">0</Timestamp><DateUtc dt:dt="string">2015-08-11T07:10:41Z</DateUtc></StartTime><FrequencyChanges><FrequencyChange><Frequency dt:dt="r8">2612324</Frequency><Timestamp dt:dt="r8">2611945348</Timestamp><Current dt:dt="r8">0</Current><DateUtc dt:dt="string">2015-08-11T07:10:41Z</DateUtc></FrequencyChange></FrequencyChanges></Clock>\n	1 ver1_main_procedure-9-1	99.940	1.0.0.880	1	jz	-1682491531	prawa	1	2.0.10.182	08-11-2015	2015-08-11 07:10:41	09:10:41	mezczyzna	2.0.10.92	3	4	1	1																							d	{SPACE}		no	BlockProc2		BlockList									70	Free	dl	color_yellow.png		-1	9	461153	160																			2					75	prime_right.png	1	460633	0	0	13	1	460633	1	460633	0	460632	20	0	-1	459133	460632	460632	0	prime_right.png	TrialProc1	left	0		0	11	460943	-460943		0	0	TrialList2	target_both.png	0	dl	-1	3	460682	261	l	461	461143															8	1	70	neut			150
1 ver1_main_procedure	9	1	25	<?xml version="1.0"?>\n<Clock xmlns:dt="urn:schemas-microsoft-com:datatypes"><Description dt:dt="string">E-Prime Primary Realtime Clock</Description><StartTime><Timestamp dt:dt="int">0</Timestamp><DateUtc dt:dt="string">2015-08-11T07:10:41Z</DateUtc></StartTime><FrequencyChanges><FrequencyChange><Frequency dt:dt="r8">2612324</Frequency><Timestamp dt:dt="r8">2611945348</Timestamp><Current dt:dt="r8">0</Current><DateUtc dt:dt="string">2015-08-11T07:10:41Z</DateUtc></FrequencyChange></FrequencyChanges></Clock>\n	1 ver1_main_procedure-9-1	99.940	1.0.0.880	1	jz	-1682491531	prawa	1	2.0.10.182	08-11-2015	2015-08-11 07:10:41	09:10:41	mezczyzna	2.0.10.92	3	4	1	1																							d	{SPACE}		no	BlockProc2		BlockList									71	Free	dl	color_orange.png		-1	10	463794	160																								25	prime_left.png	0	463124	0	0	13	0	463124	0	463124	1	463124	20	0	-1	461625	463124	463123	0		TrialProc1	right	0		0	10	463434	-463434		0	0	TrialList2	target_both.png	0	dl	-1	3	463174	260	d	609	463783															12	1	71	incomp			150
1 ver1_main_procedure	9	1	25	<?xml version="1.0"?>\n<Clock xmlns:dt="urn:schemas-microsoft-com:datatypes"><Description dt:dt="string">E-Prime Primary Realtime Clock</Description><StartTime><Timestamp dt:dt="int">0</Timestamp><DateUtc dt:dt="string">2015-08-11T07:10:41Z</DateUtc></StartTime><FrequencyChanges><FrequencyChange><Frequency dt:dt="r8">2612324</Frequency><Timestamp dt:dt="r8">2611945348</Timestamp><Current dt:dt="r8">0</Current><DateUtc dt:dt="string">2015-08-11T07:10:41Z</DateUtc></FrequencyChange></FrequencyChanges></Clock>\n	1 ver1_main_procedure-9-1	99.940	1.0.0.880	1	jz	-1682491531	prawa	1	2.0.10.182	08-11-2015	2015-08-11 07:10:41	09:10:41	mezczyzna	2.0.10.92	3	4	1	1																							d	{SPACE}		no	BlockProc2		BlockList									72	Free	dl	color_red.png		-1	12	466476	160																								25	prime_right.png	1	465766	0	0	13	1	465766	1	465766	0	465765	20	0	-1	464266	465765	465765	0		TrialProc1	right	0		0	11	466076	-466076		0	0	TrialList2	target_both.png	0	dl	-1	3	465815	261	d	648	466463															10	1	72	comp			150
1 ver1_main_procedure	9	1	25	<?xml version="1.0"?>\n<Clock xmlns:dt="urn:schemas-microsoft-com:datatypes"><Description dt:dt="string">E-Prime Primary Realtime Clock</Description><StartTime><Timestamp dt:dt="int">0</Timestamp><DateUtc dt:dt="string">2015-08-11T07:10:41Z</DateUtc></StartTime><FrequencyChanges><FrequencyChange><Frequency dt:dt="r8">2612324</Frequency><Timestamp dt:dt="r8">2611945348</Timestamp><Current dt:dt="r8">0</Current><DateUtc dt:dt="string">2015-08-11T07:10:41Z</DateUtc></FrequencyChange></FrequencyChanges></Clock>\n	1 ver1_main_procedure-9-1	99.940	1.0.0.880	1	jz	-1682491531	prawa	1	2.0.10.182	08-11-2015	2015-08-11 07:10:41	09:10:41	mezczyzna	2.0.10.92	3	4	1	1																							d	{SPACE}		no	BlockProc2		BlockList									73									5	6	1	2	3	4	color_yellow.png	color_orange.png	color_blue.png	color_green.png	color_purple.png	color_red.png	color_blue.png	color_green.png	color_purple.png	color_red.png	color_yellow.png	color_orange.png		1	1	1	28262																						DragProc											Ocena																															
1 ver1_main_procedure	9	1	25	<?xml version="1.0"?>\n<Clock xmlns:dt="urn:schemas-microsoft-com:datatypes"><Description dt:dt="string">E-Prime Primary Realtime Clock</Description><StartTime><Timestamp dt:dt="int">0</Timestamp><DateUtc dt:dt="string">2015-08-11T07:10:41Z</DateUtc></StartTime><FrequencyChanges><FrequencyChange><Frequency dt:dt="r8">2612324</Frequency><Timestamp dt:dt="r8">2611945348</Timestamp><Current dt:dt="r8">0</Current><DateUtc dt:dt="string">2015-08-11T07:10:41Z</DateUtc></FrequencyChange></FrequencyChanges></Clock>\n	1 ver1_main_procedure-9-1	99.940	1.0.0.880	1	jz	-1682491531	prawa	1	2.0.10.182	08-11-2015	2015-08-11 07:10:41	09:10:41	mezczyzna	2.0.10.92	3	4	1	1																							d	{SPACE}		no	BlockProc2		BlockList									74															color_yellow.png	color_orange.png	color_blue.png	color_green.png	color_purple.png	color_red.png								2	1	2																							EnterProc											Ocena												15	20	40	55	75	98														
1 ver1_main_procedure	9	1	25	<?xml version="1.0"?>\n<Clock xmlns:dt="urn:schemas-microsoft-com:datatypes"><Description dt:dt="string">E-Prime Primary Realtime Clock</Description><StartTime><Timestamp dt:dt="int">0</Timestamp><DateUtc dt:dt="string">2015-08-11T07:10:41Z</DateUtc></StartTime><FrequencyChanges><FrequencyChange><Frequency dt:dt="r8">2612324</Frequency><Timestamp dt:dt="r8">2611945348</Timestamp><Current dt:dt="r8">0</Current><DateUtc dt:dt="string">2015-08-11T07:10:41Z</DateUtc></FrequencyChange></FrequencyChanges></Clock>\n	1 ver1_main_procedure-9-1	99.940	1.0.0.880	1	jz	-1682491531	prawa	1	2.0.10.182	08-11-2015	2015-08-11 07:10:41	09:10:41	mezczyzna	2.0.10.92	4	2	1	2																							d	{SPACE}		no	BlockProc1		BlockList									1	Free	dl	color_orange.png		-1	5	704976	160																								25	prime_right.png	0	704246	0	0	13	0	704246	0	704246	1	704246	20	0	-1	702747	704246	704245	0		TrialProc1	left	0		0	10	704556	-704556		0	0	TrialList1	target_both.png	0	dl	-1	3	704296	260	d	674	704970												9	1	1				incomp			150
1 ver1_main_procedure	9	1	25	<?xml version="1.0"?>\n<Clock xmlns:dt="urn:schemas-microsoft-com:datatypes"><Description dt:dt="string">E-Prime Primary Realtime Clock</Description><StartTime><Timestamp dt:dt="int">0</Timestamp><DateUtc dt:dt="string">2015-08-11T07:10:41Z</DateUtc></StartTime><FrequencyChanges><FrequencyChange><Frequency dt:dt="r8">2612324</Frequency><Timestamp dt:dt="r8">2611945348</Timestamp><Current dt:dt="r8">0</Current><DateUtc dt:dt="string">2015-08-11T07:10:41Z</DateUtc></FrequencyChange></FrequencyChanges></Clock>\n	1 ver1_main_procedure-9-1	99.940	1.0.0.880	1	jz	-1682491531	prawa	1	2.0.10.182	08-11-2015	2015-08-11 07:10:41	09:10:41	mezczyzna	2.0.10.92	4	2	1	2																							d	{SPACE}		no	BlockProc1		BlockList									2	Cued	d	color_purple.png		-1	15	707698	460																			1					25	prime_left.png	0	706947	0	0	13	0	706947	0	706947	1	706947	20	0	-1	705448	706947	706946	0	prime_left.png	TrialProc1	left	0		0	10	707257	-707257		0	0	TrialList1	target_left.png	1	d	-1	3	706997	260	d	685	707682												2	1	2				neut			450
1 ver1_main_procedure	9	1	25	<?xml version="1.0"?>\n<Clock xmlns:dt="urn:schemas-microsoft-com:datatypes"><Description dt:dt="string">E-Prime Primary Realtime Clock</Description><StartTime><Timestamp dt:dt="int">0</Timestamp><DateUtc dt:dt="string">2015-08-11T07:10:41Z</DateUtc></StartTime><FrequencyChanges><FrequencyChange><Frequency dt:dt="r8">2612324</Frequency><Timestamp dt:dt="r8">2611945348</Timestamp><Current dt:dt="r8">0</Current><DateUtc dt:dt="string">2015-08-11T07:10:41Z</DateUtc></FrequencyChange></FrequencyChanges></Clock>\n	1 ver1_main_procedure-9-1	99.940	1.0.0.880	1	jz	-1682491531	prawa	1	2.0.10.182	08-11-2015	2015-08-11 07:10:41	09:10:41	mezczyzna	2.0.10.92	4	2	1	2																							d	{SPACE}		no	BlockProc1		BlockList									3	Cued	d	color_purple.png		-1	6	710929	461																			2					75	prime_right.png	0	709969	0	0	13	0	709969	0	709969	1	709969	20	0	-1	708470	709969	709968	0	prime_right.png	TrialProc1	left	0		0	10	710279	-710279		0	0	TrialList1	target_left.png	1	d	-1	3	710019	260	d	903	710922												2	1	3				neut			450
1 ver1_main_procedure	9	1	25	<?xml version="1.0"?>\n<Clock xmlns:dt="urn:schemas-microsoft-com:datatypes"><Description dt:dt="string">E-Prime Primary Realtime Clock</Description><StartTime><Timestamp dt:dt="int">0</Timestamp><DateUtc dt:dt="string">2015-08-11T07:10:41Z</DateUtc></StartTime><FrequencyChanges><FrequencyChange><Frequency dt:dt="r8">2612324</Frequency><Timestamp dt:dt="r8">2611945348</Timestamp><Current dt:dt="r8">0</Current><DateUtc dt:dt="string">2015-08-11T07:10:41Z</DateUtc></FrequencyChange></FrequencyChanges></Clock>\n	1 ver1_main_procedure-9-1	99.940	1.0.0.880	1	jz	-1682491531	prawa	1	2.0.10.182	08-11-2015	2015-08-11 07:10:41	09:10:41	mezczyzna	2.0.10.92	4	2	1	2																							d	{SPACE}		no	BlockProc1		BlockList									4	Cued	d	color_orange.png		-1	12	713831	160																								25	prime_right.png	0	713201	0	0	13	0	713201	0	713201	1	713201	20	0	-1	711702	713201	713200	0		TrialProc1	left	0		0	10	713511	-713511		0	0	TrialList1	target_left.png	1	d	-1	3	713251	260	d	567	713818												3	1	4				incomp			150
1 ver1_main_procedure	9	1	25	<?xml version="1.0"?>\n<Clock xmlns:dt="urn:schemas-microsoft-com:datatypes"><Description dt:dt="string">E-Prime Primary Realtime Clock</Description><StartTime><Timestamp dt:dt="int">0</Timestamp><DateUtc dt:dt="string">2015-08-11T07:10:41Z</DateUtc></StartTime><FrequencyChanges><FrequencyChange><Frequency dt:dt="r8">2612324</Frequency><Timestamp dt:dt="r8">2611945348</Timestamp><Current dt:dt="r8">0</Current><DateUtc dt:dt="string">2015-08-11T07:10:41Z</DateUtc></FrequencyChange></FrequencyChanges></Clock>\n	1 ver1_main_procedure-9-1	99.940	1.0.0.880	1	jz	-1682491531	prawa	1	2.0.10.182	08-11-2015	2015-08-11 07:10:41	09:10:41	mezczyzna	2.0.10.92	4	2	1	2																							d	{SPACE}		no	BlockProc1		BlockList									5	Cued	d	color_blue.png		-1	8	716363	460																								25	prime_left.png	0	715802	0	0	13	0	715802	0	715802	0	715802	20	0	-1	714303	715802	715802	0		TrialProc1	left	0		0	11	716113	-716113		0	0	TrialList1	target_left.png	1	d	-1	3	715852	261	d	502	716354												1	1	5				comp			450
1 ver1_main_procedure	9	1	25	<?xml version="1.0"?>\n<Clock xmlns:dt="urn:schemas-microsoft-com:datatypes"><Description dt:dt="string">E-Prime Primary Realtime Clock</Description><StartTime><Timestamp dt:dt="int">0</Timestamp><DateUtc dt:dt="string">2015-08-11T07:10:41Z</DateUtc></StartTime><FrequencyChanges><FrequencyChange><Frequency dt:dt="r8">2612324</Frequency><Timestamp dt:dt="r8">2611945348</Timestamp><Current dt:dt="r8">0</Current><DateUtc dt:dt="string">2015-08-11T07:10:41Z</DateUtc></FrequencyChange></FrequencyChanges></Clock>\n	1 ver1_main_procedure-9-1	99.940	1.0.0.880	1	jz	-1682491531	prawa	1	2.0.10.182	08-11-2015	2015-08-11 07:10:41	09:10:41	mezczyzna	2.0.10.92	4	2	1	2																							d	{SPACE}		no	BlockProc1		BlockList									6	Cued	l	color_yellow.png		-1	5	719304	311																								75	prime_left.png	0	718634	0	0	13	0	718634	0	718634	1	718634	20	0	-1	717135	718634	718633	0		TrialProc1	right	0		0	10	718944	-718944		0	0	TrialList1	target_right.png	1	l	-1	3	718684	260	l	614	719298												6	1	6				incomp			300
1 ver1_main_procedure	9	1	25	<?xml version="1.0"?>\n<Clock xmlns:dt="urn:schemas-microsoft-com:datatypes"><Description dt:dt="string">E-Prime Primary Realtime Clock</Description><StartTime><Timestamp dt:dt="int">0</Timestamp><DateUtc dt:dt="string">2015-08-11T07:10:41Z</DateUtc></StartTime><FrequencyChanges><FrequencyChange><Frequency dt:dt="r8">2612324</Frequency><Timestamp dt:dt="r8">2611945348</Timestamp><Current dt:dt="r8">0</Current><DateUtc dt:dt="string">2015-08-11T07:10:41Z</DateUtc></FrequencyChange></FrequencyChanges></Clock>\n	1 ver1_main_procedure-9-1	99.940	1.0.0.880	1	jz	-1682491531	prawa	1	2.0.10.182	08-11-2015	2015-08-11 07:10:41	09:10:41	mezczyzna	2.0.10.92	4	2	1	2																							d	{SPACE}		no	BlockProc1		BlockList									7	Cued	d	color_blue.png		-1	7	721746	310																								25	prime_left.png	0	721426	0	0	13	0	721426	0	721426	1	721426	20	0	-1	719926	721426	721425	0		TrialProc1	left	0		0	10	721736	-721736		0	0	TrialList1	target_left.png	1	d	-1	3	721476	260	d	263	721739												1	1	7				comp			300
1 ver1_main_procedure	9	1	25	<?xml version="1.0"?>\n<Clock xmlns:dt="urn:schemas-microsoft-com:datatypes"><Description dt:dt="string">E-Prime Primary Realtime Clock</Description><StartTime><Timestamp dt:dt="int">0</Timestamp><DateUtc dt:dt="string">2015-08-11T07:10:41Z</DateUtc></StartTime><FrequencyChanges><FrequencyChange><Frequency dt:dt="r8">2612324</Frequency><Timestamp dt:dt="r8">2611945348</Timestamp><Current dt:dt="r8">0</Current><DateUtc dt:dt="string">2015-08-11T07:10:41Z</DateUtc></FrequencyChange></FrequencyChanges></Clock>\n	1 ver1_main_procedure-9-1	99.940	1.0.0.880	1	jz	-1682491531	prawa	1	2.0.10.182	08-11-2015	2015-08-11 07:10:41	09:10:41	mezczyzna	2.0.10.92	4	2	1	2																							d	{SPACE}		no	BlockProc1		BlockList									8	Cued	l	color_red.png		-1	14	724337	160																			1					75	prime_left.png	0	723867	0	0	13	0	723867	0	723867	1	723867	20	0	-1	722368	723867	723866	0	prime_left.png	TrialProc1	right	0		0	10	724177	-724177		0	0	TrialList1	target_right.png	1	l	-1	3	723917	260	l	405	724322												5	1	8				neut			150
1 ver1_main_procedure	9	1	25	<?xml version="1.0"?>\n<Clock xmlns:dt="urn:schemas-microsoft-com:datatypes"><Description dt:dt="string">E-Prime Primary Realtime Clock</Description><StartTime><Timestamp dt:dt="int">0</Timestamp><DateUtc dt:dt="string">2015-08-11T07:10:41Z</DateUtc></StartTime><FrequencyChanges><FrequencyChange><Frequency dt:dt="r8">2612324</Frequency><Timestamp dt:dt="r8">2611945348</Timestamp><Current dt:dt="r8">0</Current><DateUtc dt:dt="string">2015-08-11T07:10:41Z</DateUtc></FrequencyChange></FrequencyChanges></Clock>\n	1 ver1_main_procedure-9-1	99.940	1.0.0.880	1	jz	-1682491531	prawa	1	2.0.10.182	08-11-2015	2015-08-11 07:10:41	09:10:41	mezczyzna	2.0.10.92	4	2	1	2																							d	{SPACE}		no	BlockProc1		BlockList									9	Cued	l			-1	12	726839	160																			2					25	prime_right.png	1	726309	0	0	13	1	726309	1	726309	0	726308	20	0	-1	724809	726308	726308	0	prime_right.png	TrialProc1	right	0		0	10	726619	-726619		0	0	TrialList1	target_right.png	0	l	-1	4	726359	260	d	467	726826												5	1	9				neut			150
